Source;Epoch timestamp (UTC);Date;Time (UTC);Accel X (G);Accel Y (G);Accel Z (G);Gyro X (rad/s);Gyro Y (rad/s);Gyro Z (rad/s)
01:00:0A:00:00:00:00;1725840014;09/09/24;00:00:14;1.012;0.0;0.121;0.006108652334660292;-0.012217304669320583;0.004886921960860491
01:00:0A:00:00:00:00;1725840015;09/09/24;00:00:15;1.013;-0.003;0.113;0.006108652334660292;-0.019547687843441963;0.006108652334660292
01:00:0A:00:00:00:00;1725840016;09/09/24;00:00:16;1.012;0.0;0.116;0.009773843921720982;-0.0036651913542300463;-0.0012217304902151227
01:00:0A:00:00:00:00;1725840017;09/09/24;00:00:17;1.012;0.0;0.121;0.0073303827084600925;-0.012217304669320583;0.0036651913542300463
01:00:0A:00:00:00:00;1725840018;09/09/24;00:00:18;1.012;-0.004;0.114;0.0073303827084600925;-0.01710422709584236;0.004886921960860491
01:00:0A:00:00:00:00;1725840019;09/09/24;00:00:19;1.012;-0.001;0.116;0.009773843921720982;-0.0024434609804302454;-0.0012217304902151227
01:00:0A:00:00:00:00;1725840020;09/09/24;00:00:20;1.011;0.0;0.12;0.0073303827084600925;-0.012217304669320583;0.006108652334660292
01:00:0A:00:00:00:00;1725840021;09/09/24;00:00:21;1.012;-0.004;0.115;0.0073303827084600925;-0.018325956538319588;0.004886921960860491
01:00:0A:00:00:00:00;1725840022;09/09/24;00:00:22;1.012;-0.002;0.116;0.010995574295520782;-0.0036651913542300463;-0.0024434609804302454
01:00:0A:00:00:00:00;1725840023;09/09/24;00:00:23;1.013;0.0;0.122;0.00855211354792118;-0.013439035043120384;0.0036651913542300463
01:00:0A:00:00:00:00;1725840024;09/09/24;00:00:24;1.013;-0.004;0.115;0.00855211354792118;-0.01710422709584236;0.006108652334660292
01:00:0A:00:00:00:00;1725840025;09/09/24;00:00:25;1.013;-0.003;0.117;0.010995574295520782;-0.0024434609804302454;0.0
01:00:0A:00:00:00:00;1725840026;09/09/24;00:00:26;1.012;0.0;0.121;0.00855211354792118;-0.010995574295520782;0.004886921960860491
01:00:0A:00:00:00:00;1725840027;09/09/24;00:00:27;1.013;-0.004;0.113;0.00855211354792118;-0.01710422709584236;0.006108652334660292
01:00:0A:00:00:00:00;1725840028;09/09/24;00:00:28;1.012;-0.002;0.116;0.010995574295520782;-0.006108652334660292;-0.0024434609804302454
01:00:0A:00:00:00:00;1725840029;09/09/24;00:00:29;1.012;0.0;0.12;0.009773843921720982;-0.012217304669320583;0.0036651913542300463
01:00:0A:00:00:00:00;1725840030;09/09/24;00:00:30;1.013;-0.004;0.116;0.009773843921720982;-0.01710422709584236;0.006108652334660292
01:00:0A:00:00:00:00;1725840031;09/09/24;00:00:31;1.014;-0.003;0.115;0.012217304669320583;-0.0024434609804302454;0.0
01:00:0A:00:00:00:00;1725840032;09/09/24;00:00:32;1.011;0.0;0.119;0.00855211354792118;-0.012217304669320583;0.006108652334660292
01:00:0A:00:00:00:00;1725840033;09/09/24;00:00:33;1.011;-0.003;0.114;0.009773843921720982;-0.01710422709584236;0.006108652334660292
01:00:0A:00:00:00:00;1725840034;09/09/24;00:00:34;1.013;-0.001;0.115;0.012217304669320583;-0.004886921960860491;-0.0012217304902151227
01:00:0A:00:00:00:00;1725840035;09/09/24;00:00:35;1.013;0.0;0.121;0.009773843921720982;-0.013439035043120384;0.0036651913542300463
01:00:0A:00:00:00:00;1725840036;09/09/24;00:00:36;1.013;-0.004;0.115;0.009773843921720982;-0.015882495790719986;0.006108652334660292
01:00:0A:00:00:00:00;1725840037;09/09/24;00:00:37;1.012;-0.001;0.117;0.012217304669320583;-0.0024434609804302454;0.0
01:00:0A:00:00:00:00;1725840038;09/09/24;00:00:38;1.012;0.0;0.12;0.009773843921720982;-0.009773843921720982;0.004886921960860491
01:00:0A:00:00:00:00;1725840039;09/09/24;00:00:39;1.012;-0.004;0.113;0.009773843921720982;-0.01710422709584236;0.006108652334660292
01:00:0A:00:00:00:00;1725840040;09/09/24;00:00:40;1.012;-0.002;0.115;0.012217304669320583;-0.006108652334660292;-0.0012217304902151227
01:00:0A:00:00:00:00;1725840041;09/09/24;00:00:41;1.012;0.0;0.121;0.010995574295520782;-0.013439035043120384;0.0036651913542300463
01:00:0A:00:00:00:00;1725840042;09/09/24;00:00:42;1.013;-0.003;0.115;0.009773843921720982;-0.015882495790719986;0.006108652334660292
01:00:0A:00:00:00:00;1725840043;09/09/24;00:00:43;1.013;-0.002;0.116;0.012217304669320583;-0.0036651913542300463;0.0
01:00:0A:00:00:00:00;1725840044;09/09/24;00:00:44;1.013;0.0;0.119;0.009773843921720982;-0.010995574295520782;0.006108652334660292
01:00:0A:00:00:00:00;1725840045;09/09/24;00:00:45;1.011;-0.003;0.115;0.009773843921720982;-0.015882495790719986;0.006108652334660292
01:00:0A:00:00:00:00;1725840046;09/09/24;00:00:46;1.011;-0.003;0.115;0.013439035043120384;-0.006108652334660292;-0.0012217304902151227
01:00:0A:00:00:00:00;1725840047;09/09/24;00:00:47;1.012;0.0;0.12;0.010995574295520782;-0.013439035043120384;0.004886921960860491
01:00:0A:00:00:00:00;1725840048;09/09/24;00:00:48;1.013;-0.003;0.117;0.010995574295520782;-0.015882495790719986;0.006108652334660292
01:00:0A:00:00:00:00;1725840049;09/09/24;00:00:49;1.013;-0.002;0.116;0.013439035043120384;-0.0036651913542300463;0.0
01:00:0A:00:00:00:00;1725840050;09/09/24;00:00:50;1.012;-0.001;0.12;0.010995574295520782;-0.010995574295520782;0.004886921960860491
01:00:0A:00:00:00:00;1725840051;09/09/24;00:00:51;1.012;-0.004;0.115;0.010995574295520782;-0.01710422709584236;0.006108652334660292
01:00:0A:00:00:00:00;1725840052;09/09/24;00:00:52;1.012;-0.003;0.116;0.013439035043120384;-0.006108652334660292;-0.0012217304902151227
01:00:0A:00:00:00:00;1725840053;09/09/24;00:00:53;1.012;0.0;0.12;0.010995574295520782;-0.012217304669320583;0.0036651913542300463
01:00:0A:00:00:00:00;1725840054;09/09/24;00:00:54;1.014;-0.003;0.116;0.010995574295520782;-0.015882495790719986;0.004886921960860491
01:00:0A:00:00:00:00;1725840055;09/09/24;00:00:55;1.013;-0.002;0.115;0.013439035043120384;-0.004886921960860491;0.0
01:00:0A:00:00:00:00;1725840056;09/09/24;00:00:56;1.012;0.0;0.12;0.010995574295520782;-0.010995574295520782;0.004886921960860491
01:00:0A:00:00:00:00;1725840057;09/09/24;00:00:57;1.013;-0.003;0.115;0.012217304669320583;-0.014660765416920185;0.006108652334660292
01:00:0A:00:00:00:00;1725840058;09/09/24;00:00:58;1.012;-0.002;0.116;0.013439035043120384;-0.006108652334660292;0.0
01:00:0A:00:00:00:00;1725840059;09/09/24;00:00:59;1.012;0.0;0.119;0.012217304669320583;-0.012217304669320583;0.004886921960860491
01:00:0A:00:00:00:00;1725840060;09/09/24;00:01:00;1.012;-0.003;0.115;0.012217304669320583;-0.015882495790719986;0.006108652334660292
01:00:0A:00:00:00:00;1725840061;09/09/24;00:01:01;1.013;-0.002;0.116;0.013439035043120384;-0.006108652334660292;0.0
01:00:0A:00:00:00:00;1725840062;09/09/24;00:01:02;1.011;0.0;0.119;0.012217304669320583;-0.010995574295520782;0.0036651913542300463
01:00:0A:00:00:00:00;1725840063;09/09/24;00:01:03;1.013;-0.004;0.115;0.012217304669320583;-0.015882495790719986;0.006108652334660292
01:00:0A:00:00:00:00;1725840064;09/09/24;00:01:04;1.012;-0.001;0.116;0.014660765416920185;-0.006108652334660292;0.0
01:00:0A:00:00:00:00;1725840065;09/09/24;00:01:05;1.012;-0.001;0.12;0.012217304669320583;-0.010995574295520782;0.0036651913542300463
01:00:0A:00:00:00:00;1725840066;09/09/24;00:01:06;1.013;-0.004;0.115;0.012217304669320583;-0.014660765416920185;0.006108652334660292
01:00:0A:00:00:00:00;1725840067;09/09/24;00:01:07;1.011;-0.002;0.115;0.013439035043120384;-0.0073303827084600925;0.0012217304902151227
01:00:0A:00:00:00:00;1725840068;09/09/24;00:01:08;1.012;0.0;0.119;0.012217304669320583;-0.012217304669320583;0.004886921960860491
01:00:0A:00:00:00:00;1725840069;09/09/24;00:01:09;1.013;-0.003;0.116;0.012217304669320583;-0.014660765416920185;0.004886921960860491
01:00:0A:00:00:00:00;1725840070;09/09/24;00:01:10;1.012;-0.002;0.116;0.014660765416920185;-0.006108652334660292;0.0
01:00:0A:00:00:00:00;1725840071;09/09/24;00:01:11;1.012;0.0;0.119;0.012217304669320583;-0.010995574295520782;0.004886921960860491
01:00:0A:00:00:00:00;1725840072;09/09/24;00:01:12;1.012;-0.003;0.116;0.012217304669320583;-0.014660765416920185;0.006108652334660292
01:00:0A:00:00:00:00;1725840073;09/09/24;00:01:13;1.012;-0.001;0.116;0.013439035043120384;-0.0073303827084600925;0.0012217304902151227
01:00:0A:00:00:00:00;1725840074;09/09/24;00:01:14;1.014;0.0;0.125;0.013439035043120384;-0.015882495790719986;0.0012217304902151227
01:00:0A:00:00:00:00;1725840075;09/09/24;00:01:15;1.016;0.0;0.122;0.018325956538319588;-0.006108652334660292;-0.00855211354792118
01:00:0A:00:00:00:00;1725840076;09/09/24;00:01:16;1.012;-0.007;0.109;0.02076941914856434;0.012217304669320583;-0.015882495790719986
01:00:0A:00:00:00:00;1725840077;09/09/24;00:01:17;1.011;-0.012;0.118;0.014660765416920185;-0.0024434609804302454;0.004886921960860491
01:00:0A:00:00:00:00;1725840078;09/09/24;00:01:18;1.012;-0.014;0.105;0.006108652334660292;-0.02076941914856434;0.036651913076639175
01:00:0A:00:00:00:00;1725840079;09/09/24;00:01:19;1.009;-0.003;0.099;0.006108652334660292;-0.013439035043120384;0.02932153083384037
01:00:0A:00:00:00:00;1725840080;09/09/24;00:01:20;1.008;0.013;0.111;0.0036651913542300463;-0.05619959905743599;0.02076941914856434
01:00:0A:00:00:00:00;1725840081;09/09/24;00:01:21;1.012;0.011;0.119;0.00855211354792118;-0.04764748737215996;-0.00855211354792118
01:00:0A:00:00:00:00;1725840082;09/09/24;00:01:22;1.016;0.007;0.137;0.012217304669320583;-0.0024434609804302454;-0.04764748737215996
01:00:0A:00:00:00:00;1725840083;09/09/24;00:01:23;1.02;-0.006;0.122;-0.0073303827084600925;0.021991148591041565;-0.00855211354792118
01:00:0A:00:00:00:00;1725840084;09/09/24;00:01:24;1.025;-0.018;0.114;-0.010995574295520782;0.042760565876960754;0.0024434609804302454
01:00:0A:00:00:00:00;1725840085;09/09/24;00:01:25;1.017;0.002;0.101;-0.01710422709584236;0.024434609338641167;0.012217304669320583
01:00:0A:00:00:00:00;1725840086;09/09/24;00:01:26;1.008;0.006;0.089;-0.0354301817715168;-0.024434609338641167;0.02687807008624077
01:00:0A:00:00:00:00;1725840087;09/09/24;00:01:27;0.986;0.009;0.107;-0.03176499158143997;-0.06719517707824707;-0.004886921960860491
01:00:0A:00:00:00:00;1725840088;09/09/24;00:01:28;0.981;0.01;0.133;-0.036651913076639175;-0.05619959905743599;-0.019547687843441963
01:00:0A:00:00:00:00;1725840089;09/09/24;00:01:29;1.008;0.002;0.153;-0.05375614017248154;-0.042760565876960754;0.014660765416920185
01:00:0A:00:00:00:00;1725840090;09/09/24;00:01:30;1.032;-0.008;0.14;-0.04398229718208313;0.012217304669320583;-0.013439035043120384
01:00:0A:00:00:00:00;1725840091;09/09/24;00:01:31;1.051;0.018;0.153;-0.04764748737215996;0.059864792972803116;0.014660765416920185
01:00:0A:00:00:00:00;1725840092;09/09/24;00:01:32;1.029;-0.028;0.115;-0.00855211354792118;0.012217304669320583;0.042760565876960754
01:00:0A:00:00:00:00;1725840093;09/09/24;00:01:33;0.989;0.02;0.108;0.05619959905743599;0.01710422709584236;-0.1062905490398407
01:00:0A:00:00:00:00;1725840094;09/09/24;00:01:34;0.953;0.01;0.102;-0.004886921960860491;-0.11362093687057495;0.09040805697441101
01:00:0A:00:00:00:00;1725840095;09/09/24;00:01:35;0.973;-0.002;0.108;-0.018325956538319588;-0.0036651913542300463;-0.0073303827084600925
01:00:0A:00:00:00:00;1725840096;09/09/24;00:01:36;1.036;0.009;0.146;-0.080634206533432;-0.1014036238193512;0.05619959905743599
01:00:0A:00:00:00:00;1725840097;09/09/24;00:01:37;1.07;-0.034;0.081;-0.10262535512447357;-0.1270599663257599;-0.07208210229873657
01:00:0A:00:00:00:00;1725840098;09/09/24;00:01:38;1.058;-0.011;0.109;0.646295428276062;0.059864792972803116;0.16004669666290283
01:00:0A:00:00:00:00;1725840099;09/09/24;00:01:39;1.006;0.001;0.157;0.5497786998748779;0.05742133408784866;-0.11728612333536148
01:00:0A:00:00:00:00;1725840100;09/09/24;00:01:40;0.945;-0.014;0.045;0.3298672139644623;0.12339477241039276;0.042760565876960754
01:00:0A:00:00:00:00;1725840101;09/09/24;00:01:41;0.965;0.043;0.129;0.0757472887635231;-0.04398229718208313;-0.045204028487205505
01:00:0A:00:00:00:00;1725840102;09/09/24;00:01:42;1.018;0.016;0.089;-0.22846359014511108;-0.07452555745840073;0.2272418737411499
01:00:0A:00:00:00:00;1725840103;09/09/24;00:01:43;1.069;-0.081;0.132;-0.19303341209888458;0.030543262138962746;-0.3029891550540924
01:00:0A:00:00:00:00;1725840104;09/09/24;00:01:44;1.049;0.221;-0.022;-0.5754350423812866;-0.1869247555732727;0.018325956538319588
01:00:0A:00:00:00:00;1725840105;09/09/24;00:01:45;1.009;-0.228;-0.071;-0.7538076639175415;-0.0354301817715168;0.3127630054950714
01:00:0A:00:00:00:00;1725840106;09/09/24;00:01:46;0.975;-0.254;0.158;-0.8491026759147644;0.039095375686883926;-0.17104226350784302
01:00:0A:00:00:00:00;1725840107;09/09/24;00:01:47;0.983;0.069;0.186;-0.9358454942703247;-0.01710422709584236;-0.37140607833862305
01:00:0A:00:00:00:00;1725840108;09/09/24;00:01:48;0.999;0.066;0.156;-1.0910052061080933;-0.5167919993400574;-0.11362093687057495
01:00:0A:00:00:00:00;1725840109;09/09/24;00:01:49;1.04;0.085;0.086;-1.2657127380371094;-0.04764748737215996;0.12095131725072861
01:00:0A:00:00:00:00;1725840110;09/09/24;00:01:50;1.024;-0.215;0.129;-1.0372490882873535;-0.03176499158143997;-0.06475171446800232
01:00:0A:00:00:00:00;1725840111;09/09/24;00:01:51;1.004;0.192;0.051;-0.9187413454055786;-0.039095375686883926;-0.11239919811487198
01:00:0A:00:00:00:00;1725840112;09/09/24;00:01:52;0.982;-0.157;0.001;-0.9676105380058289;-0.1368338167667389;0.33719760179519653
01:00:0A:00:00:00:00;1725840113;09/09/24;00:01:53;0.982;0.008;0.039;-0.6414085030555725;0.27611109614372253;-0.26145032048225403
01:00:0A:00:00:00:00;1725840114;09/09/24;00:01:54;0.993;-0.065;0.095;-0.5754350423812866;-0.22357667982578278;0.11362093687057495
01:00:0A:00:00:00:00;1725840115;09/09/24;00:01:55;1.015;-0.001;0.082;-0.36529743671417236;0.25045475363731384;-0.2125810980796814
01:00:0A:00:00:00:00;1725840116;09/09/24;00:01:56;0.986;0.108;0.269;-0.4447098970413208;-0.31642818450927734;-0.10384709388017654
01:00:0A:00:00:00:00;1725840117;09/09/24;00:01:57;1.016;0.06;-0.122;-0.7855727076530457;-0.014660765416920185;0.04764748737215996
01:00:0A:00:00:00:00;1725840118;09/09/24;00:01:58;1.031;-0.048;0.124;-0.921184778213501;0.2736676335334778;0.040317103266716
01:00:0A:00:00:00:00;1725840119;09/09/24;00:01:59;1.014;-0.001;0.19;-0.750142514705658;-0.2687807083129883;-0.4715879559516907
01:00:0A:00:00:00:00;1725840120;09/09/24;00:02:00;1.016;-0.125;-0.154;-1.957212209701538;-0.46303585171699524;0.588874101638794
01:00:0A:00:00:00:00;1725840121;09/09/24;00:02:01;1.004;0.047;0.136;-1.8313740491867065;0.32009339332580566;0.06475171446800232
01:00:0A:00:00:00:00;1725840122;09/09/24;00:02:02;0.984;-0.122;-0.004;-1.4624114036560059;-0.18325956165790558;-0.1368338167667389
01:00:0A:00:00:00:00;1725840123;09/09/24;00:02:03;0.987;-0.002;0.115;-1.3573424816131592;0.16249015927314758;0.006108652334660292
01:00:0A:00:00:00:00;1725840124;09/09/24;00:02:04;1.007;-0.087;0.141;-1.086118459701538;-0.19425514340400696;-0.31031954288482666
01:00:0A:00:00:00:00;1725840125;09/09/24;00:02:05;1.045;0.093;0.148;-1.1533136367797852;-0.16004669666290283;0.00855211354792118
01:00:0A:00:00:00:00;1725840126;09/09/24;00:02:06;1.055;-0.107;0.081;-1.1178834438323975;-0.16493360698223114;0.03420845419168472
01:00:0A:00:00:00:00;1725840127;09/09/24;00:02:07;1.007;0.197;0.042;-1.108109474182129;-0.18325956165790558;-0.3628539443016052
01:00:0A:00:00:00:00;1725840128;09/09/24;00:02:08;0.971;0.043;-0.061;-1.3671163320541382;-0.45692718029022217;0.21502456068992615
01:00:0A:00:00:00:00;1725840129;09/09/24;00:02:09;0.931;-0.085;0.227;-1.3084733486175537;0.34697145223617554;0.38606682419776917
01:00:0A:00:00:00:00;1725840130;09/09/24;00:02:10;0.963;-0.182;0.081;-0.455705463886261;-0.24678954482078552;-0.685390830039978
01:00:0A:00:00:00:00;1725840131;09/09/24;00:02:11;0.98;0.221;0.033;-0.76846843957901;-0.2431243658065796;0.39828410744667053
01:00:0A:00:00:00:00;1725840132;09/09/24;00:02:12;1.056;-0.015;-0.167;-0.8906415700912476;-0.15271630883216858;0.19792033731937408
01:00:0A:00:00:00:00;1725840133;09/09/24;00:02:13;1.06;-0.092;-0.177;-0.9028588533401489;0.11850785464048386;0.45326200127601624
01:00:0A:00:00:00:00;1725840134;09/09/24;00:02:14;0.926;0.035;0.512;-0.9321803450584412;0.8796459436416626;-0.8649851679801941
01:00:0A:00:00:00:00;1725840135;09/09/24;00:02:15;0.996;-0.081;-0.072;-1.007927656173706;-0.5778785347938538;-0.03176499158143997
01:00:0A:00:00:00:00;1725840136;09/09/24;00:02:16;0.967;-0.074;0.243;-0.9419541358947754;0.5571090579032898;0.15393804013729095
01:00:0A:00:00:00:00;1725840137;09/09/24;00:02:17;0.97;-0.179;0.234;-0.4691444933414459;-0.27122414112091064;-0.35185837745666504
01:00:0A:00:00:00:00;1725840138;09/09/24;00:02:18;1.031;0.062;0.105;-0.3946189284324646;0.05009094998240471;0.019547687843441963
01:00:0A:00:00:00:00;1725840139;09/09/24;00:02:19;1.031;-0.12;0.223;-0.31031954288482666;0.1966986060142517;-0.10751228034496307
01:00:0A:00:00:00:00;1725840140;09/09/24;00:02:20;0.981;0.19;0.284;-0.38117989897727966;0.030543262138962746;-0.37140607833862305
01:00:0A:00:00:00:00;1725840141;09/09/24;00:02:21;0.99;0.003;0.057;-0.6389650106430054;-0.44104471802711487;0.1869247555732727
01:00:0A:00:00:00:00;1725840142;09/09/24;00:02:22;0.961;-0.008;0.071;-0.6047565937042236;0.2919935882091522;0.021991148591041565
01:00:0A:00:00:00:00;1725840143;09/09/24;00:02:23;0.972;0.048;0.165;-0.5119050741195679;-0.21868975460529327;-0.3042108714580536
01:00:0A:00:00:00:00;1725840144;09/09/24;00:02:24;1.006;0.198;0.158;-0.846659243106842;-0.1722639948129654;0.036651913076639175
01:00:0A:00:00:00:00;1725840145;09/09/24;00:02:25;1.053;-0.053;0.122;-0.8796459436416626;-0.013439035043120384;0.030543262138962746
01:00:0A:00:00:00:00;1725840146;09/09/24;00:02:26;1.043;-0.019;0.141;-0.7049384713172913;0.09407324343919754;-0.1820378452539444
01:00:0A:00:00:00:00;1725840147;09/09/24;00:02:27;1.011;0.05;0.128;-0.7000515460968018;0.0024434609804302454;-0.10751228034496307
01:00:0A:00:00:00:00;1725840148;09/09/24;00:02:28;0.958;-0.013;0.177;-0.720820963382721;0.0024434609804302454;0.03787364438176155
01:00:0A:00:00:00:00;1725840149;09/09/24;00:02:29;0.976;-0.009;0.045;-0.5681046843528748;-0.2675589621067047;-0.18570303916931152
01:00:0A:00:00:00:00;1725840150;09/09/24;00:02:30;0.996;0.115;0.035;-0.7806857824325562;-0.05497787147760391;0.26145032048225403
01:00:0A:00:00:00:00;1725840151;09/09/24;00:02:31;1.03;-0.044;0.043;-0.740368664264679;0.08185594528913498;-0.03420845419168472
01:00:0A:00:00:00:00;1725840152;09/09/24;00:02:32;1.046;-0.021;0.151;-0.6316346526145935;0.04642575979232788;-0.11362093687057495
01:00:0A:00:00:00:00;1725840153;09/09/24;00:02:33;1.037;-0.003;0.055;-0.5766568183898926;-0.1466076523065567;-0.015882495790719986
01:00:0A:00:00:00:00;1725840154;09/09/24;00:02:34;1.008;0.102;-0.073;-0.6524040699005127;-0.08552113175392151;-0.07208210229873657
01:00:0A:00:00:00:00;1725840155;09/09/24;00:02:35;0.975;-0.212;0.081;-0.7379252314567566;0.2981022298336029;0.5424482822418213
01:00:0A:00:00:00:00;1725840156;09/09/24;00:02:36;0.9;-0.308;0.288;0.09896016865968704;0.6340781450271606;-0.588874101638794
01:00:0A:00:00:00:00;1725840157;09/09/24;00:02:37;0.867;0.408;0.153;-0.10018189996480942;-1.2388347387313843;-0.6927211880683899
01:00:0A:00:00:00:00;1725840158;09/09/24;00:02:38;0.589;-0.476;-0.556;-0.9676105380058289;0.6963863372802734;2.1343629360198975
01:00:0A:00:00:00:00;1725840159;09/09/24;00:02:39;0.837;-0.528;0.405;-0.0036651913542300463;1.3048081398010254;-0.807563841342926
01:00:0A:00:00:00:00;1725840160;09/09/24;00:02:40;0.884;0.562;0.153;-0.5106833577156067;-0.8429940342903137;-0.24678954482078552
01:00:0A:00:00:00:00;1725840161;09/09/24;00:02:41;1.025;-0.055;-0.258;-1.2962559461593628;-0.2528982162475586;0.7269296050071716
01:00:0A:00:00:00:00;1725840162;09/09/24;00:02:42;0.976;0.016;-0.054;-1.3170254230499268;-0.161268413066864;-0.4996877610683441
01:00:0A:00:00:00:00;1725840163;09/09/24;00:02:43;0.961;-0.139;0.112;-1.49906325340271;-0.06963863223791122;0.5791001915931702
01:00:0A:00:00:00:00;1725840164;09/09/24;00:02:44;0.971;-0.041;0.015;-1.1252137422561646;0.4239404499530792;-0.4862487316131592
01:00:0A:00:00:00:00;1725840165;09/09/24;00:02:45;0.982;-0.003;0.188;-1.1239920854568481;-0.4398229718208313;-0.1014036238193512
01:00:0A:00:00:00:00;1725840166;09/09/24;00:02:46;1.038;0.068;-0.103;-1.1362093687057495;0.04764748737215996;0.10262535512447357
01:00:0A:00:00:00:00;1725840167;09/09/24;00:02:47;1.051;-0.207;0.08;-0.9810495376586914;0.04764748737215996;0.025656338781118393
01:00:0A:00:00:00:00;1725840168;09/09/24;00:02:48;0.975;0.261;0.219;-0.9150761365890503;0.2993239760398865;-0.4349360466003418
01:00:0A:00:00:00:00;1725840169;09/09/24;00:02:49;1.006;-0.117;0.062;-0.959058403968811;-0.3836233615875244;0.12461651116609573
01:00:0A:00:00:00:00;1725840170;09/09/24;00:02:50;0.957;-0.079;-0.066;-0.6927211880683899;0.1966986060142517;-0.03298672288656235
01:00:0A:00:00:00:00;1725840171;09/09/24;00:02:51;0.985;-0.081;0.05;-0.49357908964157104;0.039095375686883926;-0.09896016865968704
01:00:0A:00:00:00:00;1725840172;09/09/24;00:02:52;1.049;-0.06;0.06;-0.39584067463874817;-0.14049901068210602;-0.004886921960860491
01:00:0A:00:00:00:00;1725840173;09/09/24;00:02:53;1.072;-0.165;-0.026;-0.2577851116657257;0.1771509200334549;0.0354301817715168
01:00:0A:00:00:00:00;1725840174;09/09/24;00:02:54;0.954;-0.125;0.519;-0.08429940044879913;0.48258352279663086;-0.06352998316287994
01:00:0A:00:00:00:00;1725840175;09/09/24;00:02:55;1.009;0.091;0.07;-0.10751228034496307;-0.4202752709388733;-0.24556782841682434
01:00:0A:00:00:00:00;1725840176;09/09/24;00:02:56;0.968;-0.029;0.083;-0.3078760802745819;0.16493360698223114;0.2528982162475586
01:00:0A:00:00:00:00;1725840177;09/09/24;00:02:57;0.966;0.013;0.071;-0.19058994948863983;-0.2370157092809677;-0.1918116807937622
01:00:0A:00:00:00:00;1725840178;09/09/24;00:02:58;1.006;0.073;0.02;-0.3335324227809906;0.13072516024112701;0.2577851116657257
01:00:0A:00:00:00:00;1725840179;09/09/24;00:02:59;1.041;-0.204;0.107;-0.16493360698223114;-0.021991148591041565;-0.09285151958465576
01:00:0A:00:00:00:00;1725840180;09/09/24;00:03:00;1.053;0.156;0.054;-0.11850785464048386;0.14049901068210602;0.030543262138962746
01:00:0A:00:00:00:00;1725840181;09/09/24;00:03:01;1.024;-0.158;0.137;-0.07330382615327835;0.021991148591041565;0.22357667982578278
01:00:0A:00:00:00:00;1725840182;09/09/24;00:03:02;0.984;-0.054;0.043;0.15515977144241333;-0.012217304669320583;-0.1966986060142517
01:00:0A:00:00:00:00;1725840183;09/09/24;00:03:03;0.962;0.006;0.159;0.05253440886735916;0.17348572611808777;-0.03176499158143997
01:00:0A:00:00:00:00;1725840184;09/09/24;00:03:04;0.983;0.047;0.12;-0.08185594528913498;-0.616973876953125;0.02321287989616394
01:00:0A:00:00:00:00;1725840185;09/09/24;00:03:05;0.978;0.129;-0.157;-0.3066543638706207;0.3799581527709961;0.12461651116609573
01:00:0A:00:00:00:00;1725840186;09/09/24;00:03:06;1.043;-0.065;0.152;-0.34697145223617554;-0.02932153083384037;0.23090705275535583
01:00:0A:00:00:00:00;1725840187;09/09/24;00:03:07;1.058;-0.096;0.041;-0.1576032191514969;-0.0757472887635231;-0.11239919811487198
01:00:0A:00:00:00:00;1725840188;09/09/24;00:03:08;1.033;0.08;0.078;-0.2015855312347412;0.17837265133857727;-0.014660765416920185
01:00:0A:00:00:00:00;1725840189;09/09/24;00:03:09;0.982;-0.147;0.12;-0.19547687470912933;0.0024434609804302454;0.20525071024894714
01:00:0A:00:00:00:00;1725840190;09/09/24;00:03:10;0.983;0.009;0.134;-0.0073303827084600925;0.04398229718208313;-0.39095374941825867
01:00:0A:00:00:00:00;1725840191;09/09/24;00:03:11;0.986;0.046;0.153;-0.2321287840604782;-0.10384709388017654;0.20402899384498596
01:00:0A:00:00:00:00;1725840192;09/09/24;00:03:12;1.007;-0.13;0.132;-0.1563815027475357;-0.02932153083384037;-0.1563815027475357
01:00:0A:00:00:00:00;1725840193;09/09/24;00:03:13;1.032;0.123;0.162;-0.24434609711170197;-0.05864306166768074;-0.11362093687057495
01:00:0A:00:00:00:00;1725840194;09/09/24;00:03:14;1.038;0.101;0.193;-0.4349360466003418;-0.1270599663257599;0.009773843921720982
01:00:0A:00:00:00:00;1725840195;09/09/24;00:03:15;1.041;-0.015;0.061;-0.40683624148368835;-0.012217304669320583;0.0024434609804302454
01:00:0A:00:00:00:00;1725840196;09/09/24;00:03:16;1.004;-0.035;0.171;-0.33108896017074585;0.08307767659425735;0.05864306166768074
01:00:0A:00:00:00:00;1725840197;09/09/24;00:03:17;0.973;-0.015;0.005;-0.2541199326515198;-0.2272418737411499;-0.06475171446800232
01:00:0A:00:00:00:00;1725840198;09/09/24;00:03:18;0.98;-0.032;0.072;-0.29077184200286865;0.35185837745666504;0.06719517707824707
01:00:0A:00:00:00:00;1725840199;09/09/24;00:03:19;0.987;-0.068;0.177;-0.19547687470912933;-0.33719760179519653;-0.1661553531885147
01:00:0A:00:00:00:00;1725840200;09/09/24;00:03:20;1.032;0.056;-0.047;-0.2528982162475586;-0.15027284622192383;0.042760565876960754
01:00:0A:00:00:00:00;1725840201;09/09/24;00:03:21;1.044;-0.047;0.148;-0.2871066629886627;0.14782939851284027;0.080634206533432
01:00:0A:00:00:00:00;1725840202;09/09/24;00:03:22;1.025;-0.081;0.152;-0.1466076523065567;-0.018325956538319588;-0.06475171446800232
01:00:0A:00:00:00:00;1725840203;09/09/24;00:03:23;0.997;0.047;0.035;-0.1319468915462494;-0.05864306166768074;-0.11362093687057495
01:00:0A:00:00:00:00;1725840204;09/09/24;00:03:24;0.953;-0.074;0.152;-0.16249015927314758;0.09040805697441101;0.18325956165790558
01:00:0A:00:00:00:00;1725840205;09/09/24;00:03:25;0.973;-0.064;0.108;0.09773843735456467;-0.2871066629886627;-0.3481931686401367
01:00:0A:00:00:00:00;1725840206;09/09/24;00:03:26;1.013;0.067;0.043;-0.05864306166768074;0.19792033731937408;0.18570303916931152
01:00:0A:00:00:00:00;1725840207;09/09/24;00:03:27;1.034;-0.105;0.162;-0.0354301817715168;0.02321287989616394;0.05497787147760391
01:00:0A:00:00:00:00;1725840208;09/09/24;00:03:28;1.056;-0.019;0.021;0.08307767659425735;-0.06475171446800232;-0.09896016865968704
01:00:0A:00:00:00:00;1725840209;09/09/24;00:03:29;1.033;0.061;0.129;0.02687807008624077;0.10873401165008545;-0.08796459436416626
01:00:0A:00:00:00:00;1725840210;09/09/24;00:03:30;1.001;-0.099;0.187;0.0036651913542300463;-0.05009094998240471;0.1258382350206375
01:00:0A:00:00:00:00;1725840211;09/09/24;00:03:31;0.977;0.006;0.104;0.11484266817569733;-0.09529497474431992;-0.18936821818351746
01:00:0A:00:00:00:00;1725840212;09/09/24;00:03:32;0.975;0.0;0.162;-0.045204028487205505;0.1466076523065567;0.2981022298336029
01:00:0A:00:00:00:00;1725840213;09/09/24;00:03:33;1.007;-0.106;0.205;0.1319468915462494;-0.2125810980796814;-0.17837265133857727
01:00:0A:00:00:00:00;1725840214;09/09/24;00:03:34;1.047;0.109;0.006;0.05253440886735916;0.05864306166768074;0.025656338781118393
01:00:0A:00:00:00:00;1725840215;09/09/24;00:03:35;1.028;-0.127;0.247;0.042760565876960754;0.1319468915462494;0.14294245839118958
01:00:0A:00:00:00:00;1725840216;09/09/24;00:03:36;1.007;0.006;0.083;0.1368338167667389;-0.11484266817569733;-0.161268413066864
01:00:0A:00:00:00:00;1725840217;09/09/24;00:03:37;0.98;0.019;0.04;-0.01710422709584236;0.10262535512447357;0.10384709388017654
01:00:0A:00:00:00:00;1725840218;09/09/24;00:03:38;0.976;-0.048;0.078;-0.03298672288656235;-0.02076941914856434;0.02687807008624077
01:00:0A:00:00:00:00;1725840219;09/09/24;00:03:39;0.99;0.007;0.073;-0.00855211354792118;-0.1673770695924759;-0.10384709388017654
01:00:0A:00:00:00:00;1725840220;09/09/24;00:03:40;1.009;0.026;0.088;-0.1062905490398407;-0.015882495790719986;0.12461651116609573
01:00:0A:00:00:00:00;1725840221;09/09/24;00:03:41;1.013;-0.076;0.179;-0.05864306166768074;-0.04642575979232788;-0.045204028487205505
01:00:0A:00:00:00:00;1725840222;09/09/24;00:03:42;1.053;-0.006;0.129;-0.04153883829712868;-0.0024434609804302454;0.0
01:00:0A:00:00:00:00;1725840223;09/09/24;00:03:43;1.071;-0.043;0.081;-0.02321287989616394;0.09651670604944229;0.03176499158143997
01:00:0A:00:00:00:00;1725840224;09/09/24;00:03:44;1.053;-0.015;0.149;0.02321287989616394;0.1062905490398407;-0.024434609338641167
01:00:0A:00:00:00:00;1725840225;09/09/24;00:03:45;1.021;-0.016;0.034;0.02321287989616394;-0.08429940044879913;0.00855211354792118
01:00:0A:00:00:00:00;1725840226;09/09/24;00:03:46;0.921;-0.028;0.127;0.025656338781118393;0.17104226350784302;0.04764748737215996
01:00:0A:00:00:00:00;1725840227;09/09/24;00:03:47;0.934;-0.004;0.074;0.04153883829712868;-0.4752531349658966;-0.02076941914856434
01:00:0A:00:00:00:00;1725840228;09/09/24;00:03:48;0.994;-0.009;0.054;-0.0024434609804302454;0.6059783101081848;0.014660765416920185
01:00:0A:00:00:00:00;1725840229;09/09/24;00:03:49;1.06;0.03;0.156;-0.17348572611808777;-0.28466320037841797;0.04153883829712868
01:00:0A:00:00:00:00;1725840230;09/09/24;00:03:50;1.072;-0.056;-0.146;-0.16371189057826996;0.22113320231437683;0.05742133408784866
01:00:0A:00:00:00:00;1725840231;09/09/24;00:03:51;0.971;-0.057;0.477;-0.06841690838336945;0.3836233615875244;0.036651913076639175
01:00:0A:00:00:00:00;1725840232;09/09/24;00:03:52;1.026;0.039;-0.161;-0.021991148591041565;-0.5815436840057373;-0.10506881773471832
01:00:0A:00:00:00:00;1725840233;09/09/24;00:03:53;0.971;-0.049;0.156;-0.059864792972803116;0.5827654600143433;0.161268413066864
01:00:0A:00:00:00:00;1725840234;09/09/24;00:03:54;0.952;-0.026;0.148;0.08307767659425735;-0.3579670488834381;-0.1576032191514969
01:00:0A:00:00:00:00;1725840235;09/09/24;00:03:55;0.996;0.003;0.009;0.015882495790719986;0.08307767659425735;0.07208210229873657
01:00:0A:00:00:00:00;1725840236;09/09/24;00:03:56;1.042;-0.059;0.15;0.045204028487205505;0.07452555745840073;0.01710422709584236
01:00:0A:00:00:00:00;1725840237;09/09/24;00:03:57;1.052;0.002;0.142;0.06841690838336945;-0.07941248267889023;-0.021991148591041565
01:00:0A:00:00:00:00;1725840238;09/09/24;00:03:58;1.029;-0.005;0.018;0.036651913076639175;-0.06963863223791122;0.04153883829712868
01:00:0A:00:00:00:00;1725840239;09/09/24;00:03:59;0.984;-0.02;0.148;0.05375614017248154;0.1771509200334549;-0.0024434609804302454
01:00:0A:00:00:00:00;1725840240;09/09/24;00:04:00;0.965;-0.009;0.111;0.06719517707824707;-0.22602014243602753;-0.0354301817715168
01:00:0A:00:00:00:00;1725840241;09/09/24;00:04:01;0.989;-0.017;0.066;0.02687807008624077;0.10506881773471832;0.05742133408784866
01:00:0A:00:00:00:00;1725840242;09/09/24;00:04:02;1.022;-0.037;0.17;0.05497787147760391;-0.04398229718208313;-0.02687807008624077
01:00:0A:00:00:00:00;1725840243;09/09/24;00:04:03;1.045;0.012;0.077;0.036651913076639175;-0.039095375686883926;0.006108652334660292
01:00:0A:00:00:00:00;1725840244;09/09/24;00:04:04;1.047;-0.023;0.077;0.021991148591041565;0.06719517707824707;0.04153883829712868
01:00:0A:00:00:00:00;1725840245;09/09/24;00:04:05;1.014;-0.002;0.129;0.05497787147760391;0.014660765416920185;-0.04153883829712868
01:00:0A:00:00:00:00;1725840246;09/09/24;00:04:06;0.996;0.0;0.075;0.04642575979232788;-0.13316862285137177;-0.02687807008624077
01:00:0A:00:00:00:00;1725840247;09/09/24;00:04:07;0.984;-0.031;0.123;0.039095375686883926;0.04764748737215996;0.006108652334660292
01:00:0A:00:00:00:00;1725840248;09/09/24;00:04:08;0.987;-0.023;0.166;0.05375614017248154;-0.06352998316287994;-0.006108652334660292
01:00:0A:00:00:00:00;1725840249;09/09/24;00:04:09;1.005;-0.013;0.103;0.036651913076639175;-0.013439035043120384;0.03176499158143997
01:00:0A:00:00:00:00;1725840250;09/09/24;00:04:10;1.0;-0.017;0.111;0.04398229718208313;0.09040805697441101;-0.0024434609804302454
01:00:0A:00:00:00:00;1725840251;09/09/24;00:04:11;1.014;-0.002;0.129;0.04764748737215996;-0.06108652427792549;-0.006108652334660292
01:00:0A:00:00:00:00;1725840252;09/09/24;00:04:12;1.039;-0.016;0.078;0.040317103266716;-0.05497787147760391;0.006108652334660292
01:00:0A:00:00:00:00;1725840253;09/09/24;00:04:13;1.063;-0.029;0.124;0.05009094998240471;0.02076941914856434;0.006108652334660292
01:00:0A:00:00:00:00;1725840254;09/09/24;00:04:14;1.048;0.0;0.111;0.042760565876960754;0.021991148591041565;-0.0073303827084600925
01:00:0A:00:00:00:00;1725840255;09/09/24;00:04:15;1.012;-0.034;0.079;0.02321287989616394;-0.0036651913542300463;0.05864306166768074
01:00:0A:00:00:00:00;1725840256;09/09/24;00:04:16;0.943;-0.006;0.083;0.05375614017248154;-0.02932153083384037;-0.059864792972803116
01:00:0A:00:00:00:00;1725840257;09/09/24;00:04:17;0.941;-0.013;0.09;0.013439035043120384;-0.1062905490398407;0.05375614017248154
01:00:0A:00:00:00:00;1725840258;09/09/24;00:04:18;1.004;-0.021;0.119;0.05375614017248154;0.0073303827084600925;-0.08918632566928864
01:00:0A:00:00:00:00;1725840259;09/09/24;00:04:19;1.041;0.022;0.155;-0.014660765416920185;-0.06841690838336945;0.10018189996480942
01:00:0A:00:00:00:00;1725840260;09/09/24;00:04:20;1.071;-0.095;0.059;0.0354301817715168;0.08918632566928864;-0.02321287989616394
01:00:0A:00:00:00:00;1725840261;09/09/24;00:04:21;1.033;0.072;0.144;0.03176499158143997;0.10751228034496307;-0.09407324343919754
01:00:0A:00:00:00:00;1725840262;09/09/24;00:04:22;1.014;-0.069;0.048;-0.03787364438176155;-0.14538592100143433;0.1771509200334549
01:00:0A:00:00:00:00;1725840263;09/09/24;00:04:23;0.978;-0.008;0.109;0.07696902006864548;0.06230825558304787;-0.161268413066864
01:00:0A:00:00:00:00;1725840264;09/09/24;00:04:24;0.976;0.016;0.153;-0.02076941914856434;-0.09529497474431992;0.10506881773471832
01:00:0A:00:00:00:00;1725840265;09/09/24;00:04:25;0.999;-0.053;0.096;0.010995574295520782;-0.019547687843441963;0.004886921960860491
01:00:0A:00:00:00:00;1725840266;09/09/24;00:04:26;1.01;-0.003;0.112;0.05864306166768074;0.08185594528913498;-0.07452555745840073
01:00:0A:00:00:00:00;1725840267;09/09/24;00:04:27;1.018;0.024;0.125;0.0024434609804302454;-0.04642575979232788;0.05497787147760391
01:00:0A:00:00:00:00;1725840268;09/09/24;00:04:28;1.025;-0.048;0.066;0.030543262138962746;-0.0757472887635231;-0.0036651913542300463
01:00:0A:00:00:00:00;1725840269;09/09/24;00:04:29;1.031;-0.005;0.115;0.059864792972803116;-0.013439035043120384;-0.059864792972803116
01:00:0A:00:00:00:00;1725840270;09/09/24;00:04:30;1.019;0.006;0.161;0.013439035043120384;0.0;0.03176499158143997
01:00:0A:00:00:00:00;1725840271;09/09/24;00:04:31;1.015;-0.041;0.106;0.019547687843441963;-0.0073303827084600925;0.040317103266716
01:00:0A:00:00:00:00;1725840272;09/09/24;00:04:32;0.997;-0.005;0.097;0.05619959905743599;0.07452555745840073;-0.06230825558304787
01:00:0A:00:00:00:00;1725840273;09/09/24;00:04:33;0.996;-0.003;0.1;0.0036651913542300463;-0.02076941914856434;0.051312677562236786
01:00:0A:00:00:00:00;1725840274;09/09/24;00:04:34;1.011;-0.034;0.074;0.019547687843441963;-0.06841690838336945;0.006108652334660292
01:00:0A:00:00:00:00;1725840275;09/09/24;00:04:35;1.024;-0.002;0.1;0.03420845419168472;-0.024434609338641167;-0.021991148591041565
01:00:0A:00:00:00:00;1725840276;09/09/24;00:04:36;1.028;0.004;0.139;0.0012217304902151227;-0.0354301817715168;0.02932153083384037
01:00:0A:00:00:00:00;1725840277;09/09/24;00:04:37;1.029;-0.025;0.11;0.004886921960860491;-0.014660765416920185;0.018325956538319588
01:00:0A:00:00:00:00;1725840278;09/09/24;00:04:38;1.01;0.0;0.108;0.01710422709584236;0.05864306166768074;-0.04642575979232788
01:00:0A:00:00:00:00;1725840279;09/09/24;00:04:39;0.999;-0.009;0.104;-0.014660765416920185;0.0024434609804302454;0.02321287989616394
01:00:0A:00:00:00:00;1725840280;09/09/24;00:04:40;0.999;-0.032;0.081;-0.004886921960860491;-0.051312677562236786;0.0036651913542300463
01:00:0A:00:00:00:00;1725840281;09/09/24;00:04:41;1.01;-0.011;0.096;0.006108652334660292;-0.03176499158143997;-0.004886921960860491
01:00:0A:00:00:00:00;1725840282;09/09/24;00:04:42;1.015;-0.008;0.121;-0.0073303827084600925;-0.04642575979232788;0.028099799528717995
01:00:0A:00:00:00:00;1725840283;09/09/24;00:04:43;1.02;-0.025;0.112;0.0036651913542300463;-0.018325956538319588;0.012217304669320583
01:00:0A:00:00:00:00;1725840284;09/09/24;00:04:44;1.018;-0.006;0.104;0.015882495790719986;0.010995574295520782;-0.00855211354792118
01:00:0A:00:00:00:00;1725840285;09/09/24;00:04:45;1.017;-0.009;0.112;0.00855211354792118;0.0024434609804302454;0.009773843921720982
01:00:0A:00:00:00:00;1725840286;09/09/24;00:04:46;1.023;-0.025;0.1;0.021991148591041565;-0.018325956538319588;0.00855211354792118
01:00:0A:00:00:00:00;1725840287;09/09/24;00:04:47;1.018;-0.01;0.107;0.03176499158143997;-0.009773843921720982;-0.004886921960860491
01:00:0A:00:00:00:00;1725840288;09/09/24;00:04:48;1.009;-0.017;0.115;0.02687807008624077;0.0024434609804302454;0.018325956538319588
01:00:0A:00:00:00:00;1725840289;09/09/24;00:04:49;1.003;-0.019;0.102;0.04153883829712868;-0.015882495790719986;0.0012217304902151227
01:00:0A:00:00:00:00;1725840290;09/09/24;00:04:50;1.002;-0.007;0.095;0.042760565876960754;-0.0024434609804302454;-0.014660765416920185
01:00:0A:00:00:00:00;1725840291;09/09/24;00:04:51;1.006;-0.013;0.108;0.03176499158143997;-0.02687807008624077;0.010995574295520782
01:00:0A:00:00:00:00;1725840292;09/09/24;00:04:52;1.016;-0.021;0.115;0.040317103266716;-0.05009094998240471;-0.004886921960860491
01:00:0A:00:00:00:00;1725840293;09/09/24;00:04:53;1.025;-0.002;0.11;0.030543262138962746;-0.02687807008624077;0.0073303827084600925
01:00:0A:00:00:00:00;1725840294;09/09/24;00:04:54;1.026;-0.005;0.133;0.01710422709584236;0.0012217304902151227;0.006108652334660292
01:00:0A:00:00:00:00;1725840295;09/09/24;00:04:55;1.024;-0.012;0.113;0.02076941914856434;0.00855211354792118;-0.014660765416920185
01:00:0A:00:00:00:00;1725840296;09/09/24;00:04:56;1.011;-0.003;0.095;0.015882495790719986;0.021991148591041565;-0.028099799528717995
01:00:0A:00:00:00:00;1725840297;09/09/24;00:04:57;1.0;-0.018;0.098;-0.0036651913542300463;0.0024434609804302454;0.01710422709584236
01:00:0A:00:00:00:00;1725840298;09/09/24;00:04:58;1.0;-0.018;0.09;-0.0012217304902151227;-0.045204028487205505;0.0073303827084600925
01:00:0A:00:00:00:00;1725840299;09/09/24;00:04:59;1.0;0.0;0.092;-0.009773843921720982;-0.030543262138962746;0.00855211354792118
01:00:0A:00:00:00:00;1725840300;09/09/24;00:05:00;1.002;-0.003;0.112;-0.021991148591041565;-0.02932153083384037;0.021991148591041565
01:00:0A:00:00:00:00;1725840301;09/09/24;00:05:01;1.02;-0.009;0.122;-0.010995574295520782;-0.0354301817715168;-0.02321287989616394
01:00:0A:00:00:00:00;1725840302;09/09/24;00:05:02;1.032;-0.003;0.111;-0.01710422709584236;0.0;-0.014660765416920185
01:00:0A:00:00:00:00;1725840303;09/09/24;00:05:03;1.036;-0.021;0.118;-0.02076941914856434;0.014660765416920185;-0.00855211354792118
01:00:0A:00:00:00:00;1725840304;09/09/24;00:05:04;1.028;-0.021;0.107;-0.018325956538319588;-0.0024434609804302454;-0.004886921960860491
01:00:0A:00:00:00:00;1725840305;09/09/24;00:05:05;1.002;-0.002;0.095;-0.02932153083384037;0.0024434609804302454;0.014660765416920185
01:00:0A:00:00:00:00;1725840306;09/09/24;00:05:06;0.986;-0.003;0.101;-0.0354301817715168;-0.019547687843441963;0.014660765416920185
01:00:0A:00:00:00:00;1725840307;09/09/24;00:05:07;0.998;-0.008;0.106;-0.025656338781118393;-0.05253440886735916;-0.012217304669320583
01:00:0A:00:00:00:00;1725840308;09/09/24;00:05:08;1.03;-0.002;0.11;-0.0354301817715168;-0.02321287989616394;-0.0024434609804302454
01:00:0A:00:00:00:00;1725840309;09/09/24;00:05:09;1.043;-0.015;0.119;-0.042760565876960754;0.004886921960860491;0.0024434609804302454
01:00:0A:00:00:00:00;1725840310;09/09/24;00:05:10;1.034;-0.011;0.107;-0.03787364438176155;0.02076941914856434;0.0
01:00:0A:00:00:00:00;1725840311;09/09/24;00:05:11;1.005;-0.002;0.096;-0.04153883829712868;0.021991148591041565;-0.004886921960860491
01:00:0A:00:00:00:00;1725840312;09/09/24;00:05:12;0.969;-0.006;0.092;-0.042760565876960754;-0.02321287989616394;-0.0073303827084600925
01:00:0A:00:00:00:00;1725840313;09/09/24;00:05:13;0.981;-0.01;0.094;-0.03787364438176155;-0.051312677562236786;-0.03420845419168472
01:00:0A:00:00:00:00;1725840314;09/09/24;00:05:14;1.029;-0.009;0.111;-0.05253440886735916;-0.04398229718208313;0.00855211354792118
01:00:0A:00:00:00:00;1725840315;09/09/24;00:05:15;1.054;-0.025;0.115;-0.04764748737215996;0.00855211354792118;0.013439035043120384
01:00:0A:00:00:00:00;1725840316;09/09/24;00:05:16;1.045;-0.004;0.108;-0.042760565876960754;0.021991148591041565;0.0012217304902151227
01:00:0A:00:00:00:00;1725840317;09/09/24;00:05:17;0.998;-0.006;0.095;-0.04886921867728233;0.012217304669320583;0.0073303827084600925
01:00:0A:00:00:00:00;1725840318;09/09/24;00:05:18;0.968;-0.014;0.092;-0.040317103266716;0.0;-0.0036651913542300463
01:00:0A:00:00:00:00;1725840319;09/09/24;00:05:19;0.981;-0.013;0.091;-0.03298672288656235;-0.05619959905743599;-0.00855211354792118
01:00:0A:00:00:00:00;1725840320;09/09/24;00:05:20;1.016;-0.017;0.102;-0.0354301817715168;-0.059864792972803116;0.0073303827084600925
01:00:0A:00:00:00:00;1725840321;09/09/24;00:05:21;1.05;-0.023;0.117;-0.030543262138962746;-0.00855211354792118;0.02321287989616394
01:00:0A:00:00:00:00;1725840322;09/09/24;00:05:22;1.044;-0.004;0.111;-0.02076941914856434;0.02076941914856434;-0.0024434609804302454
01:00:0A:00:00:00:00;1725840323;09/09/24;00:05:23;1.022;-0.01;0.104;-0.018325956538319588;0.015882495790719986;0.0012217304902151227
01:00:0A:00:00:00:00;1725840324;09/09/24;00:05:24;0.98;-0.014;0.096;-0.004886921960860491;0.006108652334660292;-0.014660765416920185
01:00:0A:00:00:00:00;1725840325;09/09/24;00:05:25;0.973;-0.009;0.098;-0.0036651913542300463;-0.028099799528717995;-0.0012217304902151227
01:00:0A:00:00:00:00;1725840326;09/09/24;00:05:26;1.003;-0.011;0.104;-0.0073303827084600925;-0.05864306166768074;0.004886921960860491
01:00:0A:00:00:00:00;1725840327;09/09/24;00:05:27;1.032;-0.017;0.116;0.0;-0.028099799528717995;-0.00855211354792118
01:00:0A:00:00:00:00;1725840328;09/09/24;00:05:28;1.054;-0.011;0.113;-0.0036651913542300463;0.014660765416920185;0.009773843921720982
01:00:0A:00:00:00:00;1725840329;09/09/24;00:05:29;1.044;-0.014;0.099;-0.0073303827084600925;0.0073303827084600925;0.0073303827084600925
01:00:0A:00:00:00:00;1725840330;09/09/24;00:05:30;1.005;-0.014;0.105;-0.006108652334660292;0.014660765416920185;-0.004886921960860491
01:00:0A:00:00:00:00;1725840331;09/09/24;00:05:31;0.976;-0.013;0.097;-0.012217304669320583;0.010995574295520782;0.004886921960860491
01:00:0A:00:00:00:00;1725840332;09/09/24;00:05:32;0.982;-0.015;0.089;-0.013439035043120384;-0.045204028487205505;0.012217304669320583
01:00:0A:00:00:00:00;1725840333;09/09/24;00:05:33;1.022;-0.008;0.121;-0.05619959905743599;-0.06230825558304787;0.04886921867728233
01:00:0A:00:00:00:00;1725840334;09/09/24;00:05:34;1.044;-0.032;0.107;0.0073303827084600925;0.0036651913542300463;-0.01710422709584236
01:00:0A:00:00:00:00;1725840335;09/09/24;00:05:35;1.041;0.01;0.111;0.0073303827084600925;0.025656338781118393;-0.03298672288656235
01:00:0A:00:00:00:00;1725840336;09/09/24;00:05:36;1.016;-0.015;0.116;-0.015882495790719986;-0.0024434609804302454;0.014660765416920185
01:00:0A:00:00:00:00;1725840337;09/09/24;00:05:37;0.99;-0.029;0.102;0.0073303827084600925;-0.013439035043120384;-0.004886921960860491
01:00:0A:00:00:00:00;1725840338;09/09/24;00:05:38;0.984;-0.007;0.107;0.0073303827084600925;0.0024434609804302454;0.0
01:00:0A:00:00:00:00;1725840339;09/09/24;00:05:39;1.013;-0.006;0.113;-0.006108652334660292;-0.05864306166768074;0.028099799528717995
01:00:0A:00:00:00:00;1725840340;09/09/24;00:05:40;1.035;-0.025;0.109;0.010995574295520782;-0.02687807008624077;-0.010995574295520782
01:00:0A:00:00:00:00;1725840341;09/09/24;00:05:41;1.037;-0.001;0.11;0.014660765416920185;0.018325956538319588;-0.009773843921720982
01:00:0A:00:00:00:00;1725840342;09/09/24;00:05:42;1.009;-0.012;0.111;0.0036651913542300463;0.010995574295520782;0.00855211354792118
01:00:0A:00:00:00:00;1725840343;09/09/24;00:05:43;0.996;-0.016;0.096;0.014660765416920185;-0.025656338781118393;-0.006108652334660292
01:00:0A:00:00:00:00;1725840344;09/09/24;00:05:44;0.992;-0.01;0.1;0.01710422709584236;-0.013439035043120384;-0.010995574295520782
01:00:0A:00:00:00:00;1725840345;09/09/24;00:05:45;0.997;-0.008;0.108;0.0024434609804302454;-0.028099799528717995;0.019547687843441963
01:00:0A:00:00:00:00;1725840346;09/09/24;00:05:46;1.014;-0.015;0.113;0.0073303827084600925;-0.04153883829712868;0.006108652334660292
01:00:0A:00:00:00:00;1725840347;09/09/24;00:05:47;1.022;-0.011;0.108;0.010995574295520782;-0.019547687843441963;0.0
01:00:0A:00:00:00:00;1725840348;09/09/24;00:05:48;1.023;-0.008;0.119;0.004886921960860491;-0.0024434609804302454;0.014660765416920185
01:00:0A:00:00:00:00;1725840349;09/09/24;00:05:49;1.025;-0.015;0.111;0.0073303827084600925;-0.014660765416920185;0.009773843921720982
01:00:0A:00:00:00:00;1725840350;09/09/24;00:05:50;1.022;-0.007;0.102;0.013439035043120384;0.0024434609804302454;-0.009773843921720982
01:00:0A:00:00:00:00;1725840351;09/09/24;00:05:51;1.011;-0.011;0.11;0.010995574295520782;0.006108652334660292;-0.0036651913542300463
01:00:0A:00:00:00:00;1725840352;09/09/24;00:05:52;1.005;-0.016;0.106;0.012217304669320583;-0.021991148591041565;0.0
01:00:0A:00:00:00:00;1725840353;09/09/24;00:05:53;1.003;-0.013;0.103;0.013439035043120384;-0.013439035043120384;-0.0024434609804302454
01:00:0A:00:00:00:00;1725840354;09/09/24;00:05:54;1.009;-0.011;0.108;0.0073303827084600925;-0.0012217304902151227;0.012217304669320583
01:00:0A:00:00:00:00;1725840355;09/09/24;00:05:55;1.018;-0.012;0.108;0.009773843921720982;-0.018325956538319588;0.012217304669320583
01:00:0A:00:00:00:00;1725840356;09/09/24;00:05:56;1.023;-0.008;0.103;0.013439035043120384;-0.009773843921720982;-0.0024434609804302454
01:00:0A:00:00:00:00;1725840357;09/09/24;00:05:57;1.013;-0.012;0.111;0.012217304669320583;0.0036651913542300463;0.0012217304902151227
01:00:0A:00:00:00:00;1725840358;09/09/24;00:05:58;1.001;-0.014;0.105;0.012217304669320583;-0.015882495790719986;0.0073303827084600925
01:00:0A:00:00:00:00;1725840359;09/09/24;00:05:59;1.002;-0.012;0.106;0.013439035043120384;-0.015882495790719986;0.0024434609804302454
01:00:0A:00:00:00:00;1725840360;09/09/24;00:06:00;1.022;-0.013;0.115;0.010995574295520782;0.0;0.012217304669320583
01:00:0A:00:00:00:00;1725840361;09/09/24;00:06:01;1.031;-0.012;0.113;0.013439035043120384;-0.0024434609804302454;0.010995574295520782
01:00:0A:00:00:00:00;1725840362;09/09/24;00:06:02;1.021;-0.007;0.104;0.018325956538319588;-0.0012217304902151227;-0.006108652334660292
01:00:0A:00:00:00:00;1725840363;09/09/24;00:06:03;1.01;-0.013;0.109;0.02076941914856434;0.0;-0.006108652334660292
01:00:0A:00:00:00:00;1725840364;09/09/24;00:06:04;0.995;-0.017;0.109;0.024434609338641167;-0.030543262138962746;-0.0012217304902151227
01:00:0A:00:00:00:00;1725840365;09/09/24;00:06:05;0.996;-0.017;0.11;0.025656338781118393;-0.018325956538319588;0.006108652334660292
01:00:0A:00:00:00:00;1725840366;09/09/24;00:06:06;1.018;-0.014;0.116;0.021991148591041565;0.0;0.021991148591041565
01:00:0A:00:00:00:00;1725840367;09/09/24;00:06:07;1.035;-0.009;0.114;0.02687807008624077;0.0;0.006108652334660292
01:00:0A:00:00:00:00;1725840368;09/09/24;00:06:08;1.029;-0.009;0.105;0.02932153083384037;-0.0024434609804302454;-0.0036651913542300463
01:00:0A:00:00:00:00;1725840369;09/09/24;00:06:09;1.009;-0.012;0.107;0.02932153083384037;0.004886921960860491;-0.004886921960860491
01:00:0A:00:00:00:00;1725840370;09/09/24;00:06:10;0.997;-0.016;0.11;0.03176499158143997;-0.028099799528717995;-0.006108652334660292
01:00:0A:00:00:00:00;1725840371;09/09/24;00:06:11;0.996;-0.016;0.11;0.03298672288656235;-0.03298672288656235;0.0
01:00:0A:00:00:00:00;1725840372;09/09/24;00:06:12;1.005;-0.014;0.111;0.02932153083384037;-0.01710422709584236;0.012217304669320583
01:00:0A:00:00:00:00;1725840373;09/09/24;00:06:13;1.017;-0.01;0.111;0.02932153083384037;-0.012217304669320583;0.012217304669320583
01:00:0A:00:00:00:00;1725840374;09/09/24;00:06:14;1.019;-0.01;0.103;0.03176499158143997;-0.02076941914856434;0.0073303827084600925
01:00:0A:00:00:00:00;1725840375;09/09/24;00:06:15;1.021;-0.009;0.107;0.03420845419168472;-0.014660765416920185;0.0012217304902151227
01:00:0A:00:00:00:00;1725840376;09/09/24;00:06:16;1.021;-0.011;0.114;0.0354301817715168;-0.009773843921720982;-0.0012217304902151227
01:00:0A:00:00:00:00;1725840377;09/09/24;00:06:17;1.02;-0.014;0.117;0.03787364438176155;-0.0073303827084600925;0.0012217304902151227
01:00:0A:00:00:00:00;1725840378;09/09/24;00:06:18;1.011;-0.013;0.112;0.03787364438176155;0.01710422709584236;0.006108652334660292
01:00:0A:00:00:00:00;1725840379;09/09/24;00:06:19;1.01;-0.013;0.106;0.03787364438176155;0.018325956538319588;0.0073303827084600925
01:00:0A:00:00:00:00;1725840380;09/09/24;00:06:20;1.003;-0.013;0.099;0.040317103266716;-0.012217304669320583;0.0036651913542300463
01:00:0A:00:00:00:00;1725840381;09/09/24;00:06:21;1.002;-0.011;0.098;0.042760565876960754;-0.02076941914856434;0.006108652334660292
01:00:0A:00:00:00:00;1725840382;09/09/24;00:06:22;1.011;-0.012;0.105;0.045204028487205505;-0.03420845419168472;0.006108652334660292
01:00:0A:00:00:00:00;1725840383;09/09/24;00:06:23;1.015;-0.013;0.112;0.04886921867728233;-0.030543262138962746;0.004886921960860491
01:00:0A:00:00:00:00;1725840384;09/09/24;00:06:24;1.019;-0.013;0.112;0.04886921867728233;-0.0024434609804302454;0.00855211354792118
01:00:0A:00:00:00:00;1725840385;09/09/24;00:06:25;1.013;-0.013;0.111;0.051312677562236786;0.00855211354792118;0.006108652334660292
01:00:0A:00:00:00:00;1725840386;09/09/24;00:06:26;1.011;-0.012;0.104;0.05375614017248154;0.0;0.0012217304902151227
01:00:0A:00:00:00:00;1725840387;09/09/24;00:06:27;1.015;-0.014;0.104;0.05375614017248154;-0.024434609338641167;0.00855211354792118
01:00:0A:00:00:00:00;1725840388;09/09/24;00:06:28;1.019;-0.014;0.109;0.05497787147760391;-0.021991148591041565;0.009773843921720982
01:00:0A:00:00:00:00;1725840389;09/09/24;00:06:29;1.02;-0.014;0.111;0.05497787147760391;-0.0073303827084600925;0.00855211354792118
01:00:0A:00:00:00:00;1725840390;09/09/24;00:06:30;1.016;-0.011;0.113;0.05619959905743599;0.0024434609804302454;0.004886921960860491
01:00:0A:00:00:00:00;1725840391;09/09/24;00:06:31;1.006;-0.012;0.108;0.05742133408784866;-0.0012217304902151227;0.0036651913542300463
01:00:0A:00:00:00:00;1725840392;09/09/24;00:06:32;1.004;-0.007;0.084;0.17104226350784302;-0.03787364438176155;-0.0012217304902151227
01:00:0A:00:00:00:00;1725840393;09/09/24;00:06:33;1.007;-0.005;0.078;0.37140607833862305;0.013439035043120384;0.019547687843441963
01:00:0A:00:00:00:00;1725840394;09/09/24;00:06:34;1.015;-0.003;0.127;0.3237585723400116;0.00855211354792118;0.05009094998240471
01:00:0A:00:00:00:00;1725840395;09/09/24;00:06:35;1.019;-0.015;0.122;0.3066543638706207;-0.05619959905743599;0.042760565876960754
01:00:0A:00:00:00:00;1725840396;09/09/24;00:06:36;1.023;-0.019;0.089;0.3066543638706207;-0.006108652334660292;0.009773843921720982
01:00:0A:00:00:00:00;1725840397;09/09/24;00:06:37;1.014;0.006;0.12;0.28466320037841797;0.03420845419168472;0.006108652334660292
01:00:0A:00:00:00:00;1725840398;09/09/24;00:06:38;1.007;-0.011;0.114;0.2528982162475586;-0.021991148591041565;0.05864306166768074
01:00:0A:00:00:00:00;1725840399;09/09/24;00:06:39;1.006;-0.027;0.097;0.26633724570274353;-0.018325956538319588;0.00855211354792118
01:00:0A:00:00:00:00;1725840400;09/09/24;00:06:40;1.008;0.0;0.104;0.25534167885780334;0.004886921960860491;0.0073303827084600925
01:00:0A:00:00:00:00;1725840401;09/09/24;00:06:41;1.011;-0.007;0.113;0.22357667982578278;-0.010995574295520782;0.05375614017248154
01:00:0A:00:00:00:00;1725840402;09/09/24;00:06:42;1.013;-0.027;0.105;0.23457224667072296;-0.02687807008624077;0.01710422709584236
01:00:0A:00:00:00:00;1725840403;09/09/24;00:06:43;1.016;-0.002;0.1;0.2321287840604782;-0.013439035043120384;0.004886921960860491
01:00:0A:00:00:00:00;1725840404;09/09/24;00:06:44;1.016;-0.005;0.112;0.20402899384498596;0.0036651913542300463;0.0354301817715168
01:00:0A:00:00:00:00;1725840405;09/09/24;00:06:45;1.014;-0.022;0.112;0.20891590416431427;-0.019547687843441963;0.015882495790719986
01:00:0A:00:00:00:00;1725840406;09/09/24;00:06:46;1.013;-0.005;0.099;0.2076941877603531;-0.010995574295520782;-0.0036651913542300463
01:00:0A:00:00:00:00;1725840407;09/09/24;00:06:47;1.01;-0.01;0.106;0.18814648687839508;0.010995574295520782;0.024434609338641167
01:00:0A:00:00:00:00;1725840408;09/09/24;00:06:48;1.01;-0.021;0.111;0.18570303916931152;-0.024434609338641167;0.02321287989616394
01:00:0A:00:00:00:00;1725840409;09/09/24;00:06:49;1.011;-0.013;0.101;0.18325956165790558;-0.021991148591041565;0.019547687843441963
01:00:0A:00:00:00:00;1725840410;09/09/24;00:06:50;1.014;-0.007;0.111;0.16982054710388184;0.010995574295520782;0.03298672288656235
01:00:0A:00:00:00:00;1725840411;09/09/24;00:06:51;1.018;-0.01;0.115;0.16859880089759827;-0.012217304669320583;0.018325956538319588
01:00:0A:00:00:00:00;1725840412;09/09/24;00:06:52;1.021;-0.013;0.096;0.1673770695924759;-0.013439035043120384;0.004886921960860491
01:00:0A:00:00:00:00;1725840413;09/09/24;00:06:53;1.015;-0.011;0.106;0.161268413066864;0.0012217304902151227;0.006108652334660292
01:00:0A:00:00:00:00;1725840414;09/09/24;00:06:54;1.009;-0.017;0.117;0.1514945775270462;-0.014660765416920185;0.02321287989616394
01:00:0A:00:00:00:00;1725840415;09/09/24;00:06:55;1.01;-0.019;0.103;0.14905111491680145;-0.01710422709584236;0.02076941914856434
01:00:0A:00:00:00:00;1725840416;09/09/24;00:06:56;1.008;-0.008;0.104;0.14416420459747314;0.0024434609804302454;0.019547687843441963
01:00:0A:00:00:00:00;1725840417;09/09/24;00:06:57;1.009;-0.008;0.107;0.13439035415649414;-0.019547687843441963;0.02321287989616394
01:00:0A:00:00:00:00;1725840418;09/09/24;00:06:58;1.014;-0.013;0.1;0.13439035415649414;-0.030543262138962746;0.013439035043120384
01:00:0A:00:00:00:00;1725840419;09/09/24;00:06:59;1.016;-0.006;0.106;0.13316862285137177;-0.01710422709584236;0.0024434609804302454
01:00:0A:00:00:00:00;1725840420;09/09/24;00:07:00;1.017;-0.01;0.116;0.12217304855585098;-0.015882495790719986;0.012217304669320583
01:00:0A:00:00:00:00;1725840421;09/09/24;00:07:01;1.016;-0.015;0.107;0.11972958594560623;-0.0073303827084600925;0.012217304669320583
01:00:0A:00:00:00:00;1725840422;09/09/24;00:07:02;1.014;-0.012;0.105;0.11850785464048386;0.00855211354792118;0.0036651913542300463
01:00:0A:00:00:00:00;1725840423;09/09/24;00:07:03;1.008;-0.01;0.102;0.10751228034496307;-0.00855211354792118;0.02076941914856434
01:00:0A:00:00:00:00;1725840424;09/09/24;00:07:04;1.012;-0.018;0.1;0.10751228034496307;-0.024434609338641167;0.015882495790719986
01:00:0A:00:00:00:00;1725840425;09/09/24;00:07:05;1.016;-0.009;0.106;0.1062905490398407;-0.014660765416920185;0.010995574295520782
01:00:0A:00:00:00:00;1725840426;09/09/24;00:07:06;1.016;-0.006;0.111;0.10018189996480942;-0.01710422709584236;0.012217304669320583
01:00:0A:00:00:00:00;1725840427;09/09/24;00:07:07;1.015;-0.017;0.111;0.1014036238193512;-0.0073303827084600925;0.0036651913542300463
01:00:0A:00:00:00:00;1725840428;09/09/24;00:07:08;1.008;-0.012;0.106;0.1014036238193512;0.0036651913542300463;0.0012217304902151227
01:00:0A:00:00:00:00;1725840429;09/09/24;00:07:09;1.009;-0.013;0.104;0.09285151958465576;-0.004886921960860491;0.018325956538319588
01:00:0A:00:00:00:00;1725840430;09/09/24;00:07:10;1.014;-0.016;0.103;0.09529497474431992;-0.024434609338641167;0.012217304669320583
01:00:0A:00:00:00:00;1725840431;09/09/24;00:07:11;1.018;-0.01;0.104;0.09529497474431992;-0.02687807008624077;0.006108652334660292
01:00:0A:00:00:00:00;1725840432;09/09/24;00:07:12;1.021;-0.009;0.112;0.08796459436416626;-0.004886921960860491;0.015882495790719986
01:00:0A:00:00:00:00;1725840433;09/09/24;00:07:13;1.018;-0.012;0.112;0.09162978082895279;-0.004886921960860491;0.0036651913542300463
01:00:0A:00:00:00:00;1725840434;09/09/24;00:07:14;1.011;-0.011;0.106;0.09162978082895279;0.0012217304902151227;-0.0024434609804302454
01:00:0A:00:00:00:00;1725840435;09/09/24;00:07:15;1.006;-0.014;0.104;0.08552113175392151;0.0073303827084600925;0.010995574295520782
01:00:0A:00:00:00:00;1725840436;09/09/24;00:07:16;1.003;-0.015;0.102;0.08674286305904388;-0.02321287989616394;0.009773843921720982
01:00:0A:00:00:00:00;1725840437;09/09/24;00:07:17;1.007;-0.01;0.1;0.08552113175392151;-0.02076941914856434;0.012217304669320583
01:00:0A:00:00:00:00;1725840438;09/09/24;00:07:18;1.015;-0.008;0.107;0.080634206533432;-0.015882495790719986;0.014660765416920185
01:00:0A:00:00:00:00;1725840439;09/09/24;00:07:19;1.02;-0.009;0.111;0.08185594528913498;-0.01710422709584236;0.004886921960860491
01:00:0A:00:00:00:00;1725840440;09/09/24;00:07:20;1.02;-0.009;0.105;0.08185594528913498;-0.013439035043120384;0.0
01:00:0A:00:00:00:00;1725840441;09/09/24;00:07:21;1.017;-0.014;0.112;0.07696902006864548;0.0012217304902151227;0.00855211354792118
01:00:0A:00:00:00:00;1725840442;09/09/24;00:07:22;1.016;-0.014;0.11;0.0757472887635231;-0.0073303827084600925;0.010995574295520782
01:00:0A:00:00:00:00;1725840443;09/09/24;00:07:23;1.009;-0.012;0.102;0.07330382615327835;-0.012217304669320583;0.013439035043120384
01:00:0A:00:00:00:00;1725840444;09/09/24;00:07:24;1.008;-0.009;0.109;0.0708603635430336;-0.0024434609804302454;0.010995574295520782
01:00:0A:00:00:00:00;1725840445;09/09/24;00:07:25;1.01;-0.009;0.108;0.06963863223791122;-0.018325956538319588;0.004886921960860491
01:00:0A:00:00:00:00;1725840446;09/09/24;00:07:26;1.012;-0.011;0.102;0.06719517707824707;-0.013439035043120384;0.0024434609804302454
01:00:0A:00:00:00:00;1725840447;09/09/24;00:07:27;1.011;-0.012;0.109;0.06475171446800232;-0.004886921960860491;0.0036651913542300463
01:00:0A:00:00:00:00;1725840448;09/09/24;00:07:28;1.008;-0.012;0.108;0.059864792972803116;-0.021991148591041565;0.012217304669320583
01:00:0A:00:00:00:00;1725840449;09/09/24;00:07:29;1.014;-0.013;0.102;0.05864306166768074;-0.015882495790719986;0.009773843921720982
01:00:0A:00:00:00:00;1725840450;09/09/24;00:07:30;1.017;-0.01;0.11;0.05742133408784866;-0.0073303827084600925;0.00855211354792118
01:00:0A:00:00:00:00;1725840451;09/09/24;00:07:31;1.016;-0.008;0.112;0.05497787147760391;-0.018325956538319588;0.006108652334660292
01:00:0A:00:00:00:00;1725840452;09/09/24;00:07:32;1.016;-0.014;0.106;0.05375614017248154;-0.00855211354792118;0.0024434609804302454
01:00:0A:00:00:00:00;1725840453;09/09/24;00:07:33;1.013;-0.012;0.113;0.051312677562236786;0.0012217304902151227;0.0024434609804302454
01:00:0A:00:00:00:00;1725840454;09/09/24;00:07:34;1.01;-0.011;0.109;0.045204028487205505;-0.012217304669320583;0.014660765416920185
01:00:0A:00:00:00:00;1725840455;09/09/24;00:07:35;1.011;-0.013;0.1;0.04398229718208313;-0.010995574295520782;0.009773843921720982
01:00:0A:00:00:00:00;1725840456;09/09/24;00:07:36;1.011;-0.009;0.107;0.04398229718208313;-0.010995574295520782;0.0036651913542300463
01:00:0A:00:00:00:00;1725840457;09/09/24;00:07:37;1.016;-0.006;0.111;0.039095375686883926;-0.024434609338641167;0.0073303827084600925
01:00:0A:00:00:00:00;1725840458;09/09/24;00:07:38;1.014;-0.013;0.107;0.039095375686883926;-0.014660765416920185;0.0012217304902151227
01:00:0A:00:00:00:00;1725840459;09/09/24;00:07:39;1.013;-0.011;0.11;0.036651913076639175;0.0;0.0012217304902151227
01:00:0A:00:00:00:00;1725840460;09/09/24;00:07:40;1.011;-0.011;0.11;0.02932153083384037;-0.014660765416920185;0.013439035043120384
01:00:0A:00:00:00:00;1725840461;09/09/24;00:07:41;1.016;-0.012;0.102;0.02932153083384037;-0.010995574295520782;0.00855211354792118
01:00:0A:00:00:00:00;1725840462;09/09/24;00:07:42;1.016;-0.007;0.109;0.030543262138962746;-0.006108652334660292;-0.0036651913542300463
01:00:0A:00:00:00:00;1725840463;09/09/24;00:07:43;1.015;-0.009;0.11;0.024434609338641167;-0.015882495790719986;0.0036651913542300463
01:00:0A:00:00:00:00;1725840464;09/09/24;00:07:44;1.014;-0.016;0.104;0.024434609338641167;-0.010995574295520782;0.0036651913542300463
01:00:0A:00:00:00:00;1725840465;09/09/24;00:07:45;1.009;-0.01;0.108;0.024434609338641167;0.0012217304902151227;0.0036651913542300463
01:00:0A:00:00:00:00;1725840466;09/09/24;00:07:46;1.009;-0.009;0.104;0.018325956538319588;-0.014660765416920185;0.014660765416920185
01:00:0A:00:00:00:00;1725840467;09/09/24;00:07:47;1.01;-0.011;0.099;0.02076941914856434;-0.018325956538319588;0.004886921960860491
01:00:0A:00:00:00:00;1725840468;09/09/24;00:07:48;1.016;-0.008;0.108;0.021991148591041565;-0.014660765416920185;-0.0036651913542300463
01:00:0A:00:00:00:00;1725840469;09/09/24;00:07:49;1.02;-0.008;0.111;0.01710422709584236;-0.02321287989616394;0.004886921960860491
01:00:0A:00:00:00:00;1725840470;09/09/24;00:07:50;1.02;-0.015;0.107;0.018325956538319588;-0.006108652334660292;0.0024434609804302454
01:00:0A:00:00:00:00;1725840471;09/09/24;00:07:51;1.016;-0.011;0.11;0.019547687843441963;0.0073303827084600925;-0.0012217304902151227
01:00:0A:00:00:00:00;1725840472;09/09/24;00:07:52;1.006;-0.01;0.104;0.013439035043120384;-0.009773843921720982;0.013439035043120384
01:00:0A:00:00:00:00;1725840473;09/09/24;00:07:53;1.005;-0.014;0.098;0.01710422709584236;-0.01710422709584236;0.006108652334660292
01:00:0A:00:00:00:00;1725840474;09/09/24;00:07:54;1.009;-0.008;0.105;0.019547687843441963;-0.015882495790719986;-0.0012217304902151227
01:00:0A:00:00:00:00;1725840475;09/09/24;00:07:55;1.017;-0.008;0.109;0.014660765416920185;-0.02321287989616394;0.0073303827084600925
01:00:0A:00:00:00:00;1725840476;09/09/24;00:07:56;1.019;-0.015;0.104;0.01710422709584236;-0.012217304669320583;0.0036651913542300463
01:00:0A:00:00:00:00;1725840477;09/09/24;00:07:57;1.016;-0.009;0.109;0.02076941914856434;0.0;-0.0036651913542300463
01:00:0A:00:00:00:00;1725840478;09/09/24;00:07:58;1.014;-0.011;0.107;0.015882495790719986;-0.00855211354792118;0.00855211354792118
01:00:0A:00:00:00:00;1725840479;09/09/24;00:07:59;1.01;-0.016;0.1;0.018325956538319588;-0.014660765416920185;0.0036651913542300463
01:00:0A:00:00:00:00;1725840480;09/09/24;00:08:00;1.011;-0.012;0.109;0.021991148591041565;-0.0073303827084600925;-0.0012217304902151227
01:00:0A:00:00:00:00;1725840481;09/09/24;00:08:01;1.015;-0.01;0.109;0.015882495790719986;-0.012217304669320583;0.013439035043120384
01:00:0A:00:00:00:00;1725840482;09/09/24;00:08:02;1.015;-0.015;0.102;0.02076941914856434;-0.00855211354792118;0.0036651913542300463
01:00:0A:00:00:00:00;1725840483;09/09/24;00:08:03;1.01;-0.011;0.105;0.025656338781118393;-0.006108652334660292;-0.004886921960860491
01:00:0A:00:00:00:00;1725840484;09/09/24;00:08:04;1.007;-0.012;0.109;0.019547687843441963;-0.021991148591041565;0.010995574295520782
01:00:0A:00:00:00:00;1725840485;09/09/24;00:08:05;1.009;-0.016;0.106;0.02321287989616394;-0.013439035043120384;0.0073303827084600925
01:00:0A:00:00:00:00;1725840486;09/09/24;00:08:06;1.016;-0.009;0.109;0.028099799528717995;-0.004886921960860491;-0.0024434609804302454
01:00:0A:00:00:00:00;1725840487;09/09/24;00:08:07;1.02;-0.009;0.11;0.02321287989616394;-0.0073303827084600925;0.00855211354792118
01:00:0A:00:00:00:00;1725840488;09/09/24;00:08:08;1.02;-0.017;0.103;0.025656338781118393;-0.00855211354792118;0.006108652334660292
01:00:0A:00:00:00:00;1725840489;09/09/24;00:08:09;1.016;-0.01;0.107;0.030543262138962746;-0.0073303827084600925;-0.0036651913542300463
01:00:0A:00:00:00:00;1725840490;09/09/24;00:08:10;1.009;-0.01;0.109;0.025656338781118393;-0.01710422709584236;0.009773843921720982
01:00:0A:00:00:00:00;1725840491;09/09/24;00:08:11;1.008;-0.015;0.107;0.028099799528717995;-0.00855211354792118;0.006108652334660292
01:00:0A:00:00:00:00;1725840492;09/09/24;00:08:12;1.008;-0.009;0.107;0.03176499158143997;-0.0036651913542300463;-0.0024434609804302454
01:00:0A:00:00:00:00;1725840493;09/09/24;00:08:13;1.013;-0.008;0.106;0.02687807008624077;-0.013439035043120384;0.009773843921720982
01:00:0A:00:00:00:00;1725840494;09/09/24;00:08:14;1.016;-0.017;0.103;0.02932153083384037;-0.014660765416920185;0.004886921960860491
01:00:0A:00:00:00:00;1725840495;09/09/24;00:08:15;1.016;-0.011;0.108;0.03420845419168472;-0.013439035043120384;-0.0024434609804302454
01:00:0A:00:00:00:00;1725840496;09/09/24;00:08:16;1.016;-0.01;0.11;0.02687807008624077;-0.01710422709584236;0.010995574295520782
01:00:0A:00:00:00:00;1725840497;09/09/24;00:08:17;1.016;-0.016;0.11;0.02932153083384037;-0.0024434609804302454;0.00855211354792118
01:00:0A:00:00:00:00;1725840498;09/09/24;00:08:18;1.012;-0.008;0.107;0.03420845419168472;0.0036651913542300463;-0.004886921960860491
01:00:0A:00:00:00:00;1725840499;09/09/24;00:08:19;1.008;-0.01;0.102;0.028099799528717995;-0.012217304669320583;0.010995574295520782
01:00:0A:00:00:00:00;1725840500;09/09/24;00:08:20;1.009;-0.016;0.102;0.030543262138962746;-0.014660765416920185;0.00855211354792118
01:00:0A:00:00:00:00;1725840501;09/09/24;00:08:21;1.013;-0.008;0.107;0.0354301817715168;-0.018325956538319588;0.0
01:00:0A:00:00:00:00;1725840502;09/09/24;00:08:22;1.016;-0.006;0.109;0.028099799528717995;-0.012217304669320583;0.009773843921720982
01:00:0A:00:00:00:00;1725840503;09/09/24;00:08:23;1.016;-0.015;0.108;0.03176499158143997;-0.006108652334660292;0.0024434609804302454
01:00:0A:00:00:00:00;1725840504;09/09/24;00:08:24;1.015;-0.011;0.108;0.0354301817715168;-0.0012217304902151227;-0.004886921960860491
01:00:0A:00:00:00:00;1725840505;09/09/24;00:08:25;1.013;-0.01;0.105;0.028099799528717995;-0.00855211354792118;0.010995574295520782
01:00:0A:00:00:00:00;1725840506;09/09/24;00:08:26;1.014;-0.016;0.106;0.030543262138962746;-0.013439035043120384;0.0073303827084600925
01:00:0A:00:00:00:00;1725840507;09/09/24;00:08:27;1.014;-0.008;0.108;0.03420845419168472;-0.013439035043120384;-0.0024434609804302454
01:00:0A:00:00:00:00;1725840508;09/09/24;00:08:28;1.014;-0.007;0.108;0.028099799528717995;-0.00855211354792118;0.00855211354792118
01:00:0A:00:00:00:00;1725840509;09/09/24;00:08:29;1.012;-0.015;0.108;0.030543262138962746;-0.004886921960860491;0.006108652334660292
01:00:0A:00:00:00:00;1725840510;09/09/24;00:08:30;1.01;-0.01;0.105;0.0354301817715168;-0.012217304669320583;-0.004886921960860491
01:00:0A:00:00:00:00;1725840511;09/09/24;00:08:31;1.011;-0.009;0.104;0.028099799528717995;-0.014660765416920185;0.013439035043120384
01:00:0A:00:00:00:00;1725840512;09/09/24;00:08:32;1.015;-0.015;0.107;0.030543262138962746;-0.014660765416920185;0.0073303827084600925
01:00:0A:00:00:00:00;1725840513;09/09/24;00:08:33;1.016;-0.011;0.111;0.0354301817715168;-0.012217304669320583;-0.004886921960860491
01:00:0A:00:00:00:00;1725840514;09/09/24;00:08:34;1.016;-0.008;0.107;0.028099799528717995;-0.0036651913542300463;0.00855211354792118
01:00:0A:00:00:00:00;1725840515;09/09/24;00:08:35;1.009;-0.015;0.106;0.030543262138962746;-0.006108652334660292;0.004886921960860491
01:00:0A:00:00:00:00;1725840516;09/09/24;00:08:36;1.009;-0.01;0.104;0.0354301817715168;-0.015882495790719986;-0.0012217304902151227
01:00:0A:00:00:00:00;1725840517;09/09/24;00:08:37;1.015;-0.008;0.106;0.028099799528717995;-0.015882495790719986;0.010995574295520782
01:00:0A:00:00:00:00;1725840518;09/09/24;00:08:38;1.016;-0.015;0.108;0.030543262138962746;-0.013439035043120384;0.006108652334660292
01:00:0A:00:00:00:00;1725840519;09/09/24;00:08:39;1.016;-0.009;0.108;0.0354301817715168;-0.013439035043120384;-0.006108652334660292
01:00:0A:00:00:00:00;1725840520;09/09/24;00:08:40;1.011;-0.011;0.105;0.028099799528717995;-0.0073303827084600925;0.006108652334660292
01:00:0A:00:00:00:00;1725840521;09/09/24;00:08:41;1.01;-0.016;0.107;0.02932153083384037;-0.006108652334660292;0.0073303827084600925
01:00:0A:00:00:00:00;1725840522;09/09/24;00:08:42;1.011;-0.01;0.103;0.03298672288656235;-0.018325956538319588;-0.0024434609804302454
01:00:0A:00:00:00:00;1725840523;09/09/24;00:08:43;1.015;-0.01;0.106;0.025656338781118393;-0.014660765416920185;0.012217304669320583
01:00:0A:00:00:00:00;1725840524;09/09/24;00:08:44;1.018;-0.012;0.11;0.02687807008624077;-0.00855211354792118;0.00855211354792118
01:00:0A:00:00:00:00;1725840525;09/09/24;00:08:45;1.016;-0.009;0.107;0.030543262138962746;-0.012217304669320583;-0.0024434609804302454
01:00:0A:00:00:00:00;1725840526;09/09/24;00:08:46;1.014;-0.008;0.104;0.025656338781118393;-0.004886921960860491;0.006108652334660292
01:00:0A:00:00:00:00;1725840527;09/09/24;00:08:47;1.01;-0.015;0.106;0.02687807008624077;-0.006108652334660292;0.004886921960860491
01:00:0A:00:00:00:00;1725840528;09/09/24;00:08:48;1.009;-0.013;0.105;0.02932153083384037;-0.01710422709584236;0.0
01:00:0A:00:00:00:00;1725840529;09/09/24;00:08:49;1.012;-0.011;0.103;0.024434609338641167;-0.014660765416920185;0.00855211354792118
01:00:0A:00:00:00:00;1725840530;09/09/24;00:08:50;1.014;-0.015;0.111;0.024434609338641167;-0.009773843921720982;0.00855211354792118
01:00:0A:00:00:00:00;1725840531;09/09/24;00:08:51;1.015;-0.009;0.107;0.028099799528717995;-0.013439035043120384;-0.0012217304902151227
01:00:0A:00:00:00:00;1725840532;09/09/24;00:08:52;1.014;-0.008;0.105;0.025656338781118393;-0.010995574295520782;0.0024434609804302454
01:00:0A:00:00:00:00;1725840533;09/09/24;00:08:53;1.011;-0.014;0.108;0.024434609338641167;-0.0073303827084600925;0.004886921960860491
01:00:0A:00:00:00:00;1725840534;09/09/24;00:08:54;1.012;-0.013;0.107;0.028099799528717995;-0.014660765416920185;0.0012217304902151227
01:00:0A:00:00:00:00;1725840535;09/09/24;00:08:55;1.013;-0.009;0.103;0.02321287989616394;-0.010995574295520782;0.010995574295520782
01:00:0A:00:00:00:00;1725840536;09/09/24;00:08:56;1.016;-0.012;0.109;0.02321287989616394;-0.012217304669320583;0.006108652334660292
01:00:0A:00:00:00:00;1725840537;09/09/24;00:08:57;1.017;-0.01;0.108;0.02687807008624077;-0.014660765416920185;-0.0012217304902151227
01:00:0A:00:00:00:00;1725840538;09/09/24;00:08:58;1.016;-0.008;0.105;0.021991148591041565;-0.004886921960860491;0.006108652334660292
01:00:0A:00:00:00:00;1725840539;09/09/24;00:08:59;1.01;-0.014;0.108;0.021991148591041565;-0.004886921960860491;0.0036651913542300463
01:00:0A:00:00:00:00;1725840540;09/09/24;00:09:00;1.009;-0.012;0.106;0.02321287989616394;-0.014660765416920185;0.0024434609804302454
01:00:0A:00:00:00:00;1725840541;09/09/24;00:09:01;1.013;-0.009;0.103;0.019547687843441963;-0.012217304669320583;0.00855211354792118
01:00:0A:00:00:00:00;1725840542;09/09/24;00:09:02;1.017;-0.01;0.108;0.02076941914856434;-0.010995574295520782;0.006108652334660292
01:00:0A:00:00:00:00;1725840543;09/09/24;00:09:03;1.019;-0.01;0.108;0.021991148591041565;-0.014660765416920185;0.0
01:00:0A:00:00:00:00;1725840544;09/09/24;00:09:04;1.014;-0.01;0.105;0.019547687843441963;-0.006108652334660292;0.0036651913542300463
01:00:0A:00:00:00:00;1725840545;09/09/24;00:09:05;1.01;-0.013;0.107;0.019547687843441963;-0.0024434609804302454;0.004886921960860491
01:00:0A:00:00:00:00;1725840546;09/09/24;00:09:06;1.006;-0.01;0.104;0.02076941914856434;-0.015882495790719986;0.0012217304902151227
01:00:0A:00:00:00:00;1725840547;09/09/24;00:09:07;1.008;-0.01;0.102;0.018325956538319588;-0.013439035043120384;0.0073303827084600925
01:00:0A:00:00:00:00;1725840548;09/09/24;00:09:08;1.017;-0.011;0.107;0.018325956538319588;-0.018325956538319588;0.0024434609804302454
01:00:0A:00:00:00:00;1725840549;09/09/24;00:09:09;1.018;-0.01;0.11;0.02076941914856434;-0.015882495790719986;0.0
01:00:0A:00:00:00:00;1725840550;09/09/24;00:09:10;1.018;-0.01;0.106;0.01710422709584236;-0.0036651913542300463;0.004886921960860491
01:00:0A:00:00:00:00;1725840551;09/09/24;00:09:11;1.012;-0.012;0.106;0.01710422709584236;0.0;0.006108652334660292
01:00:0A:00:00:00:00;1725840552;09/09/24;00:09:12;1.009;-0.01;0.104;0.018325956538319588;-0.013439035043120384;0.0012217304902151227
01:00:0A:00:00:00:00;1725840553;09/09/24;00:09:13;1.01;-0.01;0.102;0.01710422709584236;-0.014660765416920185;0.004886921960860491
01:00:0A:00:00:00:00;1725840554;09/09/24;00:09:14;1.013;-0.011;0.107;0.015882495790719986;-0.010995574295520782;0.004886921960860491
01:00:0A:00:00:00:00;1725840555;09/09/24;00:09:15;1.015;-0.01;0.107;0.018325956538319588;-0.01710422709584236;0.0012217304902151227
01:00:0A:00:00:00:00;1725840556;09/09/24;00:09:16;1.014;-0.01;0.106;0.015882495790719986;-0.009773843921720982;0.0036651913542300463
01:00:0A:00:00:00:00;1725840557;09/09/24;00:09:17;1.013;-0.011;0.106;0.015882495790719986;-0.0073303827084600925;0.004886921960860491
01:00:0A:00:00:00:00;1725840558;09/09/24;00:09:18;1.014;-0.01;0.104;0.01710422709584236;-0.01710422709584236;0.0012217304902151227
01:00:0A:00:00:00:00;1725840559;09/09/24;00:09:19;1.015;-0.01;0.103;0.015882495790719986;-0.013439035043120384;0.0036651913542300463
01:00:0A:00:00:00:00;1725840560;09/09/24;00:09:20;1.015;-0.012;0.108;0.015882495790719986;-0.009773843921720982;0.0036651913542300463
01:00:0A:00:00:00:00;1725840561;09/09/24;00:09:21;1.015;-0.01;0.107;0.01710422709584236;-0.010995574295520782;0.0036651913542300463
01:00:0A:00:00:00:00;1725840562;09/09/24;00:09:22;1.014;-0.009;0.104;0.015882495790719986;-0.0073303827084600925;0.004886921960860491
01:00:0A:00:00:00:00;1725840563;09/09/24;00:09:23;1.012;-0.01;0.106;0.01710422709584236;-0.006108652334660292;0.0036651913542300463
01:00:0A:00:00:00:00;1725840564;09/09/24;00:09:24;1.01;-0.009;0.104;0.018325956538319588;-0.01710422709584236;0.0012217304902151227
01:00:0A:00:00:00:00;1725840565;09/09/24;00:09:25;1.011;-0.01;0.105;0.01710422709584236;-0.014660765416920185;0.0036651913542300463
01:00:0A:00:00:00:00;1725840566;09/09/24;00:09:26;1.011;-0.012;0.108;0.01710422709584236;-0.010995574295520782;0.004886921960860491
01:00:0A:00:00:00:00;1725840567;09/09/24;00:09:27;1.015;-0.01;0.106;0.018325956538319588;-0.014660765416920185;0.0036651913542300463
01:00:0A:00:00:00:00;1725840568;09/09/24;00:09:28;1.016;-0.011;0.105;0.01710422709584236;-0.010995574295520782;0.0036651913542300463
01:00:0A:00:00:00:00;1725840569;09/09/24;00:09:29;1.015;-0.011;0.106;0.01710422709584236;-0.00855211354792118;0.0036651913542300463
01:00:0A:00:00:00:00;1725840570;09/09/24;00:09:30;1.014;-0.011;0.106;0.018325956538319588;-0.013439035043120384;0.0036651913542300463
01:00:0A:00:00:00:00;1725840571;09/09/24;00:09:31;1.015;-0.01;0.105;0.01710422709584236;-0.00855211354792118;0.0036651913542300463
01:00:0A:00:00:00:00;1725840572;09/09/24;00:09:32;1.013;-0.011;0.107;0.018325956538319588;-0.00855211354792118;0.0036651913542300463
01:00:0A:00:00:00:00;1725840573;09/09/24;00:09:33;1.011;-0.011;0.105;0.018325956538319588;-0.012217304669320583;0.0024434609804302454
01:00:0A:00:00:00:00;1725840574;09/09/24;00:09:34;1.012;-0.011;0.103;0.018325956538319588;-0.013439035043120384;0.0036651913542300463
01:00:0A:00:00:00:00;1725840575;09/09/24;00:09:35;1.012;-0.011;0.106;0.019547687843441963;-0.013439035043120384;0.0036651913542300463
01:00:0A:00:00:00:00;1725840576;09/09/24;00:09:36;1.013;-0.012;0.107;0.019547687843441963;-0.01710422709584236;0.004886921960860491
01:00:0A:00:00:00:00;1725840577;09/09/24;00:09:37;1.014;-0.011;0.107;0.019547687843441963;-0.012217304669320583;0.0036651913542300463
01:00:0A:00:00:00:00;1725840578;09/09/24;00:09:38;1.016;-0.01;0.108;0.02076941914856434;-0.0073303827084600925;0.0024434609804302454
01:00:0A:00:00:00:00;1725840579;09/09/24;00:09:39;1.014;-0.012;0.106;0.021991148591041565;-0.012217304669320583;0.0024434609804302454
01:00:0A:00:00:00:00;1725840580;09/09/24;00:09:40;1.011;-0.011;0.104;0.021991148591041565;-0.012217304669320583;0.0036651913542300463
01:00:0A:00:00:00:00;1725840581;09/09/24;00:09:41;1.013;-0.011;0.107;0.021991148591041565;-0.010995574295520782;0.0036651913542300463
01:00:0A:00:00:00:00;1725840582;09/09/24;00:09:42;1.015;-0.011;0.109;0.021991148591041565;-0.013439035043120384;0.004886921960860491
01:00:0A:00:00:00:00;1725840583;09/09/24;00:09:43;1.016;-0.011;0.106;0.02321287989616394;-0.00855211354792118;0.0036651913542300463
01:00:0A:00:00:00:00;1725840584;09/09/24;00:09:44;1.015;-0.01;0.106;0.02321287989616394;-0.0073303827084600925;0.0024434609804302454
01:00:0A:00:00:00:00;1725840585;09/09/24;00:09:45;1.011;-0.011;0.107;0.02321287989616394;-0.012217304669320583;0.0036651913542300463
01:00:0A:00:00:00:00;1725840586;09/09/24;00:09:46;1.008;-0.012;0.104;0.02321287989616394;-0.013439035043120384;0.004886921960860491
01:00:0A:00:00:00:00;1725840587;09/09/24;00:09:47;1.012;-0.011;0.106;0.02321287989616394;-0.013439035043120384;0.004886921960860491
01:00:0A:00:00:00:00;1725840588;09/09/24;00:09:48;1.016;-0.011;0.108;0.021991148591041565;-0.015882495790719986;0.006108652334660292
01:00:0A:00:00:00:00;1725840589;09/09/24;00:09:49;1.017;-0.011;0.107;0.02321287989616394;-0.009773843921720982;0.0036651913542300463
01:00:0A:00:00:00:00;1725840590;09/09/24;00:09:50;1.016;-0.01;0.107;0.02321287989616394;-0.006108652334660292;0.0012217304902151227
01:00:0A:00:00:00:00;1725840591;09/09/24;00:09:51;1.009;-0.012;0.106;0.021991148591041565;-0.010995574295520782;0.0036651913542300463
01:00:0A:00:00:00:00;1725840592;09/09/24;00:09:52;1.007;-0.011;0.105;0.021991148591041565;-0.014660765416920185;0.0036651913542300463
01:00:0A:00:00:00:00;1725840593;09/09/24;00:09:53;1.012;-0.011;0.106;0.02076941914856434;-0.015882495790719986;0.0036651913542300463
01:00:0A:00:00:00:00;1725840594;09/09/24;00:09:54;1.016;-0.01;0.108;0.02076941914856434;-0.014660765416920185;0.004886921960860491
01:00:0A:00:00:00:00;1725840595;09/09/24;00:09:55;1.02;-0.011;0.106;0.02076941914856434;-0.009773843921720982;0.0036651913542300463
01:00:0A:00:00:00:00;1725840596;09/09/24;00:09:56;1.015;-0.01;0.107;0.021991148591041565;-0.006108652334660292;0.0024434609804302454
01:00:0A:00:00:00:00;1725840597;09/09/24;00:09:57;1.01;-0.011;0.105;0.02076941914856434;-0.00855211354792118;0.004886921960860491
01:00:0A:00:00:00:00;1725840598;09/09/24;00:09:58;1.008;-0.012;0.105;0.02076941914856434;-0.012217304669320583;0.004886921960860491
01:00:0A:00:00:00:00;1725840599;09/09/24;00:09:59;1.01;-0.01;0.106;0.021991148591041565;-0.014660765416920185;0.0036651913542300463
01:00:0A:00:00:00:00;1725840600;09/09/24;00:10:00;1.016;-0.011;0.107;0.02076941914856434;-0.014660765416920185;0.006108652334660292
01:00:0A:00:00:00:00;1725840601;09/09/24;00:10:01;1.016;-0.011;0.108;0.021991148591041565;-0.009773843921720982;0.004886921960860491
01:00:0A:00:00:00:00;1725840602;09/09/24;00:10:02;1.014;-0.01;0.107;0.021991148591041565;-0.0073303827084600925;0.0024434609804302454
01:00:0A:00:00:00:00;1725840603;09/09/24;00:10:03;1.01;-0.011;0.105;0.021991148591041565;-0.009773843921720982;0.004886921960860491
01:00:0A:00:00:00:00;1725840604;09/09/24;00:10:04;1.01;-0.013;0.106;0.02321287989616394;-0.012217304669320583;0.0036651913542300463
01:00:0A:00:00:00:00;1725840605;09/09/24;00:10:05;1.015;-0.01;0.108;0.02321287989616394;-0.013439035043120384;0.0036651913542300463
01:00:0A:00:00:00:00;1725840606;09/09/24;00:10:06;1.016;-0.011;0.108;0.02321287989616394;-0.013439035043120384;0.004886921960860491
01:00:0A:00:00:00:00;1725840607;09/09/24;00:10:07;1.017;-0.011;0.107;0.024434609338641167;-0.00855211354792118;0.004886921960860491
01:00:0A:00:00:00:00;1725840608;09/09/24;00:10:08;1.013;-0.01;0.107;0.025656338781118393;-0.0073303827084600925;0.0036651913542300463
01:00:0A:00:00:00:00;1725840609;09/09/24;00:10:09;1.009;-0.011;0.106;0.024434609338641167;-0.009773843921720982;0.004886921960860491
01:00:0A:00:00:00:00;1725840610;09/09/24;00:10:10;1.011;-0.013;0.107;0.025656338781118393;-0.012217304669320583;0.0036651913542300463
01:00:0A:00:00:00:00;1725840611;09/09/24;00:10:11;1.015;-0.011;0.107;0.02687807008624077;-0.013439035043120384;0.0024434609804302454
01:00:0A:00:00:00:00;1725840612;09/09/24;00:10:12;1.014;-0.01;0.107;0.025656338781118393;-0.010995574295520782;0.006108652334660292
01:00:0A:00:00:00:00;1725840613;09/09/24;00:10:13;1.014;-0.011;0.106;0.02687807008624077;-0.009773843921720982;0.004886921960860491
01:00:0A:00:00:00:00;1725840614;09/09/24;00:10:14;1.015;-0.012;0.108;0.028099799528717995;-0.00855211354792118;0.0012217304902151227
01:00:0A:00:00:00:00;1725840615;09/09/24;00:10:15;1.013;-0.011;0.107;0.02687807008624077;-0.00855211354792118;0.004886921960860491
01:00:0A:00:00:00:00;1725840616;09/09/24;00:10:16;1.01;-0.012;0.106;0.02687807008624077;-0.012217304669320583;0.004886921960860491
01:00:0A:00:00:00:00;1725840617;09/09/24;00:10:17;1.012;-0.011;0.108;0.028099799528717995;-0.013439035043120384;0.0036651913542300463
01:00:0A:00:00:00:00;1725840618;09/09/24;00:10:18;1.014;-0.01;0.107;0.02687807008624077;-0.012217304669320583;0.004886921960860491
01:00:0A:00:00:00:00;1725840619;09/09/24;00:10:19;1.016;-0.011;0.107;0.02687807008624077;-0.010995574295520782;0.004886921960860491
01:00:0A:00:00:00:00;1725840620;09/09/24;00:10:20;1.015;-0.011;0.108;0.028099799528717995;-0.010995574295520782;0.0024434609804302454
01:00:0A:00:00:00:00;1725840621;09/09/24;00:10:21;1.014;-0.011;0.107;0.025656338781118393;-0.009773843921720982;0.004886921960860491
01:00:0A:00:00:00:00;1725840622;09/09/24;00:10:22;1.013;-0.011;0.107;0.025656338781118393;-0.009773843921720982;0.006108652334660292
01:00:0A:00:00:00:00;1725840623;09/09/24;00:10:23;1.013;-0.012;0.107;0.025656338781118393;-0.012217304669320583;0.0024434609804302454
01:00:0A:00:00:00:00;1725840624;09/09/24;00:10:24;1.012;-0.01;0.106;0.024434609338641167;-0.010995574295520782;0.006108652334660292
01:00:0A:00:00:00:00;1725840625;09/09/24;00:10:25;1.012;-0.012;0.108;0.024434609338641167;-0.010995574295520782;0.004886921960860491
01:00:0A:00:00:00:00;1725840626;09/09/24;00:10:26;1.014;-0.011;0.106;0.025656338781118393;-0.012217304669320583;0.0012217304902151227
01:00:0A:00:00:00:00;1725840627;09/09/24;00:10:27;1.014;-0.011;0.106;0.02321287989616394;-0.010995574295520782;0.004886921960860491
01:00:0A:00:00:00:00;1725840628;09/09/24;00:10:28;1.013;-0.011;0.107;0.02321287989616394;-0.009773843921720982;0.006108652334660292
01:00:0A:00:00:00:00;1725840629;09/09/24;00:10:29;1.012;-0.01;0.106;0.024434609338641167;-0.013439035043120384;0.0024434609804302454
01:00:0A:00:00:00:00;1725840630;09/09/24;00:10:30;1.015;-0.01;0.107;0.02321287989616394;-0.010995574295520782;0.0036651913542300463
01:00:0A:00:00:00:00;1725840631;09/09/24;00:10:31;1.013;-0.012;0.107;0.02321287989616394;-0.009773843921720982;0.004886921960860491
01:00:0A:00:00:00:00;1725840632;09/09/24;00:10:32;1.013;-0.01;0.105;0.024434609338641167;-0.010995574295520782;0.0024434609804302454
01:00:0A:00:00:00:00;1725840633;09/09/24;00:10:33;1.011;-0.011;0.105;0.02321287989616394;-0.009773843921720982;0.004886921960860491
01:00:0A:00:00:00:00;1725840634;09/09/24;00:10:34;1.013;-0.011;0.107;0.02321287989616394;-0.010995574295520782;0.004886921960860491
01:00:0A:00:00:00:00;1725840635;09/09/24;00:10:35;1.014;-0.011;0.106;0.024434609338641167;-0.012217304669320583;0.0024434609804302454
01:00:0A:00:00:00:00;1725840636;09/09/24;00:10:36;1.014;-0.011;0.106;0.02321287989616394;-0.009773843921720982;0.0036651913542300463
01:00:0A:00:00:00:00;1725840637;09/09/24;00:10:37;1.013;-0.012;0.107;0.02321287989616394;-0.00855211354792118;0.0036651913542300463
01:00:0A:00:00:00:00;1725840638;09/09/24;00:10:38;1.013;-0.012;0.107;0.024434609338641167;-0.010995574295520782;0.0036651913542300463
01:00:0A:00:00:00:00;1725840639;09/09/24;00:10:39;1.011;-0.01;0.104;0.024434609338641167;-0.012217304669320583;0.004886921960860491
01:00:0A:00:00:00:00;1725840640;09/09/24;00:10:40;1.013;-0.012;0.108;0.024434609338641167;-0.010995574295520782;0.006108652334660292
01:00:0A:00:00:00:00;1725840641;09/09/24;00:10:41;1.015;-0.012;0.107;0.025656338781118393;-0.012217304669320583;0.0024434609804302454
01:00:0A:00:00:00:00;1725840642;09/09/24;00:10:42;1.014;-0.011;0.106;0.024434609338641167;-0.00855211354792118;0.0036651913542300463
01:00:0A:00:00:00:00;1725840643;09/09/24;00:10:43;1.012;-0.012;0.107;0.024434609338641167;-0.00855211354792118;0.006108652334660292
01:00:0A:00:00:00:00;1725840644;09/09/24;00:10:44;1.011;-0.011;0.106;0.02687807008624077;-0.012217304669320583;0.0036651913542300463
01:00:0A:00:00:00:00;1725840645;09/09/24;00:10:45;1.012;-0.011;0.107;0.025656338781118393;-0.012217304669320583;0.004886921960860491
01:00:0A:00:00:00:00;1725840646;09/09/24;00:10:46;1.016;-0.012;0.109;0.025656338781118393;-0.012217304669320583;0.0036651913542300463
01:00:0A:00:00:00:00;1725840647;09/09/24;00:10:47;1.016;-0.012;0.107;0.02687807008624077;-0.010995574295520782;0.0024434609804302454
01:00:0A:00:00:00:00;1725840648;09/09/24;00:10:48;1.014;-0.01;0.105;0.02687807008624077;-0.006108652334660292;0.004886921960860491
01:00:0A:00:00:00:00;1725840649;09/09/24;00:10:49;1.011;-0.011;0.107;0.02687807008624077;-0.0073303827084600925;0.004886921960860491
01:00:0A:00:00:00:00;1725840650;09/09/24;00:10:50;1.01;-0.012;0.107;0.028099799528717995;-0.013439035043120384;0.0036651913542300463
01:00:0A:00:00:00:00;1725840651;09/09/24;00:10:51;1.011;-0.011;0.105;0.02687807008624077;-0.013439035043120384;0.004886921960860491
01:00:0A:00:00:00:00;1725840652;09/09/24;00:10:52;1.015;-0.011;0.108;0.02687807008624077;-0.010995574295520782;0.004886921960860491
01:00:0A:00:00:00:00;1725840653;09/09/24;00:10:53;1.016;-0.011;0.108;0.028099799528717995;-0.012217304669320583;0.0024434609804302454
01:00:0A:00:00:00:00;1725840654;09/09/24;00:10:54;1.015;-0.01;0.106;0.028099799528717995;-0.0073303827084600925;0.004886921960860491
01:00:0A:00:00:00:00;1725840655;09/09/24;00:10:55;1.009;-0.012;0.106;0.028099799528717995;-0.00855211354792118;0.004886921960860491
01:00:0A:00:00:00:00;1725840656;09/09/24;00:10:56;1.01;-0.011;0.106;0.028099799528717995;-0.014660765416920185;0.0036651913542300463
01:00:0A:00:00:00:00;1725840657;09/09/24;00:10:57;1.013;-0.01;0.106;0.028099799528717995;-0.013439035043120384;0.004886921960860491
01:00:0A:00:00:00:00;1725840658;09/09/24;00:10:58;1.016;-0.012;0.107;0.028099799528717995;-0.012217304669320583;0.004886921960860491
01:00:0A:00:00:00:00;1725840659;09/09/24;00:10:59;1.016;-0.011;0.108;0.028099799528717995;-0.010995574295520782;0.0036651913542300463
01:00:0A:00:00:00:00;1725840660;09/09/24;00:11:00;1.014;-0.011;0.105;0.028099799528717995;-0.00855211354792118;0.004886921960860491
01:00:0A:00:00:00:00;1725840661;09/09/24;00:11:01;1.01;-0.011;0.108;0.028099799528717995;-0.009773843921720982;0.004886921960860491
01:00:0A:00:00:00:00;1725840662;09/09/24;00:11:02;1.01;-0.012;0.106;0.02932153083384037;-0.014660765416920185;0.0036651913542300463
01:00:0A:00:00:00:00;1725840663;09/09/24;00:11:03;1.014;-0.012;0.107;0.028099799528717995;-0.012217304669320583;0.004886921960860491
01:00:0A:00:00:00:00;1725840664;09/09/24;00:11:04;1.015;-0.012;0.108;0.028099799528717995;-0.00855211354792118;0.004886921960860491
01:00:0A:00:00:00:00;1725840665;09/09/24;00:11:05;1.014;-0.009;0.106;0.02932153083384037;-0.012217304669320583;0.0036651913542300463
01:00:0A:00:00:00:00;1725840666;09/09/24;00:11:06;1.012;-0.011;0.106;0.028099799528717995;-0.009773843921720982;0.0036651913542300463
01:00:0A:00:00:00:00;1725840667;09/09/24;00:11:07;1.01;-0.011;0.107;0.028099799528717995;-0.009773843921720982;0.004886921960860491
01:00:0A:00:00:00:00;1725840668;09/09/24;00:11:08;1.01;-0.012;0.106;0.02932153083384037;-0.014660765416920185;0.0036651913542300463
01:00:0A:00:00:00:00;1725840669;09/09/24;00:11:09;1.013;-0.011;0.105;0.028099799528717995;-0.012217304669320583;0.006108652334660292
01:00:0A:00:00:00:00;1725840670;09/09/24;00:11:10;1.014;-0.012;0.108;0.02932153083384037;-0.010995574295520782;0.006108652334660292
01:00:0A:00:00:00:00;1725840671;09/09/24;00:11:11;1.015;-0.011;0.106;0.02932153083384037;-0.012217304669320583;0.004886921960860491
01:00:0A:00:00:00:00;1725840672;09/09/24;00:11:12;1.012;-0.011;0.106;0.028099799528717995;-0.009773843921720982;0.004886921960860491
01:00:0A:00:00:00:00;1725840673;09/09/24;00:11:13;1.013;-0.011;0.108;0.028099799528717995;-0.009773843921720982;0.004886921960860491
01:00:0A:00:00:00:00;1725840674;09/09/24;00:11:14;1.013;-0.011;0.107;0.02932153083384037;-0.012217304669320583;0.004886921960860491
01:00:0A:00:00:00:00;1725840675;09/09/24;00:11:15;1.012;-0.011;0.105;0.028099799528717995;-0.009773843921720982;0.004886921960860491
01:00:0A:00:00:00:00;1725840676;09/09/24;00:11:16;1.014;-0.01;0.107;0.028099799528717995;-0.00855211354792118;0.004886921960860491
01:00:0A:00:00:00:00;1725840677;09/09/24;00:11:17;1.013;-0.011;0.106;0.02932153083384037;-0.013439035043120384;0.0036651913542300463
01:00:0A:00:00:00:00;1725840678;09/09/24;00:11:18;1.013;-0.012;0.105;0.028099799528717995;-0.009773843921720982;0.004886921960860491
01:00:0A:00:00:00:00;1725840679;09/09/24;00:11:19;1.013;-0.011;0.108;0.028099799528717995;-0.00855211354792118;0.004886921960860491
01:00:0A:00:00:00:00;1725840680;09/09/24;00:11:20;1.012;-0.011;0.107;0.028099799528717995;-0.012217304669320583;0.004886921960860491
01:00:0A:00:00:00:00;1725840681;09/09/24;00:11:21;1.012;-0.011;0.106;0.028099799528717995;-0.009773843921720982;0.004886921960860491
01:00:0A:00:00:00:00;1725840682;09/09/24;00:11:22;1.013;-0.011;0.107;0.028099799528717995;-0.010995574295520782;0.004886921960860491
01:00:0A:00:00:00:00;1725840683;09/09/24;00:11:23;1.014;-0.011;0.107;0.028099799528717995;-0.013439035043120384;0.004886921960860491
01:00:0A:00:00:00:00;1725840684;09/09/24;00:11:24;1.013;-0.011;0.105;0.028099799528717995;-0.010995574295520782;0.004886921960860491
01:00:0A:00:00:00:00;1725840685;09/09/24;00:11:25;1.012;-0.011;0.108;0.028099799528717995;-0.009773843921720982;0.004886921960860491
01:00:0A:00:00:00:00;1725840686;09/09/24;00:11:26;1.013;-0.011;0.107;0.028099799528717995;-0.013439035043120384;0.004886921960860491
01:00:0A:00:00:00:00;1725840687;09/09/24;00:11:27;1.013;-0.011;0.105;0.028099799528717995;-0.009773843921720982;0.004886921960860491
01:00:0A:00:00:00:00;1725840688;09/09/24;00:11:28;1.013;-0.012;0.108;0.028099799528717995;-0.009773843921720982;0.004886921960860491
01:00:0A:00:00:00:00;1725840689;09/09/24;00:11:29;1.014;-0.012;0.107;0.028099799528717995;-0.014660765416920185;0.004886921960860491
01:00:0A:00:00:00:00;1725840690;09/09/24;00:11:30;1.014;-0.011;0.106;0.028099799528717995;-0.009773843921720982;0.004886921960860491
01:00:0A:00:00:00:00;1725840691;09/09/24;00:11:31;1.013;-0.012;0.108;0.028099799528717995;-0.00855211354792118;0.004886921960860491
01:00:0A:00:00:00:00;1725840692;09/09/24;00:11:32;1.013;-0.011;0.107;0.02932153083384037;-0.013439035043120384;0.004886921960860491
01:00:0A:00:00:00:00;1725840693;09/09/24;00:11:33;1.013;-0.011;0.105;0.028099799528717995;-0.010995574295520782;0.004886921960860491
01:00:0A:00:00:00:00;1725840694;09/09/24;00:11:34;1.014;-0.011;0.108;0.02932153083384037;-0.010995574295520782;0.004886921960860491
01:00:0A:00:00:00:00;1725840695;09/09/24;00:11:35;1.015;-0.012;0.106;0.02932153083384037;-0.012217304669320583;0.004886921960860491
01:00:0A:00:00:00:00;1725840696;09/09/24;00:11:36;1.014;-0.011;0.106;0.02932153083384037;-0.009773843921720982;0.004886921960860491
01:00:0A:00:00:00:00;1725840697;09/09/24;00:11:37;1.012;-0.011;0.108;0.028099799528717995;-0.009773843921720982;0.004886921960860491
01:00:0A:00:00:00:00;1725840698;09/09/24;00:11:38;1.013;-0.011;0.107;0.028099799528717995;-0.013439035043120384;0.004886921960860491
01:00:0A:00:00:00:00;1725840699;09/09/24;00:11:39;1.014;-0.011;0.107;0.028099799528717995;-0.009773843921720982;0.004886921960860491
01:00:0A:00:00:00:00;1725840700;09/09/24;00:11:40;1.015;-0.011;0.107;0.028099799528717995;-0.009773843921720982;0.004886921960860491
01:00:0A:00:00:00:00;1725840701;09/09/24;00:11:41;1.013;-0.011;0.107;0.028099799528717995;-0.013439035043120384;0.004886921960860491
01:00:0A:00:00:00:00;1725840702;09/09/24;00:11:42;1.013;-0.011;0.106;0.028099799528717995;-0.010995574295520782;0.004886921960860491
01:00:0A:00:00:00:00;1725840703;09/09/24;00:11:43;1.011;-0.011;0.107;0.028099799528717995;-0.009773843921720982;0.004886921960860491
01:00:0A:00:00:00:00;1725840704;09/09/24;00:11:44;1.013;-0.011;0.106;0.028099799528717995;-0.013439035043120384;0.004886921960860491
01:00:0A:00:00:00:00;1725840705;09/09/24;00:11:45;1.014;-0.011;0.105;0.028099799528717995;-0.010995574295520782;0.0036651913542300463
01:00:0A:00:00:00:00;1725840706;09/09/24;00:11:46;1.015;-0.011;0.107;0.02687807008624077;-0.009773843921720982;0.004886921960860491
01:00:0A:00:00:00:00;1725840707;09/09/24;00:11:47;1.013;-0.012;0.107;0.02687807008624077;-0.012217304669320583;0.006108652334660292
01:00:0A:00:00:00:00;1725840708;09/09/24;00:11:48;1.011;-0.01;0.105;0.02687807008624077;-0.010995574295520782;0.004886921960860491
01:00:0A:00:00:00:00;1725840709;09/09/24;00:11:49;1.013;-0.011;0.107;0.02687807008624077;-0.010995574295520782;0.0036651913542300463
01:00:0A:00:00:00:00;1725840710;09/09/24;00:11:50;1.015;-0.011;0.107;0.02687807008624077;-0.013439035043120384;0.004886921960860491
01:00:0A:00:00:00:00;1725840711;09/09/24;00:11:51;1.016;-0.011;0.107;0.02687807008624077;-0.009773843921720982;0.004886921960860491
01:00:0A:00:00:00:00;1725840712;09/09/24;00:11:52;1.014;-0.011;0.107;0.02687807008624077;-0.00855211354792118;0.004886921960860491
01:00:0A:00:00:00:00;1725840713;09/09/24;00:11:53;1.012;-0.011;0.106;0.025656338781118393;-0.013439035043120384;0.006108652334660292
01:00:0A:00:00:00:00;1725840714;09/09/24;00:11:54;1.011;-0.012;0.106;0.025656338781118393;-0.010995574295520782;0.0036651913542300463
01:00:0A:00:00:00:00;1725840715;09/09/24;00:11:55;1.012;-0.01;0.108;0.025656338781118393;-0.010995574295520782;0.0036651913542300463
01:00:0A:00:00:00:00;1725840716;09/09/24;00:11:56;1.014;-0.012;0.106;0.025656338781118393;-0.013439035043120384;0.0036651913542300463
01:00:0A:00:00:00:00;1725840717;09/09/24;00:11:57;1.015;-0.012;0.106;0.025656338781118393;-0.009773843921720982;0.0036651913542300463
01:00:0A:00:00:00:00;1725840718;09/09/24;00:11:58;1.013;-0.011;0.108;0.024434609338641167;-0.009773843921720982;0.004886921960860491
01:00:0A:00:00:00:00;1725840719;09/09/24;00:11:59;1.011;-0.01;0.107;0.024434609338641167;-0.012217304669320583;0.004886921960860491
01:00:0A:00:00:00:00;1725840720;09/09/24;00:12:00;1.012;-0.01;0.105;0.025656338781118393;-0.010995574295520782;0.0036651913542300463
01:00:0A:00:00:00:00;1725840721;09/09/24;00:12:01;1.013;-0.011;0.107;0.024434609338641167;-0.009773843921720982;0.0036651913542300463
01:00:0A:00:00:00:00;1725840722;09/09/24;00:12:02;1.015;-0.012;0.108;0.024434609338641167;-0.012217304669320583;0.0036651913542300463
01:00:0A:00:00:00:00;1725840723;09/09/24;00:12:03;1.015;-0.012;0.108;0.024434609338641167;-0.009773843921720982;0.0036651913542300463
01:00:0A:00:00:00:00;1725840724;09/09/24;00:12:04;1.012;-0.01;0.106;0.024434609338641167;-0.009773843921720982;0.004886921960860491
01:00:0A:00:00:00:00;1725840725;09/09/24;00:12:05;1.013;-0.01;0.106;0.02321287989616394;-0.013439035043120384;0.004886921960860491
01:00:0A:00:00:00:00;1725840726;09/09/24;00:12:06;1.013;-0.011;0.106;0.02321287989616394;-0.010995574295520782;0.0036651913542300463
01:00:0A:00:00:00:00;1725840727;09/09/24;00:12:07;1.013;-0.009;0.107;0.02321287989616394;-0.009773843921720982;0.0024434609804302454
01:00:0A:00:00:00:00;1725840728;09/09/24;00:12:08;1.014;-0.011;0.106;0.02321287989616394;-0.012217304669320583;0.0036651913542300463
01:00:0A:00:00:00:00;1725840729;09/09/24;00:12:09;1.014;-0.011;0.106;0.02321287989616394;-0.010995574295520782;0.0036651913542300463
01:00:0A:00:00:00:00;1725840730;09/09/24;00:12:10;1.013;-0.011;0.107;0.021991148591041565;-0.009773843921720982;0.004886921960860491
01:00:0A:00:00:00:00;1725840731;09/09/24;00:12:11;1.012;-0.011;0.106;0.021991148591041565;-0.012217304669320583;0.004886921960860491
01:00:0A:00:00:00:00;1725840732;09/09/24;00:12:12;1.012;-0.011;0.106;0.021991148591041565;-0.010995574295520782;0.0036651913542300463
01:00:0A:00:00:00:00;1725840733;09/09/24;00:12:13;1.013;-0.009;0.107;0.02076941914856434;-0.009773843921720982;0.0036651913542300463
01:00:0A:00:00:00:00;1725840734;09/09/24;00:12:14;1.014;-0.012;0.108;0.019547687843441963;-0.012217304669320583;0.0036651913542300463
01:00:0A:00:00:00:00;1725840735;09/09/24;00:12:15;1.013;-0.012;0.106;0.019547687843441963;-0.010995574295520782;0.0036651913542300463
01:00:0A:00:00:00:00;1725840736;09/09/24;00:12:16;1.013;-0.01;0.107;0.018325956538319588;-0.009773843921720982;0.004886921960860491
01:00:0A:00:00:00:00;1725840737;09/09/24;00:12:17;1.013;-0.011;0.107;0.018325956538319588;-0.013439035043120384;0.004886921960860491
01:00:0A:00:00:00:00;1725840738;09/09/24;00:12:18;1.012;-0.011;0.106;0.018325956538319588;-0.010995574295520782;0.0024434609804302454
01:00:0A:00:00:00:00;1725840739;09/09/24;00:12:19;1.012;-0.01;0.106;0.01710422709584236;-0.009773843921720982;0.0036651913542300463
01:00:0A:00:00:00:00;1725840740;09/09/24;00:12:20;1.013;-0.011;0.106;0.01710422709584236;-0.012217304669320583;0.0036651913542300463
01:00:0A:00:00:00:00;1725840741;09/09/24;00:12:21;1.012;-0.011;0.106;0.01710422709584236;-0.012217304669320583;0.0036651913542300463
01:00:0A:00:00:00:00;1725840742;09/09/24;00:12:22;1.015;-0.011;0.107;0.01710422709584236;-0.009773843921720982;0.004886921960860491
01:00:0A:00:00:00:00;1725840743;09/09/24;00:12:23;1.014;-0.011;0.107;0.01710422709584236;-0.012217304669320583;0.004886921960860491
01:00:0A:00:00:00:00;1725840744;09/09/24;00:12:24;1.013;-0.01;0.106;0.01710422709584236;-0.009773843921720982;0.0036651913542300463
01:00:0A:00:00:00:00;1725840745;09/09/24;00:12:25;1.013;-0.012;0.107;0.01710422709584236;-0.009773843921720982;0.0036651913542300463
01:00:0A:00:00:00:00;1725840746;09/09/24;00:12:26;1.013;-0.012;0.107;0.01710422709584236;-0.013439035043120384;0.004886921960860491
01:00:0A:00:00:00:00;1725840747;09/09/24;00:12:27;1.014;-0.012;0.105;0.018325956538319588;-0.010995574295520782;0.0036651913542300463
01:00:0A:00:00:00:00;1725840748;09/09/24;00:12:28;1.012;-0.011;0.107;0.018325956538319588;-0.010995574295520782;0.0036651913542300463
01:00:0A:00:00:00:00;1725840749;09/09/24;00:12:29;1.013;-0.011;0.107;0.018325956538319588;-0.012217304669320583;0.0036651913542300463
01:00:0A:00:00:00:00;1725840750;09/09/24;00:12:30;1.012;-0.011;0.105;0.018325956538319588;-0.009773843921720982;0.0024434609804302454
01:00:0A:00:00:00:00;1725840751;09/09/24;00:12:31;1.014;-0.011;0.106;0.019547687843441963;-0.009773843921720982;0.0024434609804302454
01:00:0A:00:00:00:00;1725840752;09/09/24;00:12:32;1.014;-0.012;0.107;0.019547687843441963;-0.013439035043120384;0.004886921960860491
01:00:0A:00:00:00:00;1725840753;09/09/24;00:12:33;1.014;-0.011;0.106;0.019547687843441963;-0.010995574295520782;0.0036651913542300463
01:00:0A:00:00:00:00;1725840754;09/09/24;00:12:34;1.013;-0.01;0.107;0.019547687843441963;-0.00855211354792118;0.0036651913542300463
01:00:0A:00:00:00:00;1725840755;09/09/24;00:12:35;1.013;-0.01;0.107;0.02076941914856434;-0.012217304669320583;0.0036651913542300463
01:00:0A:00:00:00:00;1725840756;09/09/24;00:12:36;1.013;-0.012;0.106;0.02076941914856434;-0.010995574295520782;0.0024434609804302454
01:00:0A:00:00:00:00;1725840757;09/09/24;00:12:37;1.013;-0.01;0.107;0.02076941914856434;-0.010995574295520782;0.0036651913542300463
01:00:0A:00:00:00:00;1725840758;09/09/24;00:12:38;1.013;-0.012;0.107;0.02076941914856434;-0.013439035043120384;0.004886921960860491
01:00:0A:00:00:00:00;1725840759;09/09/24;00:12:39;1.013;-0.011;0.107;0.02076941914856434;-0.009773843921720982;0.004886921960860491
01:00:0A:00:00:00:00;1725840760;09/09/24;00:12:40;1.013;-0.01;0.107;0.02076941914856434;-0.009773843921720982;0.004886921960860491
01:00:0A:00:00:00:00;1725840761;09/09/24;00:12:41;1.011;-0.01;0.107;0.02076941914856434;-0.013439035043120384;0.0036651913542300463
01:00:0A:00:00:00:00;1725840762;09/09/24;00:12:42;1.013;-0.011;0.106;0.021991148591041565;-0.010995574295520782;0.0024434609804302454
01:00:0A:00:00:00:00;1725840763;09/09/24;00:12:43;1.014;-0.012;0.107;0.02076941914856434;-0.009773843921720982;0.004886921960860491
01:00:0A:00:00:00:00;1725840764;09/09/24;00:12:44;1.014;-0.011;0.106;0.02076941914856434;-0.012217304669320583;0.004886921960860491
01:00:0A:00:00:00:00;1725840765;09/09/24;00:12:45;1.014;-0.011;0.106;0.021991148591041565;-0.010995574295520782;0.004886921960860491
01:00:0A:00:00:00:00;1725840766;09/09/24;00:12:46;1.012;-0.011;0.108;0.021991148591041565;-0.009773843921720982;0.004886921960860491
01:00:0A:00:00:00:00;1725840767;09/09/24;00:12:47;1.013;-0.011;0.108;0.021991148591041565;-0.012217304669320583;0.0036651913542300463
01:00:0A:00:00:00:00;1725840768;09/09/24;00:12:48;1.013;-0.01;0.105;0.021991148591041565;-0.010995574295520782;0.0024434609804302454
01:00:0A:00:00:00:00;1725840769;09/09/24;00:12:49;1.014;-0.01;0.108;0.021991148591041565;-0.009773843921720982;0.0036651913542300463
01:00:0A:00:00:00:00;1725840770;09/09/24;00:12:50;1.014;-0.012;0.107;0.021991148591041565;-0.012217304669320583;0.006108652334660292
01:00:0A:00:00:00:00;1725840771;09/09/24;00:12:51;1.013;-0.01;0.105;0.021991148591041565;-0.009773843921720982;0.004886921960860491
01:00:0A:00:00:00:00;1725840772;09/09/24;00:12:52;1.013;-0.011;0.107;0.021991148591041565;-0.009773843921720982;0.0036651913542300463
01:00:0A:00:00:00:00;1725840773;09/09/24;00:12:53;1.014;-0.011;0.107;0.021991148591041565;-0.013439035043120384;0.0024434609804302454
01:00:0A:00:00:00:00;1725840774;09/09/24;00:12:54;1.014;-0.012;0.107;0.021991148591041565;-0.012217304669320583;0.0024434609804302454
01:00:0A:00:00:00:00;1725840775;09/09/24;00:12:55;1.012;-0.012;0.108;0.021991148591041565;-0.009773843921720982;0.0036651913542300463
01:00:0A:00:00:00:00;1725840776;09/09/24;00:12:56;1.013;-0.012;0.107;0.02076941914856434;-0.012217304669320583;0.006108652334660292
01:00:0A:00:00:00:00;1725840777;09/09/24;00:12:57;1.013;-0.01;0.106;0.02076941914856434;-0.010995574295520782;0.004886921960860491
01:00:0A:00:00:00:00;1725840778;09/09/24;00:12:58;1.013;-0.01;0.107;0.02076941914856434;-0.009773843921720982;0.0036651913542300463
01:00:0A:00:00:00:00;1725840779;09/09/24;00:12:59;1.013;-0.011;0.106;0.02076941914856434;-0.012217304669320583;0.0024434609804302454
01:00:0A:00:00:00:00;1725840780;09/09/24;00:13:00;1.013;-0.011;0.106;0.02076941914856434;-0.010995574295520782;0.0024434609804302454
01:00:0A:00:00:00:00;1725840781;09/09/24;00:13:01;1.013;-0.011;0.107;0.02076941914856434;-0.009773843921720982;0.0036651913542300463
01:00:0A:00:00:00:00;1725840782;09/09/24;00:13:02;1.013;-0.012;0.106;0.02076941914856434;-0.012217304669320583;0.004886921960860491
01:00:0A:00:00:00:00;1725840783;09/09/24;00:13:03;1.012;-0.009;0.105;0.02076941914856434;-0.010995574295520782;0.004886921960860491
01:00:0A:00:00:00:00;1725840784;09/09/24;00:13:04;1.013;-0.009;0.107;0.02076941914856434;-0.010995574295520782;0.0036651913542300463
01:00:0A:00:00:00:00;1725840785;09/09/24;00:13:05;1.013;-0.01;0.107;0.02076941914856434;-0.012217304669320583;0.0036651913542300463
01:00:0A:00:00:00:00;1725840786;09/09/24;00:13:06;1.013;-0.01;0.105;0.02076941914856434;-0.010995574295520782;0.0024434609804302454
01:00:0A:00:00:00:00;1725840787;09/09/24;00:13:07;1.012;-0.01;0.107;0.02076941914856434;-0.00855211354792118;0.004886921960860491
01:00:0A:00:00:00:00;1725840788;09/09/24;00:13:08;1.012;-0.011;0.106;0.02076941914856434;-0.012217304669320583;0.004886921960860491
01:00:0A:00:00:00:00;1725840789;09/09/24;00:13:09;1.013;-0.011;0.106;0.02076941914856434;-0.012217304669320583;0.004886921960860491
01:00:0A:00:00:00:00;1725840790;09/09/24;00:13:10;1.014;-0.01;0.107;0.02076941914856434;-0.009773843921720982;0.0036651913542300463
01:00:0A:00:00:00:00;1725840791;09/09/24;00:13:11;1.014;-0.011;0.108;0.02076941914856434;-0.012217304669320583;0.0036651913542300463
01:00:0A:00:00:00:00;1725840792;09/09/24;00:13:12;1.012;-0.011;0.105;0.02076941914856434;-0.010995574295520782;0.0036651913542300463
01:00:0A:00:00:00:00;1725840793;09/09/24;00:13:13;1.011;-0.012;0.106;0.02076941914856434;-0.009773843921720982;0.0036651913542300463
01:00:0A:00:00:00:00;1725840794;09/09/24;00:13:14;1.013;-0.011;0.107;0.02076941914856434;-0.012217304669320583;0.004886921960860491
01:00:0A:00:00:00:00;1725840795;09/09/24;00:13:15;1.014;-0.011;0.105;0.02076941914856434;-0.012217304669320583;0.0036651913542300463
01:00:0A:00:00:00:00;1725840796;09/09/24;00:13:16;1.014;-0.01;0.107;0.02076941914856434;-0.009773843921720982;0.0036651913542300463
01:00:0A:00:00:00:00;1725840797;09/09/24;00:13:17;1.013;-0.011;0.106;0.02076941914856434;-0.010995574295520782;0.0036651913542300463
01:00:0A:00:00:00:00;1725840798;09/09/24;00:13:18;1.013;-0.01;0.106;0.02076941914856434;-0.010995574295520782;0.0036651913542300463
01:00:0A:00:00:00:00;1725840799;09/09/24;00:13:19;1.012;-0.011;0.107;0.02076941914856434;-0.009773843921720982;0.0036651913542300463
01:00:0A:00:00:00:00;1725840800;09/09/24;00:13:20;1.013;-0.01;0.107;0.02076941914856434;-0.010995574295520782;0.004886921960860491
01:00:0A:00:00:00:00;1725840801;09/09/24;00:13:21;1.014;-0.011;0.106;0.02076941914856434;-0.012217304669320583;0.0036651913542300463
01:00:0A:00:00:00:00;1725840802;09/09/24;00:13:22;1.014;-0.012;0.108;0.02076941914856434;-0.009773843921720982;0.0036651913542300463
01:00:0A:00:00:00:00;1725840803;09/09/24;00:13:23;1.013;-0.011;0.107;0.02076941914856434;-0.010995574295520782;0.0036651913542300463
01:00:0A:00:00:00:00;1725840804;09/09/24;00:13:24;1.011;-0.011;0.107;0.02076941914856434;-0.010995574295520782;0.0036651913542300463
01:00:0A:00:00:00:00;1725840805;09/09/24;00:13:25;1.014;-0.011;0.107;0.02076941914856434;-0.010995574295520782;0.0036651913542300463
01:00:0A:00:00:00:00;1725840806;09/09/24;00:13:26;1.015;-0.01;0.107;0.02076941914856434;-0.010995574295520782;0.0036651913542300463
01:00:0A:00:00:00:00;1725840807;09/09/24;00:13:27;1.014;-0.01;0.106;0.02076941914856434;-0.010995574295520782;0.004886921960860491
01:00:0A:00:00:00:00;1725840808;09/09/24;00:13:28;1.013;-0.011;0.107;0.02076941914856434;-0.010995574295520782;0.0036651913542300463
01:00:0A:00:00:00:00;1725840809;09/09/24;00:13:29;1.013;-0.011;0.106;0.02076941914856434;-0.010995574295520782;0.004886921960860491
01:00:0A:00:00:00:00;1725840810;09/09/24;00:13:30;1.014;-0.011;0.106;0.02076941914856434;-0.012217304669320583;0.0036651913542300463
01:00:0A:00:00:00:00;1725840811;09/09/24;00:13:31;1.014;-0.011;0.106;0.02076941914856434;-0.010995574295520782;0.0036651913542300463
01:00:0A:00:00:00:00;1725840812;09/09/24;00:13:32;1.014;-0.01;0.107;0.02076941914856434;-0.010995574295520782;0.0036651913542300463
01:00:0A:00:00:00:00;1725840813;09/09/24;00:13:33;1.014;-0.011;0.106;0.02076941914856434;-0.010995574295520782;0.004886921960860491
01:00:0A:00:00:00:00;1725840814;09/09/24;00:13:34;1.012;0.0;0.104;0.051312677562236786;-0.015882495790719986;-0.014660765416920185
01:00:0A:00:00:00:00;1725840815;09/09/24;00:13:35;1.013;0.004;0.1;0.12828169763088226;-0.013439035043120384;0.00855211354792118
01:00:0A:00:00:00:00;1725840816;09/09/24;00:13:36;1.013;0.0;0.102;0.17348572611808777;-0.0036651913542300463;0.02321287989616394
01:00:0A:00:00:00:00;1725840817;09/09/24;00:13:37;1.013;-0.007;0.109;0.17348572611808777;-0.0024434609804302454;0.02687807008624077
01:00:0A:00:00:00:00;1725840818;09/09/24;00:13:38;1.014;-0.015;0.109;0.16371189057826996;-0.015882495790719986;0.018325956538319588
01:00:0A:00:00:00:00;1725840819;09/09/24;00:13:39;1.013;-0.011;0.103;0.16371189057826996;-0.010995574295520782;0.0073303827084600925
01:00:0A:00:00:00:00;1725840820;09/09/24;00:13:40;1.013;-0.007;0.107;0.1514945775270462;-0.0012217304902151227;0.019547687843441963
01:00:0A:00:00:00:00;1725840821;09/09/24;00:13:41;1.012;-0.013;0.109;0.14782939851284027;-0.015882495790719986;0.019547687843441963
01:00:0A:00:00:00:00;1725840822;09/09/24;00:13:42;1.012;-0.01;0.103;0.15027284622192383;-0.014660765416920185;0.00855211354792118
01:00:0A:00:00:00:00;1725840823;09/09/24;00:13:43;1.013;-0.007;0.107;0.1417207270860672;-0.004886921960860491;0.014660765416920185
01:00:0A:00:00:00:00;1725840824;09/09/24;00:13:44;1.015;-0.011;0.111;0.1368338167667389;-0.013439035043120384;0.01710422709584236
01:00:0A:00:00:00:00;1725840825;09/09/24;00:13:45;1.015;-0.012;0.104;0.13805554807186127;-0.013439035043120384;0.009773843921720982
01:00:0A:00:00:00:00;1725840826;09/09/24;00:13:46;1.013;-0.009;0.106;0.13316862285137177;-0.0036651913542300463;0.010995574295520782
01:00:0A:00:00:00:00;1725840827;09/09/24;00:13:47;1.013;-0.011;0.109;0.1258382350206375;-0.012217304669320583;0.01710422709584236
01:00:0A:00:00:00:00;1725840828;09/09/24;00:13:48;1.012;-0.013;0.105;0.1270599663257599;-0.014660765416920185;0.010995574295520782
01:00:0A:00:00:00:00;1725840829;09/09/24;00:13:49;1.015;-0.01;0.106;0.12217304855585098;-0.006108652334660292;0.009773843921720982
01:00:0A:00:00:00:00;1725840830;09/09/24;00:13:50;1.015;-0.01;0.109;0.11728612333536148;-0.010995574295520782;0.015882495790719986
01:00:0A:00:00:00:00;1725840831;09/09/24;00:13:51;1.013;-0.013;0.106;0.1160643920302391;-0.013439035043120384;0.009773843921720982
01:00:0A:00:00:00:00;1725840832;09/09/24;00:13:52;1.013;-0.009;0.106;0.11484266817569733;-0.0073303827084600925;0.00855211354792118
01:00:0A:00:00:00:00;1725840833;09/09/24;00:13:53;1.012;-0.011;0.108;0.10873401165008545;-0.009773843921720982;0.014660765416920185
01:00:0A:00:00:00:00;1725840834;09/09/24;00:13:54;1.013;-0.012;0.106;0.10751228034496307;-0.014660765416920185;0.010995574295520782
01:00:0A:00:00:00:00;1725840835;09/09/24;00:13:55;1.013;-0.009;0.106;0.1062905490398407;-0.009773843921720982;0.00855211354792118
01:00:0A:00:00:00:00;1725840836;09/09/24;00:13:56;1.013;-0.009;0.108;0.1014036238193512;-0.009773843921720982;0.013439035043120384
01:00:0A:00:00:00:00;1725840837;09/09/24;00:13:57;1.014;-0.013;0.107;0.10018189996480942;-0.012217304669320583;0.010995574295520782
01:00:0A:00:00:00:00;1725840838;09/09/24;00:13:58;1.014;-0.01;0.105;0.09896016865968704;-0.00855211354792118;0.00855211354792118
01:00:0A:00:00:00:00;1725840839;09/09/24;00:13:59;1.012;-0.009;0.107;0.09407324343919754;-0.009773843921720982;0.010995574295520782
01:00:0A:00:00:00:00;1725840840;09/09/24;00:14:00;1.012;-0.012;0.107;0.09285151958465576;-0.013439035043120384;0.010995574295520782
01:00:0A:00:00:00:00;1725840841;09/09/24;00:14:01;1.013;-0.01;0.106;0.09162978082895279;-0.010995574295520782;0.00855211354792118
01:00:0A:00:00:00:00;1725840842;09/09/24;00:14:02;1.014;-0.01;0.108;0.08796459436416626;-0.009773843921720982;0.010995574295520782
01:00:0A:00:00:00:00;1725840843;09/09/24;00:14:03;1.013;-0.012;0.106;0.08674286305904388;-0.012217304669320583;0.010995574295520782
01:00:0A:00:00:00:00;1725840844;09/09/24;00:14:04;1.013;-0.01;0.107;0.08674286305904388;-0.010995574295520782;0.0073303827084600925
01:00:0A:00:00:00:00;1725840845;09/09/24;00:14:05;1.012;-0.009;0.107;0.08307767659425735;-0.009773843921720982;0.009773843921720982
01:00:0A:00:00:00:00;1725840846;09/09/24;00:14:06;1.013;-0.012;0.106;0.08185594528913498;-0.012217304669320583;0.010995574295520782
01:00:0A:00:00:00:00;1725840847;09/09/24;00:14:07;1.013;-0.01;0.106;0.080634206533432;-0.010995574295520782;0.00855211354792118
01:00:0A:00:00:00:00;1725840848;09/09/24;00:14:08;1.014;-0.01;0.106;0.07819075137376785;-0.009773843921720982;0.00855211354792118
01:00:0A:00:00:00:00;1725840849;09/09/24;00:14:09;1.014;-0.011;0.106;0.07696902006864548;-0.010995574295520782;0.00855211354792118
01:00:0A:00:00:00:00;1725840850;09/09/24;00:14:10;1.013;-0.01;0.106;0.0757472887635231;-0.010995574295520782;0.0073303827084600925
01:00:0A:00:00:00:00;1725840851;09/09/24;00:14:11;1.013;-0.011;0.107;0.07330382615327835;-0.009773843921720982;0.00855211354792118
01:00:0A:00:00:00:00;1725840852;09/09/24;00:14:12;1.013;-0.011;0.107;0.07208210229873657;-0.012217304669320583;0.00855211354792118
01:00:0A:00:00:00:00;1725840853;09/09/24;00:14:13;1.014;-0.011;0.106;0.0708603635430336;-0.010995574295520782;0.0073303827084600925
01:00:0A:00:00:00:00;1725840854;09/09/24;00:14:14;1.014;-0.01;0.106;0.06963863223791122;-0.010995574295520782;0.00855211354792118
01:00:0A:00:00:00:00;1725840855;09/09/24;00:14:15;1.014;-0.01;0.107;0.06719517707824707;-0.010995574295520782;0.00855211354792118
01:00:0A:00:00:00:00;1725840856;09/09/24;00:14:16;1.013;-0.012;0.106;0.06719517707824707;-0.012217304669320583;0.0073303827084600925
01:00:0A:00:00:00:00;1725840857;09/09/24;00:14:17;1.013;-0.01;0.107;0.0659734457731247;-0.009773843921720982;0.0073303827084600925
01:00:0A:00:00:00:00;1725840858;09/09/24;00:14:18;1.013;-0.011;0.107;0.06352998316287994;-0.009773843921720982;0.00855211354792118
01:00:0A:00:00:00:00;1725840859;09/09/24;00:14:19;1.013;-0.01;0.106;0.06230825558304787;-0.010995574295520782;0.0073303827084600925
01:00:0A:00:00:00:00;1725840860;09/09/24;00:14:20;1.014;-0.01;0.107;0.06230825558304787;-0.009773843921720982;0.0073303827084600925
01:00:0A:00:00:00:00;1725840861;09/09/24;00:14:21;1.013;-0.01;0.106;0.059864792972803116;-0.012217304669320583;0.00855211354792118
01:00:0A:00:00:00:00;1725840862;09/09/24;00:14:22;1.014;-0.011;0.106;0.059864792972803116;-0.010995574295520782;0.0073303827084600925
01:00:0A:00:00:00:00;1725840863;09/09/24;00:14:23;1.014;-0.011;0.107;0.05742133408784866;-0.010995574295520782;0.0073303827084600925
01:00:0A:00:00:00:00;1725840864;09/09/24;00:14:24;1.013;-0.01;0.106;0.05619959905743599;-0.010995574295520782;0.0073303827084600925
01:00:0A:00:00:00:00;1725840865;09/09/24;00:14:25;1.014;-0.011;0.106;0.05497787147760391;-0.010995574295520782;0.0073303827084600925
01:00:0A:00:00:00:00;1725840866;09/09/24;00:14:26;1.013;-0.01;0.106;0.05497787147760391;-0.010995574295520782;0.006108652334660292
01:00:0A:00:00:00:00;1725840867;09/09/24;00:14:27;1.013;-0.01;0.106;0.05375614017248154;-0.010995574295520782;0.0073303827084600925
01:00:0A:00:00:00:00;1725840868;09/09/24;00:14:28;1.012;-0.011;0.106;0.05253440886735916;-0.009773843921720982;0.0073303827084600925
01:00:0A:00:00:00:00;1725840869;09/09/24;00:14:29;1.013;-0.011;0.107;0.05253440886735916;-0.012217304669320583;0.004886921960860491
01:00:0A:00:00:00:00;1725840870;09/09/24;00:14:30;1.013;-0.01;0.106;0.051312677562236786;-0.009773843921720982;0.0073303827084600925
01:00:0A:00:00:00:00;1725840871;09/09/24;00:14:31;1.013;-0.01;0.106;0.05009094998240471;-0.010995574295520782;0.006108652334660292
01:00:0A:00:00:00:00;1725840872;09/09/24;00:14:32;1.013;-0.01;0.106;0.04886921867728233;-0.013439035043120384;0.006108652334660292
01:00:0A:00:00:00:00;1725840873;09/09/24;00:14:33;1.012;-0.011;0.106;0.04764748737215996;-0.010995574295520782;0.0073303827084600925
01:00:0A:00:00:00:00;1725840874;09/09/24;00:14:34;1.013;-0.011;0.107;0.04764748737215996;-0.009773843921720982;0.006108652334660292
01:00:0A:00:00:00:00;1725840875;09/09/24;00:14:35;1.013;-0.01;0.106;0.04764748737215996;-0.010995574295520782;0.004886921960860491
01:00:0A:00:00:00:00;1725840876;09/09/24;00:14:36;1.014;-0.012;0.106;0.04642575979232788;-0.010995574295520782;0.006108652334660292
01:00:0A:00:00:00:00;1725840877;09/09/24;00:14:37;1.012;-0.012;0.106;0.045204028487205505;-0.009773843921720982;0.006108652334660292
01:00:0A:00:00:00:00;1725840878;09/09/24;00:14:38;1.013;-0.011;0.106;0.045204028487205505;-0.012217304669320583;0.0073303827084600925
01:00:0A:00:00:00:00;1725840879;09/09/24;00:14:39;1.012;-0.01;0.106;0.04398229718208313;-0.010995574295520782;0.0073303827084600925
01:00:0A:00:00:00:00;1725840880;09/09/24;00:14:40;1.013;-0.011;0.107;0.04398229718208313;-0.009773843921720982;0.006108652334660292
01:00:0A:00:00:00:00;1725840881;09/09/24;00:14:41;1.012;-0.01;0.107;0.04398229718208313;-0.013439035043120384;0.004886921960860491
01:00:0A:00:00:00:00;1725840882;09/09/24;00:14:42;1.013;-0.012;0.106;0.042760565876960754;-0.010995574295520782;0.006108652334660292
01:00:0A:00:00:00:00;1725840883;09/09/24;00:14:43;1.013;-0.011;0.107;0.042760565876960754;-0.009773843921720982;0.006108652334660292
01:00:0A:00:00:00:00;1725840884;09/09/24;00:14:44;1.014;-0.011;0.107;0.042760565876960754;-0.012217304669320583;0.006108652334660292
01:00:0A:00:00:00:00;1725840885;09/09/24;00:14:45;1.012;-0.012;0.106;0.04153883829712868;-0.010995574295520782;0.006108652334660292
01:00:0A:00:00:00:00;1725840886;09/09/24;00:14:46;1.013;-0.011;0.108;0.04153883829712868;-0.009773843921720982;0.004886921960860491
01:00:0A:00:00:00:00;1725840887;09/09/24;00:14:47;1.012;-0.011;0.106;0.04153883829712868;-0.012217304669320583;0.004886921960860491
01:00:0A:00:00:00:00;1725840888;09/09/24;00:14:48;1.012;-0.012;0.105;0.04153883829712868;-0.012217304669320583;0.004886921960860491
01:00:0A:00:00:00:00;1725840889;09/09/24;00:14:49;1.013;-0.011;0.108;0.040317103266716;-0.00855211354792118;0.006108652334660292
01:00:0A:00:00:00:00;1725840890;09/09/24;00:14:50;1.013;-0.011;0.107;0.040317103266716;-0.012217304669320583;0.006108652334660292
01:00:0A:00:00:00:00;1725840891;09/09/24;00:14:51;1.013;-0.011;0.105;0.040317103266716;-0.010995574295520782;0.006108652334660292
01:00:0A:00:00:00:00;1725840892;09/09/24;00:14:52;1.013;-0.011;0.107;0.040317103266716;-0.009773843921720982;0.004886921960860491
01:00:0A:00:00:00:00;1725840893;09/09/24;00:14:53;1.013;-0.01;0.107;0.039095375686883926;-0.013439035043120384;0.004886921960860491
01:00:0A:00:00:00:00;1725840894;09/09/24;00:14:54;1.013;-0.01;0.106;0.039095375686883926;-0.009773843921720982;0.004886921960860491
01:00:0A:00:00:00:00;1725840895;09/09/24;00:14:55;1.014;-0.011;0.107;0.03787364438176155;-0.009773843921720982;0.006108652334660292
01:00:0A:00:00:00:00;1725840896;09/09/24;00:14:56;1.013;-0.011;0.107;0.03787364438176155;-0.012217304669320583;0.0073303827084600925
01:00:0A:00:00:00:00;1725840897;09/09/24;00:14:57;1.014;-0.012;0.105;0.036651913076639175;-0.010995574295520782;0.004886921960860491
01:00:0A:00:00:00:00;1725840898;09/09/24;00:14:58;1.013;-0.011;0.108;0.036651913076639175;-0.009773843921720982;0.004886921960860491
01:00:0A:00:00:00:00;1725840899;09/09/24;00:14:59;1.014;-0.012;0.107;0.0354301817715168;-0.013439035043120384;0.004886921960860491
01:00:0A:00:00:00:00;1725840900;09/09/24;00:15:00;1.014;-0.012;0.105;0.0354301817715168;-0.010995574295520782;0.004886921960860491
01:00:0A:00:00:00:00;1725840901;09/09/24;00:15:01;1.013;-0.011;0.109;0.0354301817715168;-0.00855211354792118;0.004886921960860491
01:00:0A:00:00:00:00;1725840902;09/09/24;00:15:02;1.014;-0.011;0.107;0.03420845419168472;-0.012217304669320583;0.0073303827084600925
01:00:0A:00:00:00:00;1725840903;09/09/24;00:15:03;1.014;-0.012;0.106;0.03420845419168472;-0.009773843921720982;0.004886921960860491
01:00:0A:00:00:00:00;1725840904;09/09/24;00:15:04;1.012;-0.011;0.107;0.03420845419168472;-0.009773843921720982;0.0036651913542300463
01:00:0A:00:00:00:00;1725840905;09/09/24;00:15:05;1.013;-0.011;0.107;0.03298672288656235;-0.013439035043120384;0.006108652334660292
01:00:0A:00:00:00:00;1725840906;09/09/24;00:15:06;1.014;-0.013;0.105;0.03298672288656235;-0.009773843921720982;0.004886921960860491
01:00:0A:00:00:00:00;1725840907;09/09/24;00:15:07;1.013;-0.011;0.108;0.03298672288656235;-0.00855211354792118;0.004886921960860491
01:00:0A:00:00:00:00;1725840908;09/09/24;00:15:08;1.013;-0.011;0.107;0.03176499158143997;-0.012217304669320583;0.006108652334660292
01:00:0A:00:00:00:00;1725840909;09/09/24;00:15:09;1.012;-0.012;0.106;0.03176499158143997;-0.010995574295520782;0.004886921960860491
01:00:0A:00:00:00:00;1725840910;09/09/24;00:15:10;1.012;-0.01;0.108;0.03176499158143997;-0.009773843921720982;0.0024434609804302454
01:00:0A:00:00:00:00;1725840911;09/09/24;00:15:11;1.013;-0.011;0.107;0.030543262138962746;-0.013439035043120384;0.006108652334660292
01:00:0A:00:00:00:00;1725840912;09/09/24;00:15:12;1.013;-0.011;0.105;0.030543262138962746;-0.010995574295520782;0.004886921960860491
01:00:0A:00:00:00:00;1725840913;09/09/24;00:15:13;1.014;-0.011;0.107;0.030543262138962746;-0.00855211354792118;0.0036651913542300463
01:00:0A:00:00:00:00;1725840914;09/09/24;00:15:14;1.013;-0.01;0.107;0.02932153083384037;-0.013439035043120384;0.006108652334660292
01:00:0A:00:00:00:00;1725840915;09/09/24;00:15:15;1.012;-0.011;0.106;0.030543262138962746;-0.010995574295520782;0.004886921960860491
01:00:0A:00:00:00:00;1725840916;09/09/24;00:15:16;1.014;-0.009;0.108;0.030543262138962746;-0.009773843921720982;0.0024434609804302454
01:00:0A:00:00:00:00;1725840917;09/09/24;00:15:17;1.014;-0.011;0.107;0.028099799528717995;-0.013439035043120384;0.006108652334660292
01:00:0A:00:00:00:00;1725840918;09/09/24;00:15:18;1.014;-0.012;0.106;0.02932153083384037;-0.010995574295520782;0.004886921960860491
01:00:0A:00:00:00:00;1725840919;09/09/24;00:15:19;1.013;-0.01;0.108;0.02932153083384037;-0.00855211354792118;0.0036651913542300463
01:00:0A:00:00:00:00;1725840920;09/09/24;00:15:20;1.013;-0.011;0.107;0.02687807008624077;-0.012217304669320583;0.006108652334660292
01:00:0A:00:00:00:00;1725840921;09/09/24;00:15:21;1.014;-0.011;0.105;0.028099799528717995;-0.012217304669320583;0.004886921960860491
01:00:0A:00:00:00:00;1725840922;09/09/24;00:15:22;1.013;-0.01;0.107;0.028099799528717995;-0.009773843921720982;0.0024434609804302454
01:00:0A:00:00:00:00;1725840923;09/09/24;00:15:23;1.014;-0.011;0.107;0.025656338781118393;-0.012217304669320583;0.006108652334660292
01:00:0A:00:00:00:00;1725840924;09/09/24;00:15:24;1.015;-0.012;0.107;0.02687807008624077;-0.010995574295520782;0.004886921960860491
01:00:0A:00:00:00:00;1725840925;09/09/24;00:15:25;1.013;-0.011;0.107;0.02687807008624077;-0.00855211354792118;0.0024434609804302454
01:00:0A:00:00:00:00;1725840926;09/09/24;00:15:26;1.013;-0.011;0.107;0.024434609338641167;-0.012217304669320583;0.006108652334660292
