Source;Epoch timestamp (UTC);Date;Time (UTC);Accel X (G);Accel Y (G);Accel Z (G);Gyro X (rad/s);Gyro Y (rad/s);Gyro Z (rad/s)
01:00:0A:00:00:00:00;1727049598;22/09/24;23:59:58;1.008;0.001;0.16;-0.018325956538319588;-0.00855211354792118;0.0
01:00:0A:00:00:00:00;1727049599;22/09/24;23:59:59;1.008;0.0;0.16;-0.019547687843441963;-0.015882495790719986;0.0012217304902151227
01:00:0A:00:00:00:00;1727049600;23/09/24;00:00:00;1.009;0.0;0.156;-0.019547687843441963;-0.010995574295520782;0.0
01:00:0A:00:00:00:00;1727049601;23/09/24;00:00:01;1.009;0.001;0.16;-0.019547687843441963;-0.0073303827084600925;0.0
01:00:0A:00:00:00:00;1727049602;23/09/24;00:00:02;1.008;0.001;0.16;-0.019547687843441963;-0.014660765416920185;0.0
01:00:0A:00:00:00:00;1727049603;23/09/24;00:00:03;1.008;0.001;0.157;-0.019547687843441963;-0.012217304669320583;-0.0012217304902151227
01:00:0A:00:00:00:00;1727049604;23/09/24;00:00:04;1.008;0.001;0.161;-0.019547687843441963;-0.00855211354792118;0.0012217304902151227
01:00:0A:00:00:00:00;1727049605;23/09/24;00:00:05;1.007;0.001;0.161;-0.02076941914856434;-0.014660765416920185;0.0
01:00:0A:00:00:00:00;1727049606;23/09/24;00:00:06;1.009;0.002;0.157;-0.019547687843441963;-0.010995574295520782;0.0
01:00:0A:00:00:00:00;1727049607;23/09/24;00:00:07;1.008;0.001;0.16;-0.02076941914856434;-0.0073303827084600925;0.0
01:00:0A:00:00:00:00;1727049608;23/09/24;00:00:08;1.008;0.001;0.16;-0.02076941914856434;-0.014660765416920185;-0.0012217304902151227
01:00:0A:00:00:00:00;1727049609;23/09/24;00:00:09;1.008;0.002;0.158;-0.02076941914856434;-0.012217304669320583;0.0
01:00:0A:00:00:00:00;1727049610;23/09/24;00:00:10;1.008;0.002;0.161;-0.02076941914856434;-0.00855211354792118;0.0012217304902151227
01:00:0A:00:00:00:00;1727049611;23/09/24;00:00:11;1.008;0.0;0.161;-0.02076941914856434;-0.014660765416920185;0.0
01:00:0A:00:00:00:00;1727049612;23/09/24;00:00:12;1.008;0.001;0.158;-0.02076941914856434;-0.012217304669320583;-0.0012217304902151227
01:00:0A:00:00:00:00;1727049613;23/09/24;00:00:13;1.007;0.001;0.159;-0.02076941914856434;-0.00855211354792118;0.0012217304902151227
01:00:0A:00:00:00:00;1727049614;23/09/24;00:00:14;1.008;0.001;0.161;-0.02076941914856434;-0.014660765416920185;0.0
01:00:0A:00:00:00:00;1727049615;23/09/24;00:00:15;1.009;0.002;0.158;-0.02076941914856434;-0.012217304669320583;-0.0012217304902151227
01:00:0A:00:00:00:00;1727049616;23/09/24;00:00:16;1.008;0.002;0.161;-0.021991148591041565;-0.00855211354792118;0.0012217304902151227
01:00:0A:00:00:00:00;1727049617;23/09/24;00:00:17;1.008;0.0;0.16;-0.02076941914856434;-0.013439035043120384;-0.0012217304902151227
01:00:0A:00:00:00:00;1727049618;23/09/24;00:00:18;1.009;0.001;0.158;-0.02076941914856434;-0.012217304669320583;-0.0012217304902151227
01:00:0A:00:00:00:00;1727049619;23/09/24;00:00:19;1.008;0.002;0.159;-0.021991148591041565;-0.00855211354792118;0.0012217304902151227
01:00:0A:00:00:00:00;1727049620;23/09/24;00:00:20;1.008;0.001;0.16;-0.021991148591041565;-0.013439035043120384;0.0
01:00:0A:00:00:00:00;1727049621;23/09/24;00:00:21;1.009;0.002;0.158;-0.02076941914856434;-0.012217304669320583;-0.0012217304902151227
01:00:0A:00:00:00:00;1727049622;23/09/24;00:00:22;1.009;0.001;0.159;-0.021991148591041565;-0.00855211354792118;0.0012217304902151227
01:00:0A:00:00:00:00;1727049623;23/09/24;00:00:23;1.008;0.001;0.161;-0.021991148591041565;-0.012217304669320583;-0.0012217304902151227
01:00:0A:00:00:00:00;1727049624;23/09/24;00:00:24;1.009;0.002;0.159;-0.02076941914856434;-0.012217304669320583;-0.0024434609804302454
01:00:0A:00:00:00:00;1727049625;23/09/24;00:00:25;1.008;0.001;0.16;-0.021991148591041565;-0.00855211354792118;0.0012217304902151227
01:00:0A:00:00:00:00;1727049626;23/09/24;00:00:26;1.007;0.0;0.161;-0.021991148591041565;-0.012217304669320583;0.0
01:00:0A:00:00:00:00;1727049627;23/09/24;00:00:27;1.009;0.001;0.159;-0.02076941914856434;-0.013439035043120384;-0.0012217304902151227
01:00:0A:00:00:00:00;1727049628;23/09/24;00:00:28;1.008;0.002;0.159;-0.021991148591041565;-0.00855211354792118;0.0012217304902151227
01:00:0A:00:00:00:00;1727049629;23/09/24;00:00:29;1.007;0.0;0.161;-0.021991148591041565;-0.012217304669320583;-0.0012217304902151227
01:00:0A:00:00:00:00;1727049630;23/09/24;00:00:30;1.008;0.001;0.159;-0.021991148591041565;-0.012217304669320583;-0.0024434609804302454
01:00:0A:00:00:00:00;1727049631;23/09/24;00:00:31;1.008;0.001;0.161;-0.021991148591041565;-0.009773843921720982;0.0024434609804302454
01:00:0A:00:00:00:00;1727049632;23/09/24;00:00:32;1.007;0.001;0.16;-0.021991148591041565;-0.012217304669320583;0.0
01:00:0A:00:00:00:00;1727049633;23/09/24;00:00:33;1.008;0.0;0.159;-0.021991148591041565;-0.013439035043120384;-0.0012217304902151227
01:00:0A:00:00:00:00;1727049634;23/09/24;00:00:34;1.009;0.002;0.16;-0.02321287989616394;-0.009773843921720982;0.0012217304902151227
01:00:0A:00:00:00:00;1727049635;23/09/24;00:00:35;1.008;0.0;0.161;-0.021991148591041565;-0.010995574295520782;0.0
01:00:0A:00:00:00:00;1727049636;23/09/24;00:00:36;1.008;0.001;0.158;-0.021991148591041565;-0.012217304669320583;-0.0024434609804302454
01:00:0A:00:00:00:00;1727049637;23/09/24;00:00:37;1.008;0.001;0.16;-0.02321287989616394;-0.009773843921720982;0.0012217304902151227
01:00:0A:00:00:00:00;1727049638;23/09/24;00:00:38;1.008;0.0;0.16;-0.02321287989616394;-0.012217304669320583;0.0
01:00:0A:00:00:00:00;1727049639;23/09/24;00:00:39;1.009;0.001;0.159;-0.021991148591041565;-0.012217304669320583;-0.0024434609804302454
01:00:0A:00:00:00:00;1727049640;23/09/24;00:00:40;1.007;0.002;0.159;-0.02321287989616394;-0.009773843921720982;0.0012217304902151227
01:00:0A:00:00:00:00;1727049641;23/09/24;00:00:41;1.009;0.0;0.16;-0.02321287989616394;-0.010995574295520782;0.0
01:00:0A:00:00:00:00;1727049642;23/09/24;00:00:42;1.007;0.001;0.159;-0.02321287989616394;-0.010995574295520782;-0.0024434609804302454
01:00:0A:00:00:00:00;1727049643;23/09/24;00:00:43;1.008;0.002;0.159;-0.02321287989616394;-0.010995574295520782;0.0012217304902151227
01:00:0A:00:00:00:00;1727049644;23/09/24;00:00:44;1.008;0.001;0.159;-0.024434609338641167;-0.012217304669320583;0.0012217304902151227
01:00:0A:00:00:00:00;1727049645;23/09/24;00:00:45;1.009;0.001;0.16;-0.02321287989616394;-0.012217304669320583;-0.0024434609804302454
01:00:0A:00:00:00:00;1727049646;23/09/24;00:00:46;1.008;0.002;0.16;-0.024434609338641167;-0.010995574295520782;0.0
01:00:0A:00:00:00:00;1727049647;23/09/24;00:00:47;1.008;0.0;0.16;-0.024434609338641167;-0.010995574295520782;0.0012217304902151227
01:00:0A:00:00:00:00;1727049648;23/09/24;00:00:48;1.009;0.001;0.159;-0.02321287989616394;-0.010995574295520782;-0.0024434609804302454
01:00:0A:00:00:00:00;1727049649;23/09/24;00:00:49;1.009;0.001;0.158;-0.024434609338641167;-0.010995574295520782;0.0012217304902151227
01:00:0A:00:00:00:00;1727049650;23/09/24;00:00:50;1.009;0.0;0.16;-0.024434609338641167;-0.013439035043120384;0.0012217304902151227
01:00:0A:00:00:00:00;1727049651;23/09/24;00:00:51;1.007;0.001;0.16;-0.02321287989616394;-0.012217304669320583;-0.0024434609804302454
01:00:0A:00:00:00:00;1727049652;23/09/24;00:00:52;1.008;0.002;0.159;-0.024434609338641167;-0.010995574295520782;0.0
01:00:0A:00:00:00:00;1727049653;23/09/24;00:00:53;1.008;0.0;0.16;-0.024434609338641167;-0.010995574295520782;0.0012217304902151227
01:00:0A:00:00:00:00;1727049654;23/09/24;00:00:54;1.008;0.001;0.159;-0.02321287989616394;-0.010995574295520782;-0.0024434609804302454
01:00:0A:00:00:00:00;1727049655;23/09/24;00:00:55;1.008;0.002;0.159;-0.024434609338641167;-0.010995574295520782;0.0
01:00:0A:00:00:00:00;1727049656;23/09/24;00:00:56;1.009;0.0;0.159;-0.024434609338641167;-0.012217304669320583;0.0024434609804302454
01:00:0A:00:00:00:00;1727049657;23/09/24;00:00:57;1.006;0.002;0.158;-0.024434609338641167;-0.009773843921720982;0.0024434609804302454
01:00:0A:00:00:00:00;1727049658;23/09/24;00:00:58;1.008;0.011;0.158;-0.024434609338641167;-0.019547687843441963;-0.0036651913542300463
01:00:0A:00:00:00:00;1727049659;23/09/24;00:00:59;1.012;0.005;0.16;-0.02076941914856434;-0.018325956538319588;-0.02321287989616394
01:00:0A:00:00:00:00;1727049660;23/09/24;00:01:00;1.016;-0.004;0.162;-0.01710422709584236;-0.01710422709584236;-0.030543262138962746
01:00:0A:00:00:00:00;1727049661;23/09/24;00:01:01;1.019;-0.01;0.156;-0.02076941914856434;-0.0012217304902151227;0.0012217304902151227
01:00:0A:00:00:00:00;1727049662;23/09/24;00:01:02;1.008;-0.009;0.154;-0.024434609338641167;0.025656338781118393;0.0354301817715168
01:00:0A:00:00:00:00;1727049663;23/09/24;00:01:03;0.995;-0.005;0.15;-0.021991148591041565;0.00855211354792118;0.03176499158143997
01:00:0A:00:00:00:00;1727049664;23/09/24;00:01:04;0.983;0.017;0.143;-0.013439035043120384;-0.06963863223791122;-0.009773843921720982
01:00:0A:00:00:00:00;1727049665;23/09/24;00:01:05;0.986;0.019;0.15;-0.018325956538319588;-0.04398229718208313;0.0073303827084600925
01:00:0A:00:00:00:00;1727049666;23/09/24;00:01:06;1.012;-0.003;0.18;-0.004886921960860491;-0.040317103266716;-0.05253440886735916
01:00:0A:00:00:00:00;1727049667;23/09/24;00:01:07;1.032;0.006;0.18;-0.018325956538319588;-0.0012217304902151227;0.0
01:00:0A:00:00:00:00;1727049668;23/09/24;00:01:08;1.054;-0.012;0.172;-0.024434609338641167;0.059864792972803116;0.028099799528717995
01:00:0A:00:00:00:00;1727049669;23/09/24;00:01:09;1.055;0.023;0.15;-0.024434609338641167;0.03420845419168472;-0.006108652334660292
01:00:0A:00:00:00:00;1727049670;23/09/24;00:01:10;0.997;0.012;0.11;-0.0354301817715168;-0.045204028487205505;0.013439035043120384
01:00:0A:00:00:00:00;1727049671;23/09/24;00:01:11;0.924;0.006;0.145;-0.05253440886735916;0.0024434609804302454;-0.03420845419168472
01:00:0A:00:00:00:00;1727049672;23/09/24;00:01:12;0.927;0.005;0.135;-0.10262535512447357;-0.2015855312347412;0.014660765416920185
01:00:0A:00:00:00:00;1727049673;23/09/24;00:01:13;1.01;-0.024;0.147;-0.10018189996480942;0.2370157092809677;-0.045204028487205505
01:00:0A:00:00:00:00;1727049674;23/09/24;00:01:14;1.025;0.022;0.3;-0.1820378452539444;-0.41294488310813904;0.05375614017248154
01:00:0A:00:00:00:00;1727049675;23/09/24;00:01:15;1.084;-0.13;-0.122;-0.18448130786418915;0.39584067463874817;0.018325956538319588
01:00:0A:00:00:00:00;1727049676;23/09/24;00:01:16;0.867;0.24;0.638;-0.32009339332580566;-0.025656338781118393;-0.17104226350784302
01:00:0A:00:00:00:00;1727049677;23/09/24;00:01:17;1.032;-0.131;-0.122;-0.35552355647087097;-0.5558874011039734;0.080634206533432
01:00:0A:00:00:00:00;1727049678;23/09/24;00:01:18;0.969;0.115;0.25;-0.23945917189121246;0.50335294008255;-0.17348572611808777
01:00:0A:00:00:00:00;1727049679;23/09/24;00:01:19;0.96;-0.028;0.17;-0.3176499307155609;-0.5351179242134094;0.1918116807937622
01:00:0A:00:00:00:00;1727049680;23/09/24;00:01:20;1.016;0.007;0.044;-0.2028072476387024;0.34574973583221436;-0.3604104816913605
01:00:0A:00:00:00:00;1727049681;23/09/24;00:01:21;0.973;0.229;0.311;-0.48380526900291443;-0.3677408695220947;0.34086278080940247
01:00:0A:00:00:00:00;1727049682;23/09/24;00:01:22;1.006;-0.37;0.052;-0.4398229718208313;0.48747044801712036;0.22113320231437683
01:00:0A:00:00:00:00;1727049683;23/09/24;00:01:23;0.995;0.238;0.174;-0.2773328125476837;-0.2736676335334778;-0.5571090579032898
01:00:0A:00:00:00:00;1727049684;23/09/24;00:01:24;0.972;0.083;0.104;-0.4544837474822998;-0.09162978082895279;0.31154125928878784
01:00:0A:00:00:00:00;1727049685;23/09/24;00:01:25;0.958;-0.044;0.093;0.040317103266716;-0.010995574295520782;-0.2626720666885376
01:00:0A:00:00:00:00;1727049686;23/09/24;00:01:26;1.011;0.102;0.156;-0.22846359014511108;0.1062905490398407;-0.07696902006864548
01:00:0A:00:00:00:00;1727049687;23/09/24;00:01:27;1.044;0.009;0.246;0.2015855312347412;-0.15271630883216858;-0.004886921960860491
01:00:0A:00:00:00:00;1727049688;23/09/24;00:01:28;1.063;-0.042;0.167;-0.17470745742321014;0.05619959905743599;0.05497787147760391
01:00:0A:00:00:00:00;1727049689;23/09/24;00:01:29;0.983;0.103;0.167;-0.5925393104553223;-0.17104226350784302;-0.2724458873271942
01:00:0A:00:00:00:00;1727049690;23/09/24;00:01:30;0.944;-0.047;0.175;-1.1423180103302002;0.025656338781118393;0.05009094998240471
01:00:0A:00:00:00:00;1727049691;23/09/24;00:01:31;0.957;-0.015;0.111;-0.9541715383529663;-0.07696902006864548;-0.37140607833862305
01:00:0A:00:00:00:00;1727049692;23/09/24;00:01:32;0.998;0.004;0.139;-1.017701506614685;-0.07330382615327835;0.25534167885780334
01:00:0A:00:00:00:00;1727049693;23/09/24;00:01:33;1.042;-0.263;-0.036;-0.8112289905548096;0.5448917746543884;-0.05619959905743599
01:00:0A:00:00:00:00;1727049694;23/09/24;00:01:34;0.938;0.004;0.54;-1.222952127456665;-0.06108652427792549;-1.5503759384155273
01:00:0A:00:00:00:00;1727049695;23/09/24;00:01:35;0.932;0.478;0.169;-1.5467108488082886;-0.616973876953125;-0.3384193480014801
01:00:0A:00:00:00:00;1727049696;23/09/24;00:01:36;0.985;-0.066;-0.318;-1.6383405923843384;-0.4691444933414459;-0.12461651116609573
01:00:0A:00:00:00:00;1727049697;23/09/24;00:01:37;0.982;0.149;0.112;-1.5491541624069214;0.2687807083129883;0.4752531349658966
01:00:0A:00:00:00:00;1727049698;23/09/24;00:01:38;0.931;-0.268;0.118;-1.292590856552124;0.26145032048225403;-0.40072759985923767
01:00:0A:00:00:00:00;1727049699;23/09/24;00:01:39;0.958;0.112;0.313;-1.1398744583129883;0.15515977144241333;-0.6487389206886292
01:00:0A:00:00:00:00;1727049700;23/09/24;00:01:40;0.948;-0.028;0.461;-1.204626202583313;-0.5436700582504272;-0.3689626157283783
01:00:0A:00:00:00:00;1727049701;23/09/24;00:01:41;1.024;0.212;0.08;-1.2217304706573486;-0.14294245839118958;0.03298672288656235
01:00:0A:00:00:00:00;1727049702;23/09/24;00:01:42;1.015;-0.285;-0.061;-1.1435396671295166;-0.13561207056045532;0.16493360698223114
01:00:0A:00:00:00:00;1727049703;23/09/24;00:01:43;1.018;-0.142;0.231;-0.960280179977417;0.08674286305904388;-0.1563815027475357
01:00:0A:00:00:00:00;1727049704;23/09/24;00:01:44;0.989;0.13;0.121;-0.9395107626914978;-0.2223549485206604;-0.24923302233219147
01:00:0A:00:00:00:00;1727049705;23/09/24;00:01:45;0.985;0.0;0.037;-0.9395107626914978;-0.10506881773471832;0.3066543638706207
01:00:0A:00:00:00:00;1727049706;23/09/24;00:01:46;0.987;-0.072;0.163;-0.7379252314567566;0.41661006212234497;-0.13072516024112701
01:00:0A:00:00:00:00;1727049707;23/09/24;00:01:47;1.007;0.004;0.266;-0.6401867866516113;-0.3995058536529541;-0.37751471996307373
01:00:0A:00:00:00:00;1727049708;23/09/24;00:01:48;1.001;0.292;0.061;-0.8222246170043945;-0.1966986060142517;0.34574973583221436
01:00:0A:00:00:00:00;1727049709;23/09/24;00:01:49;1.042;-0.245;0.045;-0.8161159753799438;0.0757472887635231;0.19303341209888458
01:00:0A:00:00:00:00;1727049710;23/09/24;00:01:50;1.026;0.162;0.156;-0.7330382466316223;0.1771509200334549;-0.18081611394882202
01:00:0A:00:00:00:00;1727049711;23/09/24;00:01:51;0.973;-0.099;0.212;-0.7709119319915771;0.0024434609804302454;0.08552113175392151
01:00:0A:00:00:00:00;1727049712;23/09/24;00:01:52;0.958;0.028;0.132;-0.6792821884155273;0.24190263450145721;-0.3042108714580536
01:00:0A:00:00:00:00;1727049713;23/09/24;00:01:53;0.996;-0.062;0.178;-0.7367035150527954;-0.021991148591041565;0.03298672288656235
01:00:0A:00:00:00:00;1727049714;23/09/24;00:01:54;1.023;-0.04;0.235;-0.5766568183898926;0.012217304669320583;-0.588874101638794
01:00:0A:00:00:00:00;1727049715;23/09/24;00:01:55;0.972;0.325;0.398;-0.6805038452148438;-0.2528982162475586;-0.19792033731937408
01:00:0A:00:00:00:00;1727049716;23/09/24;00:01:56;1.074;0.094;-0.066;-0.7745770812034607;-0.29565879702568054;-0.040317103266716
01:00:0A:00:00:00:00;1727049717;23/09/24;00:01:57;0.952;0.191;0.359;-0.8271114826202393;0.1160643920302391;-0.19303341209888458
01:00:0A:00:00:00:00;1727049718;23/09/24;00:01:58;0.943;-0.109;-0.203;-0.8845328092575073;-0.8600982427597046;0.3604104816913605
01:00:0A:00:00:00:00;1727049719;23/09/24;00:01:59;0.97;-0.105;0.07;-0.7110471129417419;1.0580185651779175;0.24556782841682434
01:00:0A:00:00:00:00;1727049720;23/09/24;00:02:00;0.965;-0.134;0.175;-0.5742133259773254;-0.21868975460529327;-0.3640756905078888
01:00:0A:00:00:00:00;1727049721;23/09/24;00:02:01;1.003;-0.064;0.248;-1.842369556427002;-0.06719517707824707;-0.3323107063770294
01:00:0A:00:00:00:00;1727049722;23/09/24;00:02:02;1.032;0.218;0.026;-1.6774358749389648;0.1014036238193512;0.12461651116609573
01:00:0A:00:00:00:00;1727049723;23/09/24;00:02:03;0.962;-0.452;-0.047;-1.4343115091323853;0.024434609338641167;0.13927726447582245
01:00:0A:00:00:00:00;1727049724;23/09/24;00:02:04;1.006;0.036;0.179;-1.0958921909332275;0.6328563690185547;-0.22357667982578278
01:00:0A:00:00:00:00;1727049725;23/09/24;00:02:05;0.971;0.112;0.042;-1.1398744583129883;-0.5644394755363464;-0.38728854060173035
01:00:0A:00:00:00:00;1727049726;23/09/24;00:02:06;0.967;-0.019;0.209;-1.3096951246261597;0.5167919993400574;0.13439035415649414
01:00:0A:00:00:00:00;1727049727;23/09/24;00:02:07;0.981;-0.049;0.241;-1.137431025505066;-0.6976081132888794;-0.8478808999061584
01:00:0A:00:00:00:00;1727049728;23/09/24;00:02:08;0.936;0.195;0.253;-2.0170769691467285;-0.36529743671417236;-0.036651913076639175
01:00:0A:00:00:00:00;1727049729;23/09/24;00:02:09;0.965;0.026;-0.079;-1.7959437370300293;-0.23945917189121246;-0.2687807083129883
01:00:0A:00:00:00:00;1727049730;23/09/24;00:02:10;0.947;0.122;0.212;-1.783726453781128;0.0757472887635231;0.15027284622192383
01:00:0A:00:00:00:00;1727049731;23/09/24;00:02:11;0.978;-0.17;0.07;-1.4147639274597168;-0.13072516024112701;-0.24068090319633484
01:00:0A:00:00:00:00;1727049732;23/09/24;00:02:12;0.999;0.024;0.116;-1.1789698600769043;0.5265658497810364;0.07819075137376785
01:00:0A:00:00:00:00;1727049733;23/09/24;00:02:13;0.99;-0.183;0.252;-0.8796459436416626;-0.14782939851284027;-0.5742133259773254
01:00:0A:00:00:00:00;1727049734;23/09/24;00:02:14;0.987;0.192;0.259;-0.9712756872177124;-0.018325956538319588;0.20036379992961884
01:00:0A:00:00:00:00;1727049735;23/09/24;00:02:15;1.031;-0.102;-0.072;-0.6927211880683899;-0.1576032191514969;-0.2431243658065796
01:00:0A:00:00:00:00;1727049736;23/09/24;00:02:16;0.995;0.166;0.201;-0.6658430695533752;0.33719760179519653;0.22846359014511108
01:00:0A:00:00:00:00;1727049737;23/09/24;00:02:17;1.003;-0.121;0.181;-0.5119050741195679;-0.26145032048225403;-0.11239919811487198
01:00:0A:00:00:00:00;1727049738;23/09/24;00:02:18;1.016;0.022;0.015;-0.42271876335144043;0.17592918872833252;0.009773843921720982
01:00:0A:00:00:00:00;1727049739;23/09/24;00:02:19;0.999;-0.129;0.2;-0.2883284091949463;-0.0073303827084600925;-0.09896016865968704
01:00:0A:00:00:00:00;1727049740;23/09/24;00:02:20;1.023;0.08;-0.027;-0.18814648687839508;-0.05742133408784866;-0.21868975460529327
01:00:0A:00:00:00:00;1727049741;23/09/24;00:02:21;1.011;0.05;0.248;-0.3042108714580536;0.1319468915462494;0.21013763546943665
01:00:0A:00:00:00:00;1727049742;23/09/24;00:02:22;1.034;-0.19;0.128;-0.1319468915462494;-0.1258382350206375;-0.09285151958465576
01:00:0A:00:00:00:00;1727049743;23/09/24;00:02:23;1.027;0.097;0.158;-0.10506881773471832;0.1258382350206375;-0.1563815027475357
01:00:0A:00:00:00:00;1727049744;23/09/24;00:02:24;1.006;-0.13;0.181;-0.16859880089759827;0.05742133408784866;0.1820378452539444
01:00:0A:00:00:00:00;1727049745;23/09/24;00:02:25;0.956;0.083;0.189;-0.05253440886735916;-0.05375614017248154;-0.36529743671417236
01:00:0A:00:00:00:00;1727049746;23/09/24;00:02:26;0.956;-0.056;0.162;-0.21868975460529327;-0.19792033731937408;0.40194931626319885
01:00:0A:00:00:00:00;1727049747;23/09/24;00:02:27;0.981;-0.076;0.175;0.040317103266716;0.11972958594560623;-0.4764748811721802
01:00:0A:00:00:00:00;1727049748;23/09/24;00:02:28;0.985;0.124;0.269;-0.18081611394882202;-0.1966986060142517;0.3445279896259308
01:00:0A:00:00:00:00;1727049749;23/09/24;00:02:29;1.04;-0.22;0.091;0.0;-0.018325956538319588;-0.1576032191514969
01:00:0A:00:00:00:00;1727049750;23/09/24;00:02:30;1.013;0.187;0.239;0.0012217304902151227;-0.02321287989616394;-0.24556782841682434
01:00:0A:00:00:00:00;1727049751;23/09/24;00:02:31;1.026;0.059;-0.019;-0.26511549949645996;-0.2932153046131134;0.3543018400669098
01:00:0A:00:00:00:00;1727049752;23/09/24;00:02:32;0.97;-0.094;0.075;-0.2528982162475586;0.2834414541721344;0.2382374405860901
01:00:0A:00:00:00:00;1727049753;23/09/24;00:02:33;0.943;-0.163;0.179;-0.1270599663257599;0.14538592100143433;-0.07696902006864548
01:00:0A:00:00:00:00;1727049754;23/09/24;00:02:34;1.02;-0.04;0.183;-0.5632177591323853;-0.16004669666290283;-0.46547931432724
01:00:0A:00:00:00:00;1727049755;23/09/24;00:02:35;1.022;0.088;0.307;-0.7134906053543091;-0.028099799528717995;0.059864792972803116
01:00:0A:00:00:00:00;1727049756;23/09/24;00:02:36;1.026;-0.225;0.209;-0.5717698335647583;0.1466076523065567;-0.16249015927314758
01:00:0A:00:00:00:00;1727049757;23/09/24;00:02:37;0.933;0.317;0.347;-0.5180137157440186;0.1258382350206375;-0.5424482822418213
01:00:0A:00:00:00:00;1727049758;23/09/24;00:02:38;0.975;0.214;0.044;-0.76846843957901;-0.5998696088790894;0.03787364438176155
01:00:0A:00:00:00:00;1727049759;23/09/24;00:02:39;0.957;-0.085;0.185;-0.8124507665634155;0.27122414112091064;0.40194931626319885
01:00:0A:00:00:00:00;1727049760;23/09/24;00:02:40;0.984;0.002;0.186;-0.37262779474258423;0.15271630883216858;-0.7195992469787598
01:00:0A:00:00:00:00;1727049761;23/09/24;00:02:41;0.928;0.205;0.417;-0.5375614166259766;-0.14905111491680145;0.06108652427792549
01:00:0A:00:00:00:00;1727049762;23/09/24;00:02:42;1.053;-0.027;-0.029;-0.49235740303993225;-0.29688048362731934;-0.05253440886735916
01:00:0A:00:00:00:00;1727049763;23/09/24;00:02:43;1.016;0.017;0.241;-0.4752531349658966;0.3494149148464203;-0.045204028487205505
01:00:0A:00:00:00:00;1727049764;23/09/24;00:02:44;0.99;0.031;0.178;-0.4300491213798523;-0.20402899384498596;-0.08674286305904388
01:00:0A:00:00:00:00;1727049765;23/09/24;00:02:45;0.97;0.025;0.04;-0.44715335965156555;-0.1514945775270462;0.08796459436416626
01:00:0A:00:00:00:00;1727049766;23/09/24;00:02:46;0.982;0.0;0.092;-0.3738495111465454;0.2125810980796814;0.042760565876960754
01:00:0A:00:00:00:00;1727049767;23/09/24;00:02:47;1.009;-0.008;0.151;-0.22968533635139465;-0.16493360698223114;-0.27488934993743896
01:00:0A:00:00:00:00;1727049768;23/09/24;00:02:48;1.027;0.125;0.104;-0.2785545289516449;-0.03420845419168472;0.12339477241039276
01:00:0A:00:00:00:00;1727049769;23/09/24;00:02:49;1.04;-0.085;0.166;-0.2528982162475586;0.080634206533432;0.015882495790719986
01:00:0A:00:00:00:00;1727049770;23/09/24;00:02:50;1.036;0.03;0.118;-0.6243042349815369;-0.03787364438176155;-0.2883284091949463
01:00:0A:00:00:00:00;1727049771;23/09/24;00:02:51;1.018;0.084;0.072;-0.6181955933570862;-0.09285151958465576;0.10384709388017654
01:00:0A:00:00:00:00;1727049772;23/09/24;00:02:52;0.985;-0.047;0.118;-0.5510004162788391;0.0757472887635231;-0.03176499158143997
01:00:0A:00:00:00:00;1727049773;23/09/24;00:02:53;0.98;0.042;0.137;-0.4703662395477295;-0.04642575979232788;-0.25534167885780334
01:00:0A:00:00:00:00;1727049774;23/09/24;00:02:54;1.016;0.0;0.092;-0.5241223573684692;-0.03787364438176155;0.11972958594560623
01:00:0A:00:00:00:00;1727049775;23/09/24;00:02:55;1.028;-0.124;0.028;-0.3738495111465454;0.051312677562236786;-0.10751228034496307
01:00:0A:00:00:00:00;1727049776;23/09/24;00:02:56;1.014;0.018;0.208;-0.313984751701355;0.06475171446800232;-0.013439035043120384
01:00:0A:00:00:00:00;1727049777;23/09/24;00:02:57;1.009;-0.11;0.132;-0.2590068578720093;-0.2724458873271942;0.0036651913542300463
01:00:0A:00:00:00:00;1727049778;23/09/24;00:02:58;1.005;0.044;0.079;-0.20647244155406952;0.22602014243602753;-0.08552113175392151
01:00:0A:00:00:00:00;1727049779;23/09/24;00:02:59;0.953;-0.088;0.258;-0.21013763546943665;0.08674286305904388;0.1270599663257599
01:00:0A:00:00:00:00;1727049780;23/09/24;00:03:00;0.975;-0.029;0.09;-0.06475171446800232;-0.24190263450145721;-0.3323107063770294
01:00:0A:00:00:00:00;1727049781;23/09/24;00:03:01;1.008;0.067;0.101;-0.11239919811487198;0.2480112910270691;0.2223549485206604
01:00:0A:00:00:00:00;1727049782;23/09/24;00:03:02;1.016;-0.146;0.251;-0.02321287989616394;-0.17348572611808777;-0.1576032191514969
01:00:0A:00:00:00:00;1727049783;23/09/24;00:03:03;1.077;0.124;0.042;-0.02687807008624077;0.042760565876960754;-0.09040805697441101
01:00:0A:00:00:00:00;1727049784;23/09/24;00:03:04;1.047;-0.035;0.283;-0.08185594528913498;0.06719517707824707;0.06352998316287994
01:00:0A:00:00:00:00;1727049785;23/09/24;00:03:05;1.007;-0.002;0.08;-0.08552113175392151;-0.18814648687839508;-0.051312677562236786
01:00:0A:00:00:00:00;1727049786;23/09/24;00:03:06;0.928;0.074;0.217;-0.12828169763088226;0.3090977966785431;-0.02687807008624077
01:00:0A:00:00:00:00;1727049787;23/09/24;00:03:07;0.954;0.044;0.144;-0.20036379992961884;-0.46547931432724;0.1417207270860672
01:00:0A:00:00:00:00;1727049788;23/09/24;00:03:08;0.994;0.019;0.086;-0.1368338167667389;0.4251621961593628;-0.09407324343919754
01:00:0A:00:00:00:00;1727049789;23/09/24;00:03:09;0.968;0.047;0.319;-0.17837265133857727;-0.2687807083129883;-0.06719517707824707
01:00:0A:00:00:00:00;1727049790;23/09/24;00:03:10;1.041;0.021;0.039;-0.2321287840604782;0.009773843921720982;0.0
01:00:0A:00:00:00:00;1727049791;23/09/24;00:03:11;1.028;0.0;0.246;-0.27122414112091064;0.10262535512447357;0.02932153083384037
01:00:0A:00:00:00:00;1727049792;23/09/24;00:03:12;1.028;0.002;0.243;-0.2773328125476837;-0.10018189996480942;-0.02932153083384037
01:00:0A:00:00:00:00;1727049793;23/09/24;00:03:13;1.009;0.042;0.137;-0.27000245451927185;-0.08918632566928864;-0.04886921867728233
01:00:0A:00:00:00:00;1727049794;23/09/24;00:03:14;0.963;-0.081;0.212;-0.2736676335334778;0.14049901068210602;0.15027284622192383
01:00:0A:00:00:00:00;1727049795;23/09/24;00:03:15;0.958;0.02;0.131;-0.14294245839118958;-0.20525071024894714;-0.294437050819397
01:00:0A:00:00:00:00;1727049796;23/09/24;00:03:16;0.972;0.061;0.112;-0.27977627515792847;0.10751228034496307;0.2785545289516449
01:00:0A:00:00:00:00;1727049797;23/09/24;00:03:17;1.014;-0.073;0.179;-0.15027284622192383;-0.09407324343919754;-0.2822197377681732
01:00:0A:00:00:00:00;1727049798;23/09/24;00:03:18;1.023;0.132;0.168;-0.2223549485206604;-0.021991148591041565;0.021991148591041565
01:00:0A:00:00:00:00;1727049799;23/09/24;00:03:19;1.036;-0.123;0.171;-0.21380282938480377;0.014660765416920185;0.0659734457731247
01:00:0A:00:00:00:00;1727049800;23/09/24;00:03:20;1.019;0.025;0.165;-0.13439035415649414;0.0708603635430336;-0.13316862285137177
01:00:0A:00:00:00:00;1727049801;23/09/24;00:03:21;0.987;0.031;0.134;-0.20036379992961884;-0.02076941914856434;0.14294245839118958
01:00:0A:00:00:00:00;1727049802;23/09/24;00:03:22;0.993;-0.004;0.131;-0.14905111491680145;-0.014660765416920185;-0.025656338781118393
01:00:0A:00:00:00:00;1727049803;23/09/24;00:03:23;1.007;0.052;0.175;-0.11972958594560623;-0.036651913076639175;-0.09162978082895279
01:00:0A:00:00:00:00;1727049804;23/09/24;00:03:24;1.016;0.02;0.178;-0.13927726447582245;-0.04153883829712868;-0.019547687843441963
01:00:0A:00:00:00:00;1727049805;23/09/24;00:03:25;1.008;-0.054;0.149;-0.11484266817569733;0.025656338781118393;-0.03420845419168472
01:00:0A:00:00:00:00;1727049806;23/09/24;00:03:26;0.988;-0.001;0.16;-0.09285151958465576;0.02076941914856434;-0.08307767659425735
01:00:0A:00:00:00:00;1727049807;23/09/24;00:03:27;0.994;0.008;0.154;-0.13439035415649414;-0.059864792972803116;0.06108652427792549
01:00:0A:00:00:00:00;1727049808;23/09/24;00:03:28;1.026;-0.035;0.131;-0.10262535512447357;0.0073303827084600925;-0.039095375686883926
01:00:0A:00:00:00:00;1727049809;23/09/24;00:03:29;1.034;0.027;0.187;-0.1014036238193512;-0.009773843921720982;-0.04398229718208313
01:00:0A:00:00:00:00;1727049810;23/09/24;00:03:30;1.031;-0.007;0.148;-0.12339477241039276;-0.05864306166768074;0.03176499158143997
01:00:0A:00:00:00:00;1727049811;23/09/24;00:03:31;0.996;-0.013;0.168;-0.10751228034496307;-0.009773843921720982;-0.012217304669320583
01:00:0A:00:00:00:00;1727049812;23/09/24;00:03:32;0.972;0.012;0.186;-0.10873401165008545;-0.018325956538319588;-0.025656338781118393
01:00:0A:00:00:00:00;1727049813;23/09/24;00:03:33;0.969;0.0;0.187;-0.12095131725072861;-0.02076941914856434;0.02076941914856434
01:00:0A:00:00:00:00;1727049814;23/09/24;00:03:34;0.98;-0.006;0.191;-0.1062905490398407;0.06841690838336945;-0.02321287989616394
01:00:0A:00:00:00:00;1727049815;23/09/24;00:03:35;1.008;0.006;0.182;-0.1111774742603302;0.019547687843441963;0.0036651913542300463
01:00:0A:00:00:00:00;1727049816;23/09/24;00:03:36;1.018;0.003;0.141;-0.10995574295520782;0.040317103266716;0.02932153083384037
01:00:0A:00:00:00:00;1727049817;23/09/24;00:03:37;1.023;0.002;0.162;-0.09040805697441101;-0.012217304669320583;-0.0073303827084600925
01:00:0A:00:00:00:00;1727049818;23/09/24;00:03:38;1.031;0.012;0.164;-0.07208210229873657;-0.0659734457731247;-0.05009094998240471
01:00:0A:00:00:00:00;1727049819;23/09/24;00:03:39;1.044;-0.01;0.155;-0.05864306166768074;-0.014660765416920185;-0.042760565876960754
01:00:0A:00:00:00:00;1727049820;23/09/24;00:03:40;1.023;-0.044;0.185;-0.05497787147760391;0.042760565876960754;0.03176499158143997
01:00:0A:00:00:00:00;1727049821;23/09/24;00:03:41;1.001;-0.01;0.13;-0.039095375686883926;-0.045204028487205505;0.010995574295520782
01:00:0A:00:00:00:00;1727049822;23/09/24;00:03:42;0.948;-0.013;0.141;-0.04398229718208313;0.06475171446800232;0.11362093687057495
01:00:0A:00:00:00:00;1727049823;23/09/24;00:03:43;0.961;-0.007;0.143;0.0;-0.10995574295520782;-0.04398229718208313
01:00:0A:00:00:00:00;1727049824;23/09/24;00:03:44;1.017;0.028;0.14;-0.0073303827084600925;0.028099799528717995;0.05253440886735916
01:00:0A:00:00:00:00;1727049825;23/09/24;00:03:45;1.032;-0.019;0.212;0.021991148591041565;-0.07208210229873657;-0.04886921867728233
01:00:0A:00:00:00:00;1727049826;23/09/24;00:03:46;1.047;0.025;0.137;0.02321287989616394;0.00855211354792118;-0.04153883829712868
01:00:0A:00:00:00:00;1727049827;23/09/24;00:03:47;0.999;-0.037;0.172;0.004886921960860491;0.08918632566928864;0.06719517707824707
01:00:0A:00:00:00:00;1727049828;23/09/24;00:03:48;0.976;-0.012;0.146;0.03176499158143997;-0.08918632566928864;-0.042760565876960754
01:00:0A:00:00:00:00;1727049829;23/09/24;00:03:49;0.998;0.016;0.136;0.010995574295520782;0.006108652334660292;0.04642575979232788
01:00:0A:00:00:00:00;1727049830;23/09/24;00:03:50;1.033;-0.018;0.181;0.02321287989616394;-0.04153883829712868;-0.0354301817715168
01:00:0A:00:00:00:00;1727049831;23/09/24;00:03:51;1.071;0.021;0.157;0.009773843921720982;-0.01710422709584236;-0.0073303827084600925
01:00:0A:00:00:00:00;1727049832;23/09/24;00:03:52;1.066;-0.034;0.189;-0.0012217304902151227;0.042760565876960754;0.03176499158143997
01:00:0A:00:00:00:00;1727049833;23/09/24;00:03:53;1.01;0.029;0.141;0.006108652334660292;-0.019547687843441963;-0.04398229718208313
01:00:0A:00:00:00:00;1727049834;23/09/24;00:03:54;0.954;-0.025;0.16;-0.03420845419168472;0.03420845419168472;0.14294245839118958
01:00:0A:00:00:00:00;1727049835;23/09/24;00:03:55;0.924;0.028;0.136;0.01710422709584236;-0.1417207270860672;-0.12828169763088226
01:00:0A:00:00:00:00;1727049836;23/09/24;00:03:56;0.958;0.016;0.153;-0.08185594528913498;0.08185594528913498;0.27122414112091064
01:00:0A:00:00:00:00;1727049837;23/09/24;00:03:57;1.016;-0.073;0.214;0.05009094998240471;-0.19303341209888458;-0.294437050819397
01:00:0A:00:00:00:00;1727049838;23/09/24;00:03:58;1.043;0.187;0.081;-0.04886921867728233;0.05619959905743599;0.09407324343919754
01:00:0A:00:00:00:00;1727049839;23/09/24;00:03:59;1.016;-0.201;0.265;-0.028099799528717995;0.0659734457731247;0.05375614017248154
01:00:0A:00:00:00:00;1727049840;23/09/24;00:04:00;1.027;0.117;0.109;0.05497787147760391;-0.10506881773471832;-0.29688048362731934
01:00:0A:00:00:00:00;1727049841;23/09/24;00:04:01;1.016;0.0;0.153;-0.07696902006864548;0.08674286305904388;0.21624629199504852
01:00:0A:00:00:00:00;1727049842;23/09/24;00:04:02;0.984;-0.077;0.169;0.0073303827084600925;-0.03787364438176155;-0.04153883829712868
01:00:0A:00:00:00:00;1727049843;23/09/24;00:04:03;0.991;0.068;0.128;0.024434609338641167;-0.07330382615327835;-0.11362093687057495
01:00:0A:00:00:00:00;1727049844;23/09/24;00:04:04;1.0;0.01;0.16;-0.06475171446800232;0.02932153083384037;0.22968533635139465
01:00:0A:00:00:00:00;1727049845;23/09/24;00:04:05;1.0;-0.065;0.174;0.024434609338641167;-0.015882495790719986;-0.06352998316287994
01:00:0A:00:00:00:00;1727049846;23/09/24;00:04:06;0.995;0.091;0.14;0.021991148591041565;-0.013439035043120384;-0.06475171446800232
01:00:0A:00:00:00:00;1727049847;23/09/24;00:04:07;1.003;0.024;0.152;-0.04642575979232788;0.028099799528717995;0.15882496535778046
01:00:0A:00:00:00:00;1727049848;23/09/24;00:04:08;1.008;-0.049;0.162;0.045204028487205505;-0.02932153083384037;-0.16493360698223114
01:00:0A:00:00:00:00;1727049849;23/09/24;00:04:09;1.017;0.073;0.137;0.019547687843441963;-0.051312677562236786;-0.07208210229873657
01:00:0A:00:00:00:00;1727049850;23/09/24;00:04:10;1.021;-0.037;0.165;-0.036651913076639175;-0.018325956538319588;0.11362093687057495
01:00:0A:00:00:00:00;1727049851;23/09/24;00:04:11;1.016;-0.043;0.173;0.012217304669320583;-0.03298672288656235;-0.04398229718208313
01:00:0A:00:00:00:00;1727049852;23/09/24;00:04:12;1.015;0.07;0.161;-0.014660765416920185;-0.014660765416920185;0.019547687843441963
01:00:0A:00:00:00:00;1727049853;23/09/24;00:04:13;1.016;-0.011;0.172;-0.04642575979232788;-0.006108652334660292;0.10873401165008545
01:00:0A:00:00:00:00;1727049854;23/09/24;00:04:14;1.012;-0.006;0.167;0.004886921960860491;-0.009773843921720982;-0.06841690838336945
01:00:0A:00:00:00:00;1727049855;23/09/24;00:04:15;0.995;0.045;0.167;-0.013439035043120384;0.02321287989616394;-0.036651913076639175
01:00:0A:00:00:00:00;1727049856;23/09/24;00:04:16;0.993;-0.011;0.157;-0.04398229718208313;-0.021991148591041565;0.06108652427792549
01:00:0A:00:00:00:00;1727049857;23/09/24;00:04:17;0.998;-0.017;0.145;0.0;-0.00855211354792118;-0.09162978082895279
01:00:0A:00:00:00:00;1727049858;23/09/24;00:04:18;1.01;0.032;0.148;-0.02932153083384037;-0.012217304669320583;0.010995574295520782
01:00:0A:00:00:00:00;1727049859;23/09/24;00:04:19;1.017;-0.022;0.156;-0.036651913076639175;-0.04642575979232788;0.019547687843441963
01:00:0A:00:00:00:00;1727049860;23/09/24;00:04:20;1.023;-0.009;0.147;-0.014660765416920185;-0.03176499158143997;-0.04764748737215996
01:00:0A:00:00:00:00;1727049861;23/09/24;00:04:21;1.016;0.023;0.173;-0.039095375686883926;-0.00855211354792118;0.015882495790719986
01:00:0A:00:00:00:00;1727049862;23/09/24;00:04:22;1.006;-0.019;0.169;-0.04642575979232788;-0.021991148591041565;0.039095375686883926
01:00:0A:00:00:00:00;1727049863;23/09/24;00:04:23;1.006;0.0;0.147;-0.01710422709584236;0.006108652334660292;-0.06108652427792549
01:00:0A:00:00:00:00;1727049864;23/09/24;00:04:24;1.01;0.018;0.169;-0.040317103266716;0.021991148591041565;0.0024434609804302454
01:00:0A:00:00:00:00;1727049865;23/09/24;00:04:25;1.01;-0.017;0.159;-0.039095375686883926;-0.036651913076639175;0.0
01:00:0A:00:00:00:00;1727049866;23/09/24;00:04:26;1.003;0.005;0.147;-0.02076941914856434;-0.012217304669320583;-0.06108652427792549
01:00:0A:00:00:00:00;1727049867;23/09/24;00:04:27;0.988;0.003;0.169;-0.04153883829712868;0.004886921960860491;0.01710422709584236
01:00:0A:00:00:00:00;1727049868;23/09/24;00:04:28;0.986;-0.009;0.167;-0.03420845419168472;-0.05253440886735916;-0.006108652334660292
01:00:0A:00:00:00:00;1727049869;23/09/24;00:04:29;1.007;0.008;0.152;-0.028099799528717995;0.012217304669320583;-0.00855211354792118
01:00:0A:00:00:00:00;1727049870;23/09/24;00:04:30;1.02;0.008;0.169;-0.03787364438176155;-0.006108652334660292;0.02687807008624077
01:00:0A:00:00:00:00;1727049871;23/09/24;00:04:31;1.034;-0.001;0.161;-0.024434609338641167;-0.06108652427792549;-0.013439035043120384
01:00:0A:00:00:00:00;1727049872;23/09/24;00:04:32;1.026;0.012;0.16;-0.019547687843441963;-0.024434609338641167;-0.025656338781118393
01:00:0A:00:00:00:00;1727049873;23/09/24;00:04:33;1.008;0.0;0.184;-0.030543262138962746;0.00855211354792118;0.009773843921720982
01:00:0A:00:00:00:00;1727049874;23/09/24;00:04:34;0.989;-0.002;0.164;-0.02687807008624077;-0.02321287989616394;-0.010995574295520782
01:00:0A:00:00:00:00;1727049875;23/09/24;00:04:35;0.99;0.006;0.159;-0.03176499158143997;0.018325956538319588;0.0024434609804302454
01:00:0A:00:00:00:00;1727049876;23/09/24;00:04:36;0.999;0.004;0.171;-0.039095375686883926;0.021991148591041565;0.019547687843441963
01:00:0A:00:00:00:00;1727049877;23/09/24;00:04:37;1.005;0.005;0.161;-0.0354301817715168;-0.004886921960860491;-0.00855211354792118
01:00:0A:00:00:00:00;1727049878;23/09/24;00:04:38;1.005;0.012;0.143;-0.0354301817715168;0.019547687843441963;-0.004886921960860491
01:00:0A:00:00:00:00;1727049879;23/09/24;00:04:39;1.0;0.0;0.157;-0.039095375686883926;-0.0036651913542300463;0.0012217304902151227
01:00:0A:00:00:00:00;1727049880;23/09/24;00:04:40;1.006;0.0;0.155;-0.03787364438176155;-0.042760565876960754;-0.013439035043120384
01:00:0A:00:00:00:00;1727049881;23/09/24;00:04:41;1.021;0.005;0.153;-0.04398229718208313;-0.015882495790719986;0.00855211354792118
01:00:0A:00:00:00:00;1727049882;23/09/24;00:04:42;1.026;0.0;0.178;-0.04642575979232788;-0.0024434609804302454;0.012217304669320583
01:00:0A:00:00:00:00;1727049883;23/09/24;00:04:43;1.017;0.003;0.166;-0.04398229718208313;-0.00855211354792118;-0.0036651913542300463
01:00:0A:00:00:00:00;1727049884;23/09/24;00:04:44;1.001;0.002;0.159;-0.04642575979232788;0.025656338781118393;0.0036651913542300463
01:00:0A:00:00:00:00;1727049885;23/09/24;00:04:45;0.991;-0.006;0.157;-0.04642575979232788;0.02687807008624077;0.009773843921720982
01:00:0A:00:00:00:00;1727049886;23/09/24;00:04:46;1.0;-0.005;0.15;-0.042760565876960754;-0.02076941914856434;0.0
01:00:0A:00:00:00:00;1727049887;23/09/24;00:04:47;1.012;0.0;0.148;-0.04764748737215996;-0.03176499158143997;0.025656338781118393
01:00:0A:00:00:00:00;1727049888;23/09/24;00:04:48;1.018;-0.001;0.167;-0.04642575979232788;-0.021991148591041565;0.02321287989616394
01:00:0A:00:00:00:00;1727049889;23/09/24;00:04:49;1.016;0.01;0.169;-0.042760565876960754;-0.02076941914856434;-0.006108652334660292
01:00:0A:00:00:00:00;1727049890;23/09/24;00:04:50;1.004;0.004;0.159;-0.040317103266716;0.019547687843441963;-0.02076941914856434
01:00:0A:00:00:00:00;1727049891;23/09/24;00:04:51;0.996;-0.014;0.153;-0.039095375686883926;0.024434609338641167;-0.02687807008624077
01:00:0A:00:00:00:00;1727049892;23/09/24;00:04:52;1.002;-0.018;0.138;-0.04153883829712868;-0.021991148591041565;-0.00855211354792118
01:00:0A:00:00:00:00;1727049893;23/09/24;00:04:53;1.014;-0.01;0.135;-0.05009094998240471;-0.024434609338641167;0.021991148591041565
01:00:0A:00:00:00:00;1727049894;23/09/24;00:04:54;1.023;-0.001;0.163;-0.05375614017248154;-0.04764748737215996;0.03420845419168472
01:00:0A:00:00:00:00;1727049895;23/09/24;00:04:55;1.016;0.01;0.167;-0.051312677562236786;-0.0354301817715168;0.010995574295520782
01:00:0A:00:00:00:00;1727049896;23/09/24;00:04:56;0.998;0.012;0.168;-0.04886921867728233;0.012217304669320583;-0.013439035043120384
01:00:0A:00:00:00:00;1727049897;23/09/24;00:04:57;0.998;0.001;0.163;-0.045204028487205505;0.01710422709584236;-0.02687807008624077
01:00:0A:00:00:00:00;1727049898;23/09/24;00:04:58;1.01;-0.006;0.149;-0.04764748737215996;-0.004886921960860491;-0.012217304669320583
01:00:0A:00:00:00:00;1727049899;23/09/24;00:04:59;1.016;-0.004;0.152;-0.05253440886735916;-0.01710422709584236;0.006108652334660292
01:00:0A:00:00:00:00;1727049900;23/09/24;00:05:00;1.016;-0.002;0.158;-0.05375614017248154;-0.02321287989616394;0.009773843921720982
01:00:0A:00:00:00:00;1727049901;23/09/24;00:05:01;1.009;0.003;0.155;-0.05253440886735916;-0.021991148591041565;0.0024434609804302454
01:00:0A:00:00:00:00;1727049902;23/09/24;00:05:02;1.006;0.004;0.156;-0.05375614017248154;-0.006108652334660292;0.0012217304902151227
01:00:0A:00:00:00:00;1727049903;23/09/24;00:05:03;1.002;0.003;0.155;-0.05253440886735916;-0.006108652334660292;-0.0073303827084600925
01:00:0A:00:00:00:00;1727049904;23/09/24;00:05:04;1.003;0.003;0.153;-0.05009094998240471;-0.01710422709584236;-0.014660765416920185
01:00:0A:00:00:00:00;1727049905;23/09/24;00:05:05;0.999;0.0;0.157;-0.051312677562236786;-0.014660765416920185;-0.009773843921720982
01:00:0A:00:00:00:00;1727049906;23/09/24;00:05:06;0.999;-0.003;0.16;-0.05253440886735916;-0.00855211354792118;0.0
01:00:0A:00:00:00:00;1727049907;23/09/24;00:05:07;1.003;-0.007;0.157;-0.05009094998240471;-0.01710422709584236;0.0036651913542300463
01:00:0A:00:00:00:00;1727049908;23/09/24;00:05:08;1.023;-0.002;0.162;-0.05009094998240471;-0.021991148591041565;0.015882495790719986
01:00:0A:00:00:00:00;1727049909;23/09/24;00:05:09;1.038;0.003;0.166;-0.051312677562236786;-0.030543262138962746;0.019547687843441963
01:00:0A:00:00:00:00;1727049910;23/09/24;00:05:10;1.037;0.008;0.164;-0.04764748737215996;-0.010995574295520782;0.004886921960860491
01:00:0A:00:00:00:00;1727049911;23/09/24;00:05:11;1.015;0.008;0.176;-0.04398229718208313;0.009773843921720982;-0.00855211354792118
01:00:0A:00:00:00:00;1727049912;23/09/24;00:05:12;0.976;0.006;0.159;-0.04398229718208313;0.0036651913542300463;-0.01710422709584236
01:00:0A:00:00:00:00;1727049913;23/09/24;00:05:13;0.968;0.004;0.148;-0.045204028487205505;0.013439035043120384;-0.009773843921720982
01:00:0A:00:00:00:00;1727049914;23/09/24;00:05:14;0.987;0.003;0.147;-0.04153883829712868;-0.010995574295520782;-0.03298672288656235
01:00:0A:00:00:00:00;1727049915;23/09/24;00:05:15;1.024;0.002;0.153;-0.04764748737215996;-0.045204028487205505;-0.006108652334660292
01:00:0A:00:00:00:00;1727049916;23/09/24;00:05:16;1.038;-0.005;0.158;-0.05009094998240471;-0.051312677562236786;0.010995574295520782
01:00:0A:00:00:00:00;1727049917;23/09/24;00:05:17;1.038;0.002;0.175;-0.04764748737215996;-0.019547687843441963;0.012217304669320583
01:00:0A:00:00:00:00;1727049918;23/09/24;00:05:18;1.021;0.01;0.177;-0.04764748737215996;-0.004886921960860491;0.014660765416920185
01:00:0A:00:00:00:00;1727049919;23/09/24;00:05:19;0.989;0.006;0.164;-0.04764748737215996;0.015882495790719986;0.012217304669320583
01:00:0A:00:00:00:00;1727049920;23/09/24;00:05:20;0.978;0.009;0.158;-0.04153883829712868;0.015882495790719986;-0.012217304669320583
01:00:0A:00:00:00:00;1727049921;23/09/24;00:05:21;0.99;0.011;0.155;-0.042760565876960754;-0.0073303827084600925;-0.014660765416920185
01:00:0A:00:00:00:00;1727049922;23/09/24;00:05:22;1.009;0.0;0.152;-0.04153883829712868;-0.018325956538319588;-0.02076941914856434
01:00:0A:00:00:00:00;1727049923;23/09/24;00:05:23;1.029;-0.003;0.16;-0.04153883829712868;-0.025656338781118393;-0.015882495790719986
01:00:0A:00:00:00:00;1727049924;23/09/24;00:05:24;1.024;0.0;0.168;-0.04764748737215996;-0.02076941914856434;0.0024434609804302454
01:00:0A:00:00:00:00;1727049925;23/09/24;00:05:25;1.009;-0.005;0.164;-0.05253440886735916;-0.02321287989616394;0.021991148591041565
01:00:0A:00:00:00:00;1727049926;23/09/24;00:05:26;0.988;0.0;0.162;-0.04642575979232788;-0.0024434609804302454;0.0036651913542300463
01:00:0A:00:00:00:00;1727049927;23/09/24;00:05:27;0.984;0.005;0.159;-0.04642575979232788;-0.015882495790719986;0.0024434609804302454
01:00:0A:00:00:00:00;1727049928;23/09/24;00:05:28;1.004;0.005;0.158;-0.04153883829712868;-0.030543262138962746;-0.012217304669320583
01:00:0A:00:00:00:00;1727049929;23/09/24;00:05:29;1.021;0.0;0.161;-0.03787364438176155;-0.0073303827084600925;-0.01710422709584236
01:00:0A:00:00:00:00;1727049930;23/09/24;00:05:30;1.035;0.0;0.174;-0.040317103266716;0.0;-0.006108652334660292
01:00:0A:00:00:00:00;1727049931;23/09/24;00:05:31;1.032;-0.003;0.156;-0.042760565876960754;-0.00855211354792118;0.006108652334660292
01:00:0A:00:00:00:00;1727049932;23/09/24;00:05:32;0.995;0.003;0.151;-0.040317103266716;0.004886921960860491;0.004886921960860491
01:00:0A:00:00:00:00;1727049933;23/09/24;00:05:33;0.966;0.004;0.158;-0.040317103266716;-0.019547687843441963;0.0024434609804302454
01:00:0A:00:00:00:00;1727049934;23/09/24;00:05:34;0.976;0.0;0.151;-0.03787364438176155;-0.04398229718208313;-0.0012217304902151227
01:00:0A:00:00:00:00;1727049935;23/09/24;00:05:35;1.018;0.043;0.124;-0.14538592100143433;-0.06108652427792549;-0.1258382350206375
01:00:0A:00:00:00:00;1727049936;23/09/24;00:05:36;1.031;0.01;0.185;-0.1918116807937622;-0.03298672288656235;0.04642575979232788
01:00:0A:00:00:00:00;1727049937;23/09/24;00:05:37;1.046;-0.043;0.147;-0.15393804013729095;-0.02932153083384037;-0.015882495790719986
01:00:0A:00:00:00:00;1727049938;23/09/24;00:05:38;1.029;0.045;0.174;-0.13805554807186127;0.03420845419168472;-0.05375614017248154
01:00:0A:00:00:00:00;1727049939;23/09/24;00:05:39;0.995;-0.022;0.158;-0.161268413066864;-0.03298672288656235;0.080634206533432
01:00:0A:00:00:00:00;1727049940;23/09/24;00:05:40;0.976;-0.003;0.14;-0.10506881773471832;-0.004886921960860491;-0.09407324343919754
01:00:0A:00:00:00:00;1727049941;23/09/24;00:05:41;0.979;0.02;0.162;-0.12828169763088226;-0.010995574295520782;0.030543262138962746
01:00:0A:00:00:00:00;1727049942;23/09/24;00:05:42;1.007;-0.014;0.162;-0.1111774742603302;-0.04398229718208313;-0.0073303827084600925
01:00:0A:00:00:00:00;1727049943;23/09/24;00:05:43;1.021;0.007;0.158;-0.08796459436416626;0.0012217304902151227;-0.042760565876960754
01:00:0A:00:00:00:00;1727049944;23/09/24;00:05:44;1.019;0.021;0.179;-0.09896016865968704;-0.004886921960860491;-0.004886921960860491
01:00:0A:00:00:00:00;1727049945;23/09/24;00:05:45;1.018;-0.014;0.15;-0.09162978082895279;-0.02321287989616394;-0.009773843921720982
01:00:0A:00:00:00:00;1727049946;23/09/24;00:05:46;1.013;0.0;0.153;-0.07208210229873657;0.0036651913542300463;-0.04886921867728233
01:00:0A:00:00:00:00;1727049947;23/09/24;00:05:47;1.01;0.0;0.168;-0.08429940044879913;-0.030543262138962746;0.00855211354792118
01:00:0A:00:00:00:00;1727049948;23/09/24;00:05:48;1.005;-0.013;0.151;-0.07941248267889023;-0.036651913076639175;0.014660765416920185
01:00:0A:00:00:00:00;1727049949;23/09/24;00:05:49;1.0;0.003;0.168;-0.0659734457731247;0.013439035043120384;-0.018325956538319588
01:00:0A:00:00:00:00;1727049950;23/09/24;00:05:50;0.999;0.01;0.17;-0.07452555745840073;-0.013439035043120384;0.02076941914856434
01:00:0A:00:00:00:00;1727049951;23/09/24;00:05:51;1.002;0.0;0.144;-0.06475171446800232;-0.00855211354792118;0.004886921960860491
01:00:0A:00:00:00:00;1727049952;23/09/24;00:05:52;1.002;0.014;0.154;-0.05253440886735916;0.014660765416920185;-0.02687807008624077
01:00:0A:00:00:00:00;1727049953;23/09/24;00:05:53;1.005;0.017;0.16;-0.05742133408784866;-0.040317103266716;-0.01710422709584236
01:00:0A:00:00:00:00;1727049954;23/09/24;00:05:54;1.007;0.0;0.145;-0.05497787147760391;-0.028099799528717995;-0.019547687843441963
01:00:0A:00:00:00:00;1727049955;23/09/24;00:05:55;1.007;-0.004;0.161;-0.05009094998240471;-0.0024434609804302454;-0.021991148591041565
01:00:0A:00:00:00:00;1727049956;23/09/24;00:05:56;1.007;0.005;0.164;-0.05864306166768074;-0.0354301817715168;0.0036651913542300463
01:00:0A:00:00:00:00;1727049957;23/09/24;00:05:57;1.017;-0.001;0.154;-0.05742133408784866;-0.013439035043120384;0.0073303827084600925
01:00:0A:00:00:00:00;1727049958;23/09/24;00:05:58;1.024;0.0;0.163;-0.05009094998240471;0.014660765416920185;-0.00855211354792118
01:00:0A:00:00:00:00;1727049959;23/09/24;00:05:59;1.021;0.009;0.168;-0.05375614017248154;-0.012217304669320583;-0.0012217304902151227
01:00:0A:00:00:00:00;1727049960;23/09/24;00:06:00;1.007;-0.001;0.151;-0.05742133408784866;-0.02076941914856434;0.019547687843441963
01:00:0A:00:00:00:00;1727049961;23/09/24;00:06:01;0.998;0.001;0.158;-0.04642575979232788;0.014660765416920185;-0.0012217304902151227
01:00:0A:00:00:00:00;1727049962;23/09/24;00:06:02;0.988;0.011;0.161;-0.04642575979232788;-0.018325956538319588;-0.0012217304902151227
01:00:0A:00:00:00:00;1727049963;23/09/24;00:06:03;0.989;0.007;0.149;-0.04764748737215996;-0.03176499158143997;0.0036651913542300463
01:00:0A:00:00:00:00;1727049964;23/09/24;00:06:04;1.004;0.003;0.161;-0.0354301817715168;-0.0012217304902151227;-0.02687807008624077
01:00:0A:00:00:00:00;1727049965;23/09/24;00:06:05;1.011;0.007;0.176;-0.03787364438176155;-0.02321287989616394;-0.02076941914856434
01:00:0A:00:00:00:00;1727049966;23/09/24;00:06:06;1.024;0.0;0.159;-0.042760565876960754;-0.013439035043120384;-0.0024434609804302454
01:00:0A:00:00:00:00;1727049967;23/09/24;00:06:07;1.023;-0.001;0.157;-0.039095375686883926;0.0073303827084600925;0.004886921960860491
01:00:0A:00:00:00:00;1727049968;23/09/24;00:06:08;1.016;0.007;0.168;-0.03787364438176155;-0.004886921960860491;0.0012217304902151227
01:00:0A:00:00:00:00;1727049969;23/09/24;00:06:09;1.004;0.006;0.152;-0.039095375686883926;-0.039095375686883926;0.0036651913542300463
01:00:0A:00:00:00:00;1727049970;23/09/24;00:06:10;0.993;0.002;0.154;-0.03176499158143997;-0.006108652334660292;-0.00855211354792118
01:00:0A:00:00:00:00;1727049971;23/09/24;00:06:11;0.99;0.004;0.169;-0.030543262138962746;-0.019547687843441963;-0.010995574295520782
01:00:0A:00:00:00:00;1727049972;23/09/24;00:06:12;1.0;0.006;0.162;-0.03420845419168472;-0.039095375686883926;0.0
01:00:0A:00:00:00:00;1727049973;23/09/24;00:06:13;1.009;0.001;0.157;-0.028099799528717995;0.006108652334660292;-0.0024434609804302454
01:00:0A:00:00:00:00;1727049974;23/09/24;00:06:14;1.007;0.006;0.171;-0.025656338781118393;-0.0036651913542300463;-0.004886921960860491
01:00:0A:00:00:00:00;1727049975;23/09/24;00:06:15;1.011;0.006;0.157;-0.025656338781118393;-0.02687807008624077;-0.0073303827084600925
01:00:0A:00:00:00:00;1727049976;23/09/24;00:06:16;1.015;0.001;0.148;-0.021991148591041565;-0.0036651913542300463;-0.009773843921720982
01:00:0A:00:00:00:00;1727049977;23/09/24;00:06:17;1.013;0.0;0.168;-0.021991148591041565;-0.012217304669320583;-0.0012217304902151227
01:00:0A:00:00:00:00;1727049978;23/09/24;00:06:18;1.02;0.0;0.16;-0.025656338781118393;-0.03176499158143997;0.015882495790719986
01:00:0A:00:00:00:00;1727049979;23/09/24;00:06:19;1.025;0.0;0.156;-0.02321287989616394;0.0;0.018325956538319588
01:00:0A:00:00:00:00;1727049980;23/09/24;00:06:20;1.016;0.006;0.174;-0.02321287989616394;0.010995574295520782;0.015882495790719986
01:00:0A:00:00:00:00;1727049981;23/09/24;00:06:21;1.008;0.009;0.157;-0.021991148591041565;-0.02932153083384037;0.006108652334660292
01:00:0A:00:00:00:00;1727049982;23/09/24;00:06:22;0.99;0.003;0.151;-0.018325956538319588;-0.0024434609804302454;0.0
01:00:0A:00:00:00:00;1727049983;23/09/24;00:06:23;0.985;-0.001;0.162;-0.015882495790719986;-0.00855211354792118;-0.0036651913542300463
01:00:0A:00:00:00:00;1727049984;23/09/24;00:06:24;0.998;-0.003;0.158;-0.014660765416920185;-0.04153883829712868;0.0036651913542300463
01:00:0A:00:00:00:00;1727049985;23/09/24;00:06:25;1.018;-0.001;0.158;-0.013439035043120384;-0.00855211354792118;0.015882495790719986
01:00:0A:00:00:00:00;1727049986;23/09/24;00:06:26;1.021;0.0;0.179;-0.00855211354792118;0.0;0.0073303827084600925
01:00:0A:00:00:00:00;1727049987;23/09/24;00:06:27;1.025;0.002;0.162;-0.006108652334660292;-0.0024434609804302454;0.0
01:00:0A:00:00:00:00;1727049988;23/09/24;00:06:28;1.019;0.0;0.152;-0.0036651913542300463;0.006108652334660292;0.0
01:00:0A:00:00:00:00;1727049989;23/09/24;00:06:29;1.001;-0.006;0.161;-0.0024434609804302454;-0.0036651913542300463;0.004886921960860491
01:00:0A:00:00:00:00;1727049990;23/09/24;00:06:30;0.997;-0.003;0.157;-0.0024434609804302454;-0.03420845419168472;0.004886921960860491
01:00:0A:00:00:00:00;1727049991;23/09/24;00:06:31;0.994;0.0;0.156;-0.0024434609804302454;-0.010995574295520782;0.013439035043120384
01:00:0A:00:00:00:00;1727049992;23/09/24;00:06:32;0.996;0.0;0.164;-0.0012217304902151227;-0.014660765416920185;0.010995574295520782
01:00:0A:00:00:00:00;1727049993;23/09/24;00:06:33;1.006;0.005;0.165;0.0024434609804302454;-0.024434609338641167;-0.0036651913542300463
01:00:0A:00:00:00:00;1727049994;23/09/24;00:06:34;1.016;0.003;0.158;0.0024434609804302454;0.009773843921720982;-0.004886921960860491
01:00:0A:00:00:00:00;1727049995;23/09/24;00:06:35;1.016;0.001;0.165;0.0024434609804302454;0.006108652334660292;-0.0036651913542300463
01:00:0A:00:00:00:00;1727049996;23/09/24;00:06:36;1.017;0.0;0.158;0.0024434609804302454;-0.018325956538319588;-0.004886921960860491
01:00:0A:00:00:00:00;1727049997;23/09/24;00:06:37;1.016;0.0;0.152;0.0012217304902151227;-0.010995574295520782;0.004886921960860491
01:00:0A:00:00:00:00;1727049998;23/09/24;00:06:38;1.006;0.0;0.163;0.0;-0.010995574295520782;0.00855211354792118
01:00:0A:00:00:00:00;1727049999;23/09/24;00:06:39;1.005;0.001;0.159;0.0;-0.02932153083384037;0.004886921960860491
01:00:0A:00:00:00:00;1727050000;23/09/24;00:06:40;1.003;0.004;0.158;0.0;-0.015882495790719986;0.0012217304902151227
01:00:0A:00:00:00:00;1727050001;23/09/24;00:06:41;1.003;0.001;0.165;0.0;-0.00855211354792118;0.0036651913542300463
01:00:0A:00:00:00:00;1727050002;23/09/24;00:06:42;1.007;0.001;0.162;0.0;-0.013439035043120384;-0.0012217304902151227
01:00:0A:00:00:00:00;1727050003;23/09/24;00:06:43;1.011;0.0;0.154;0.0012217304902151227;-0.0024434609804302454;0.0012217304902151227
01:00:0A:00:00:00:00;1727050004;23/09/24;00:06:44;1.009;0.0;0.158;0.0;-0.004886921960860491;0.0036651913542300463
01:00:0A:00:00:00:00;1727050005;23/09/24;00:06:45;1.013;0.0;0.16;0.0012217304902151227;-0.02076941914856434;0.0036651913542300463
01:00:0A:00:00:00:00;1727050006;23/09/24;00:06:46;1.013;0.0;0.158;0.0012217304902151227;-0.012217304669320583;0.0024434609804302454
01:00:0A:00:00:00:00;1727050007;23/09/24;00:06:47;1.009;0.0;0.162;0.0024434609804302454;-0.010995574295520782;0.0024434609804302454
01:00:0A:00:00:00:00;1727050008;23/09/24;00:06:48;1.01;0.0;0.161;0.0036651913542300463;-0.02076941914856434;0.0
01:00:0A:00:00:00:00;1727050009;23/09/24;00:06:49;1.011;0.0;0.16;0.0024434609804302454;-0.00855211354792118;0.0073303827084600925
01:00:0A:00:00:00:00;1727050010;23/09/24;00:06:50;1.007;0.0;0.162;0.0024434609804302454;0.0036651913542300463;0.00855211354792118
01:00:0A:00:00:00:00;1727050011;23/09/24;00:06:51;0.998;0.001;0.156;0.0024434609804302454;-0.009773843921720982;0.0073303827084600925
01:00:0A:00:00:00:00;1727050012;23/09/24;00:06:52;0.997;0.005;0.152;0.0036651913542300463;-0.013439035043120384;0.0036651913542300463
01:00:0A:00:00:00:00;1727050013;23/09/24;00:06:53;0.999;0.002;0.157;0.0036651913542300463;-0.012217304669320583;0.0
01:00:0A:00:00:00:00;1727050014;23/09/24;00:06:54;1.016;0.0;0.164;0.0012217304902151227;-0.024434609338641167;0.0
01:00:0A:00:00:00:00;1727050015;23/09/24;00:06:55;1.024;0.001;0.161;-0.0012217304902151227;-0.01710422709584236;0.0012217304902151227
01:00:0A:00:00:00:00;1727050016;23/09/24;00:06:56;1.023;0.0;0.165;-0.0036651913542300463;-0.0036651913542300463;0.004886921960860491
01:00:0A:00:00:00:00;1727050017;23/09/24;00:06:57;1.014;0.0;0.166;-0.0036651913542300463;-0.0024434609804302454;0.004886921960860491
01:00:0A:00:00:00:00;1727050018;23/09/24;00:06:58;0.994;0.0;0.155;-0.0036651913542300463;-0.0036651913542300463;0.0036651913542300463
01:00:0A:00:00:00:00;1727050019;23/09/24;00:06:59;0.986;0.0;0.155;-0.0012217304902151227;-0.0012217304902151227;0.0036651913542300463
01:00:0A:00:00:00:00;1727050020;23/09/24;00:07:00;0.997;0.001;0.156;0.0;-0.025656338781118393;0.0012217304902151227
01:00:0A:00:00:00:00;1727050021;23/09/24;00:07:01;1.022;0.001;0.16;0.0;-0.024434609338641167;0.0073303827084600925
01:00:0A:00:00:00:00;1727050022;23/09/24;00:07:02;1.026;0.002;0.165;0.0024434609804302454;-0.00855211354792118;0.006108652334660292
01:00:0A:00:00:00:00;1727050023;23/09/24;00:07:03;1.021;0.001;0.165;0.004886921960860491;-0.010995574295520782;0.0
01:00:0A:00:00:00:00;1727050024;23/09/24;00:07:04;1.01;0.0;0.162;0.006108652334660292;-0.012217304669320583;0.0
01:00:0A:00:00:00:00;1727050025;23/09/24;00:07:05;0.995;0.0;0.16;0.006108652334660292;-0.0024434609804302454;0.006108652334660292
01:00:0A:00:00:00:00;1727050026;23/09/24;00:07:06;0.994;-0.002;0.161;0.006108652334660292;-0.012217304669320583;0.009773843921720982
01:00:0A:00:00:00:00;1727050027;23/09/24;00:07:07;0.999;0.0;0.157;0.0073303827084600925;-0.015882495790719986;0.0073303827084600925
01:00:0A:00:00:00:00;1727050028;23/09/24;00:07:08;1.009;0.003;0.158;0.009773843921720982;-0.009773843921720982;0.0012217304902151227
01:00:0A:00:00:00:00;1727050029;23/09/24;00:07:09;1.012;0.003;0.162;0.010995574295520782;-0.009773843921720982;-0.0012217304902151227
01:00:0A:00:00:00:00;1727050030;23/09/24;00:07:10;1.013;0.0;0.158;0.013439035043120384;-0.01710422709584236;-0.006108652334660292
01:00:0A:00:00:00:00;1727050031;23/09/24;00:07:11;1.011;0.0;0.156;0.013439035043120384;-0.013439035043120384;0.0024434609804302454
01:00:0A:00:00:00:00;1727050032;23/09/24;00:07:12;1.012;-0.001;0.163;0.013439035043120384;-0.01710422709584236;0.009773843921720982
01:00:0A:00:00:00:00;1727050033;23/09/24;00:07:13;1.015;0.0;0.162;0.014660765416920185;-0.019547687843441963;0.00855211354792118
01:00:0A:00:00:00:00;1727050034;23/09/24;00:07:14;1.009;0.006;0.161;0.014660765416920185;0.0024434609804302454;0.009773843921720982
01:00:0A:00:00:00:00;1727050035;23/09/24;00:07:15;1.005;0.002;0.162;0.01710422709584236;0.0036651913542300463;0.004886921960860491
01:00:0A:00:00:00:00;1727050036;23/09/24;00:07:16;0.998;0.001;0.154;0.02076941914856434;-0.010995574295520782;-0.0073303827084600925
01:00:0A:00:00:00:00;1727050037;23/09/24;00:07:17;1.001;0.0;0.15;0.019547687843441963;-0.012217304669320583;0.0036651913542300463
01:00:0A:00:00:00:00;1727050037;23/09/24;00:07:17;1.004;-0.001;0.156;0.019547687843441963;-0.019547687843441963;0.012217304669320583
01:00:0A:00:00:00:00;1727050038;23/09/24;00:07:18;1.015;0.0;0.159;0.021991148591041565;-0.0354301817715168;0.006108652334660292
01:00:0A:00:00:00:00;1727050039;23/09/24;00:07:19;1.02;0.004;0.162;0.021991148591041565;-0.021991148591041565;0.0073303827084600925
01:00:0A:00:00:00:00;1727050040;23/09/24;00:07:20;1.017;0.001;0.166;0.02321287989616394;-0.0024434609804302454;0.0073303827084600925
01:00:0A:00:00:00:00;1727050041;23/09/24;00:07:21;1.013;0.0;0.162;0.02687807008624077;-0.009773843921720982;-0.004886921960860491
01:00:0A:00:00:00:00;1727050042;23/09/24;00:07:22;1.005;0.0;0.155;0.025656338781118393;-0.0012217304902151227;0.004886921960860491
01:00:0A:00:00:00:00;1727050043;23/09/24;00:07:23;1.002;-0.003;0.159;0.025656338781118393;0.0;0.012217304669320583
01:00:0A:00:00:00:00;1727050044;23/09/24;00:07:24;1.004;0.0;0.157;0.02687807008624077;-0.01710422709584236;0.00855211354792118
01:00:0A:00:00:00:00;1727050045;23/09/24;00:07:25;1.007;0.004;0.149;0.028099799528717995;-0.013439035043120384;0.010995574295520782
01:00:0A:00:00:00:00;1727050046;23/09/24;00:07:26;1.007;0.002;0.158;0.02932153083384037;-0.013439035043120384;0.004886921960860491
01:00:0A:00:00:00:00;1727050047;23/09/24;00:07:27;1.01;0.003;0.161;0.03176499158143997;-0.028099799528717995;-0.0024434609804302454
01:00:0A:00:00:00:00;1727050048;23/09/24;00:07:28;1.01;0.001;0.158;0.030543262138962746;-0.014660765416920185;0.0024434609804302454
01:00:0A:00:00:00:00;1727050049;23/09/24;00:07:29;1.01;-0.001;0.163;0.030543262138962746;0.0;0.009773843921720982
01:00:0A:00:00:00:00;1727050050;23/09/24;00:07:30;1.009;0.0;0.161;0.030543262138962746;-0.018325956538319588;0.006108652334660292
01:00:0A:00:00:00:00;1727050051;23/09/24;00:07:31;1.01;0.001;0.156;0.030543262138962746;-0.0073303827084600925;0.00855211354792118
01:00:0A:00:00:00:00;1727050052;23/09/24;00:07:32;1.009;0.0;0.161;0.03176499158143997;0.0036651913542300463;0.00855211354792118
01:00:0A:00:00:00:00;1727050053;23/09/24;00:07:33;1.008;0.003;0.158;0.03298672288656235;-0.018325956538319588;0.0012217304902151227
01:00:0A:00:00:00:00;1727050054;23/09/24;00:07:34;1.005;0.001;0.152;0.03176499158143997;-0.018325956538319588;0.004886921960860491
01:00:0A:00:00:00:00;1727050055;23/09/24;00:07:35;1.002;0.0;0.162;0.03298672288656235;-0.006108652334660292;0.004886921960860491
01:00:0A:00:00:00:00;1727050056;23/09/24;00:07:36;1.004;0.001;0.163;0.03176499158143997;-0.015882495790719986;0.004886921960860491
01:00:0A:00:00:00:00;1727050057;23/09/24;00:07:37;1.009;0.001;0.152;0.030543262138962746;-0.013439035043120384;0.009773843921720982
01:00:0A:00:00:00:00;1727050058;23/09/24;00:07:38;1.012;0.001;0.162;0.03176499158143997;-0.0012217304902151227;0.0073303827084600925
01:00:0A:00:00:00:00;1727050059;23/09/24;00:07:39;1.013;0.002;0.165;0.03176499158143997;-0.014660765416920185;0.004886921960860491
01:00:0A:00:00:00:00;1727050060;23/09/24;00:07:40;1.015;0.0;0.154;0.03176499158143997;-0.010995574295520782;0.006108652334660292
01:00:0A:00:00:00:00;1727050061;23/09/24;00:07:41;1.009;0.0;0.158;0.03298672288656235;0.0036651913542300463;0.004886921960860491
01:00:0A:00:00:00:00;1727050062;23/09/24;00:07:42;1.002;0.0;0.162;0.03176499158143997;-0.018325956538319588;0.0073303827084600925
01:00:0A:00:00:00:00;1727050063;23/09/24;00:07:43;0.996;0.0;0.153;0.030543262138962746;-0.01710422709584236;0.012217304669320583
01:00:0A:00:00:00:00;1727050064;23/09/24;00:07:44;0.996;0.001;0.158;0.03176499158143997;0.0;0.0073303827084600925
01:00:0A:00:00:00:00;1727050065;23/09/24;00:07:45;1.003;0.003;0.163;0.030543262138962746;-0.02321287989616394;0.0073303827084600925
01:00:0A:00:00:00:00;1727050066;23/09/24;00:07:46;1.012;0.001;0.153;0.030543262138962746;-0.021991148591041565;0.0073303827084600925
01:00:0A:00:00:00:00;1727050067;23/09/24;00:07:47;1.02;0.001;0.162;0.03298672288656235;-0.006108652334660292;0.0012217304902151227
01:00:0A:00:00:00:00;1727050068;23/09/24;00:07:48;1.02;0.002;0.168;0.030543262138962746;-0.015882495790719986;0.004886921960860491
01:00:0A:00:00:00:00;1727050069;23/09/24;00:07:49;1.017;-0.001;0.158;0.028099799528717995;-0.014660765416920185;0.014660765416920185
01:00:0A:00:00:00:00;1727050070;23/09/24;00:07:50;1.007;0.0;0.162;0.02932153083384037;0.00855211354792118;0.010995574295520782
01:00:0A:00:00:00:00;1727050071;23/09/24;00:07:51;0.997;0.005;0.162;0.02687807008624077;-0.00855211354792118;0.012217304669320583
01:00:0A:00:00:00:00;1727050072;23/09/24;00:07:52;0.996;0.001;0.152;0.02687807008624077;-0.021991148591041565;0.00855211354792118
01:00:0A:00:00:00:00;1727050073;23/09/24;00:07:53;0.999;0.0;0.152;0.030543262138962746;-0.0024434609804302454;-0.0012217304902151227
01:00:0A:00:00:00:00;1727050074;23/09/24;00:07:54;1.006;0.003;0.163;0.028099799528717995;-0.025656338781118393;0.006108652334660292
01:00:0A:00:00:00:00;1727050075;23/09/24;00:07:55;1.013;-0.001;0.157;0.02687807008624077;-0.024434609338641167;0.009773843921720982
01:00:0A:00:00:00:00;1727050076;23/09/24;00:07:56;1.02;0.0;0.161;0.02932153083384037;0.0;0.009773843921720982
01:00:0A:00:00:00:00;1727050077;23/09/24;00:07:57;1.019;0.004;0.168;0.025656338781118393;-0.00855211354792118;0.013439035043120384
01:00:0A:00:00:00:00;1727050078;23/09/24;00:07:58;1.014;0.001;0.154;0.025656338781118393;-0.015882495790719986;0.014660765416920185
01:00:0A:00:00:00:00;1727050079;23/09/24;00:07:59;1.002;0.0;0.155;0.03176499158143997;0.0036651913542300463;-0.0036651913542300463
01:00:0A:00:00:00:00;1727050080;23/09/24;00:08:00;0.999;0.002;0.162;0.02932153083384037;-0.013439035043120384;0.0012217304902151227
01:00:0A:00:00:00:00;1727050081;23/09/24;00:08:01;1.0;-0.001;0.154;0.025656338781118393;-0.025656338781118393;0.012217304669320583
01:00:0A:00:00:00:00;1727050082;23/09/24;00:08:02;1.003;-0.002;0.154;0.03176499158143997;-0.0012217304902151227;0.0
01:00:0A:00:00:00:00;1727050083;23/09/24;00:08:03;1.007;0.005;0.164;0.028099799528717995;-0.019547687843441963;0.010995574295520782
01:00:0A:00:00:00:00;1727050084;23/09/24;00:08:04;1.013;0.0;0.155;0.02687807008624077;-0.024434609338641167;0.014660765416920185
01:00:0A:00:00:00:00;1727050085;23/09/24;00:08:05;1.015;0.0;0.159;0.03298672288656235;-0.0024434609804302454;-0.0036651913542300463
01:00:0A:00:00:00:00;1727050086;23/09/24;00:08:06;1.011;0.005;0.167;0.030543262138962746;-0.00855211354792118;0.0012217304902151227
01:00:0A:00:00:00:00;1727050087;23/09/24;00:08:07;1.008;-0.001;0.157;0.02687807008624077;-0.01710422709584236;0.014660765416920185
01:00:0A:00:00:00:00;1727050088;23/09/24;00:08:08;1.006;-0.004;0.156;0.03298672288656235;0.004886921960860491;0.0012217304902151227
01:00:0A:00:00:00:00;1727050089;23/09/24;00:08:09;1.005;0.005;0.162;0.030543262138962746;-0.0073303827084600925;0.006108652334660292
01:00:0A:00:00:00:00;1727050090;23/09/24;00:08:10;1.006;0.0;0.154;0.025656338781118393;-0.024434609338641167;0.02076941914856434
01:00:0A:00:00:00:00;1727050091;23/09/24;00:08:11;1.006;-0.003;0.155;0.03298672288656235;-0.009773843921720982;0.0
01:00:0A:00:00:00:00;1727050092;23/09/24;00:08:12;1.007;0.005;0.164;0.03176499158143997;-0.015882495790719986;0.004886921960860491
01:00:0A:00:00:00:00;1727050093;23/09/24;00:08:13;1.01;0.0;0.16;0.02687807008624077;-0.019547687843441963;0.019547687843441963
01:00:0A:00:00:00:00;1727050094;23/09/24;00:08:14;1.01;-0.002;0.158;0.03298672288656235;0.0;0.0012217304902151227
01:00:0A:00:00:00:00;1727050095;23/09/24;00:08:15;1.011;0.006;0.163;0.03176499158143997;-0.0073303827084600925;0.0036651913542300463
01:00:0A:00:00:00:00;1727050096;23/09/24;00:08:16;1.013;0.0;0.158;0.028099799528717995;-0.015882495790719986;0.01710422709584236
01:00:0A:00:00:00:00;1727050097;23/09/24;00:08:17;1.01;-0.004;0.157;0.03298672288656235;-0.004886921960860491;0.0012217304902151227
01:00:0A:00:00:00:00;1727050098;23/09/24;00:08:18;1.006;0.004;0.162;0.03420845419168472;-0.0073303827084600925;-0.0012217304902151227
01:00:0A:00:00:00:00;1727050099;23/09/24;00:08:19;1.004;0.0;0.156;0.025656338781118393;-0.018325956538319588;0.024434609338641167
01:00:0A:00:00:00:00;1727050100;23/09/24;00:08:20;1.004;-0.003;0.155;0.03298672288656235;-0.0073303827084600925;0.0036651913542300463
01:00:0A:00:00:00:00;1727050101;23/09/24;00:08:21;1.005;0.006;0.162;0.03420845419168472;-0.012217304669320583;-0.0012217304902151227
01:00:0A:00:00:00:00;1727050102;23/09/24;00:08:22;1.007;0.002;0.159;0.02687807008624077;-0.019547687843441963;0.02076941914856434
01:00:0A:00:00:00:00;1727050103;23/09/24;00:08:23;1.009;-0.003;0.158;0.03420845419168472;-0.00855211354792118;-0.0012217304902151227
01:00:0A:00:00:00:00;1727050104;23/09/24;00:08:24;1.01;0.007;0.162;0.0354301817715168;-0.009773843921720982;-0.004886921960860491
01:00:0A:00:00:00:00;1727050105;23/09/24;00:08:25;1.013;0.0;0.159;0.02932153083384037;-0.012217304669320583;0.014660765416920185
01:00:0A:00:00:00:00;1727050106;23/09/24;00:08:26;1.011;-0.008;0.156;0.03298672288656235;-0.006108652334660292;0.0073303827084600925
01:00:0A:00:00:00:00;1727050107;23/09/24;00:08:27;1.008;0.004;0.161;0.0354301817715168;-0.009773843921720982;0.0012217304902151227
01:00:0A:00:00:00:00;1727050108;23/09/24;00:08:28;1.005;0.004;0.159;0.028099799528717995;-0.015882495790719986;0.024434609338641167
01:00:0A:00:00:00:00;1727050109;23/09/24;00:08:29;1.004;-0.004;0.157;0.03420845419168472;-0.009773843921720982;0.006108652334660292
01:00:0A:00:00:00:00;1727050110;23/09/24;00:08:30;1.003;0.005;0.159;0.03787364438176155;-0.012217304669320583;-0.00855211354792118
01:00:0A:00:00:00:00;1727050111;23/09/24;00:08:31;1.006;0.004;0.157;0.030543262138962746;-0.018325956538319588;0.01710422709584236
01:00:0A:00:00:00:00;1727050112;23/09/24;00:08:32;1.011;-0.006;0.158;0.0354301817715168;-0.010995574295520782;0.0012217304902151227
01:00:0A:00:00:00:00;1727050113;23/09/24;00:08:33;1.012;0.002;0.161;0.03787364438176155;-0.009773843921720982;-0.006108652334660292
01:00:0A:00:00:00:00;1727050114;23/09/24;00:08:34;1.012;0.002;0.16;0.030543262138962746;-0.012217304669320583;0.021991148591041565
01:00:0A:00:00:00:00;1727050115;23/09/24;00:08:35;1.01;-0.005;0.159;0.03298672288656235;-0.00855211354792118;0.015882495790719986
01:00:0A:00:00:00:00;1727050116;23/09/24;00:08:36;1.007;0.005;0.158;0.039095375686883926;-0.009773843921720982;-0.0012217304902151227
01:00:0A:00:00:00:00;1727050117;23/09/24;00:08:37;1.006;0.005;0.159;0.03298672288656235;-0.013439035043120384;0.01710422709584236
01:00:0A:00:00:00:00;1727050118;23/09/24;00:08:38;1.004;-0.004;0.16;0.036651913076639175;-0.00855211354792118;0.0073303827084600925
01:00:0A:00:00:00:00;1727050119;23/09/24;00:08:39;1.006;0.003;0.159;0.04153883829712868;-0.010995574295520782;-0.0073303827084600925
01:00:0A:00:00:00:00;1727050120;23/09/24;00:08:40;1.008;0.005;0.157;0.03298672288656235;-0.009773843921720982;0.01710422709584236
01:00:0A:00:00:00:00;1727050121;23/09/24;00:08:41;1.008;-0.005;0.159;0.036651913076639175;-0.010995574295520782;0.00855211354792118
01:00:0A:00:00:00:00;1727050122;23/09/24;00:08:42;1.01;0.002;0.159;0.04153883829712868;-0.014660765416920185;-0.004886921960860491
01:00:0A:00:00:00:00;1727050123;23/09/24;00:08:43;1.011;0.005;0.159;0.03420845419168472;-0.00855211354792118;0.02076941914856434
01:00:0A:00:00:00:00;1727050124;23/09/24;00:08:44;1.007;-0.004;0.162;0.036651913076639175;-0.004886921960860491;0.015882495790719986
01:00:0A:00:00:00:00;1727050125;23/09/24;00:08:45;1.007;0.001;0.159;0.042760565876960754;-0.00855211354792118;-0.004886921960860491
01:00:0A:00:00:00:00;1727050126;23/09/24;00:08:46;1.005;0.005;0.156;0.036651913076639175;-0.00855211354792118;0.015882495790719986
01:00:0A:00:00:00:00;1727050127;23/09/24;00:08:47;1.007;-0.004;0.159;0.03787364438176155;-0.009773843921720982;0.012217304669320583
01:00:0A:00:00:00:00;1727050128;23/09/24;00:08:48;1.009;0.002;0.159;0.045204028487205505;-0.018325956538319588;-0.009773843921720982
01:00:0A:00:00:00:00;1727050129;23/09/24;00:08:49;1.01;0.004;0.159;0.039095375686883926;-0.009773843921720982;0.009773843921720982
01:00:0A:00:00:00:00;1727050130;23/09/24;00:08:50;1.009;-0.005;0.162;0.039095375686883926;-0.0036651913542300463;0.014660765416920185
01:00:0A:00:00:00:00;1727050131;23/09/24;00:08:51;1.01;0.0;0.161;0.04398229718208313;-0.012217304669320583;-0.0036651913542300463
01:00:0A:00:00:00:00;1727050132;23/09/24;00:08:52;1.009;0.004;0.155;0.039095375686883926;-0.006108652334660292;0.015882495790719986
01:00:0A:00:00:00:00;1727050133;23/09/24;00:08:53;1.006;-0.003;0.16;0.039095375686883926;-0.0073303827084600925;0.02076941914856434
01:00:0A:00:00:00:00;1727050134;23/09/24;00:08:54;1.006;0.0;0.16;0.04398229718208313;-0.018325956538319588;0.0
01:00:0A:00:00:00:00;1727050135;23/09/24;00:08:55;1.009;0.009;0.155;0.04153883829712868;-0.009773843921720982;0.010995574295520782
01:00:0A:00:00:00:00;1727050136;23/09/24;00:08:56;1.008;-0.001;0.162;0.04153883829712868;-0.006108652334660292;0.012217304669320583
01:00:0A:00:00:00:00;1727050137;23/09/24;00:08:57;1.008;0.0;0.161;0.045204028487205505;-0.018325956538319588;-0.004886921960860491
01:00:0A:00:00:00:00;1727050138;23/09/24;00:08:58;1.007;0.004;0.155;0.04153883829712868;-0.009773843921720982;0.010995574295520782
01:00:0A:00:00:00:00;1727050139;23/09/24;00:08:59;1.009;-0.002;0.162;0.040317103266716;-0.0036651913542300463;0.019547687843441963
01:00:0A:00:00:00:00;1727050140;23/09/24;00:09:00;1.008;0.0;0.162;0.04398229718208313;-0.019547687843441963;0.0024434609804302454
01:00:0A:00:00:00:00;1727050141;23/09/24;00:09:01;1.008;0.006;0.156;0.04153883829712868;-0.00855211354792118;0.012217304669320583
01:00:0A:00:00:00:00;1727050142;23/09/24;00:09:02;1.008;0.0;0.16;0.040317103266716;0.0012217304902151227;0.014660765416920185
01:00:0A:00:00:00:00;1727050143;23/09/24;00:09:03;1.008;0.0;0.16;0.045204028487205505;-0.019547687843441963;-0.0012217304902151227
01:00:0A:00:00:00:00;1727050144;23/09/24;00:09:04;1.009;0.004;0.153;0.04153883829712868;-0.013439035043120384;0.00855211354792118
01:00:0A:00:00:00:00;1727050145;23/09/24;00:09:05;1.007;-0.001;0.162;0.040317103266716;-0.004886921960860491;0.013439035043120384
01:00:0A:00:00:00:00;1727050146;23/09/24;00:09:06;1.007;0.0;0.163;0.042760565876960754;-0.019547687843441963;0.0024434609804302454
01:00:0A:00:00:00:00;1727050147;23/09/24;00:09:07;1.01;0.006;0.155;0.040317103266716;-0.009773843921720982;0.00855211354792118
01:00:0A:00:00:00:00;1727050148;23/09/24;00:09:08;1.01;-0.001;0.162;0.039095375686883926;0.004886921960860491;0.013439035043120384
01:00:0A:00:00:00:00;1727050149;23/09/24;00:09:09;1.009;0.0;0.161;0.04153883829712868;-0.013439035043120384;0.0024434609804302454
01:00:0A:00:00:00:00;1727050150;23/09/24;00:09:10;1.009;0.003;0.152;0.039095375686883926;-0.009773843921720982;0.00855211354792118
01:00:0A:00:00:00:00;1727050151;23/09/24;00:09:11;1.009;0.0;0.16;0.03787364438176155;0.0;0.014660765416920185
01:00:0A:00:00:00:00;1727050152;23/09/24;00:09:12;1.007;0.0;0.162;0.040317103266716;-0.02076941914856434;0.0036651913542300463
01:00:0A:00:00:00:00;1727050153;23/09/24;00:09:13;1.005;0.006;0.155;0.039095375686883926;-0.014660765416920185;0.0073303827084600925
01:00:0A:00:00:00:00;1727050154;23/09/24;00:09:14;1.004;0.0;0.16;0.03787364438176155;-0.0012217304902151227;0.009773843921720982
01:00:0A:00:00:00:00;1727050155;23/09/24;00:09:15;1.008;0.0;0.165;0.039095375686883926;-0.018325956538319588;0.0024434609804302454
01:00:0A:00:00:00:00;1727050156;23/09/24;00:09:16;1.009;0.001;0.154;0.036651913076639175;-0.009773843921720982;0.00855211354792118
01:00:0A:00:00:00:00;1727050157;23/09/24;00:09:17;1.011;0.0;0.162;0.036651913076639175;0.0036651913542300463;0.012217304669320583
01:00:0A:00:00:00:00;1727050158;23/09/24;00:09:18;1.013;0.0;0.164;0.036651913076639175;-0.013439035043120384;0.004886921960860491
01:00:0A:00:00:00:00;1727050159;23/09/24;00:09:19;1.012;0.003;0.154;0.0354301817715168;-0.012217304669320583;0.00855211354792118
01:00:0A:00:00:00:00;1727050160;23/09/24;00:09:20;1.006;0.0;0.159;0.036651913076639175;0.004886921960860491;0.009773843921720982
01:00:0A:00:00:00:00;1727050161;23/09/24;00:09:21;1.002;0.0;0.162;0.036651913076639175;-0.018325956538319588;0.0036651913542300463
01:00:0A:00:00:00:00;1727050162;23/09/24;00:09:22;1.005;0.001;0.156;0.0354301817715168;-0.015882495790719986;0.0073303827084600925
01:00:0A:00:00:00:00;1727050163;23/09/24;00:09:23;1.005;0.0;0.159;0.036651913076639175;0.0024434609804302454;0.0073303827084600925
01:00:0A:00:00:00:00;1727050164;23/09/24;00:09:24;1.008;0.001;0.163;0.036651913076639175;-0.01710422709584236;0.0036651913542300463
01:00:0A:00:00:00:00;1727050165;23/09/24;00:09:25;1.012;0.001;0.155;0.0354301817715168;-0.015882495790719986;0.00855211354792118
01:00:0A:00:00:00:00;1727050166;23/09/24;00:09:26;1.013;0.0;0.161;0.036651913076639175;0.0;0.00855211354792118
01:00:0A:00:00:00:00;1727050167;23/09/24;00:09:27;1.012;0.002;0.164;0.0354301817715168;-0.009773843921720982;0.006108652334660292
01:00:0A:00:00:00:00;1727050168;23/09/24;00:09:28;1.009;0.001;0.156;0.03420845419168472;-0.013439035043120384;0.009773843921720982
01:00:0A:00:00:00:00;1727050169;23/09/24;00:09:29;1.005;0.0;0.158;0.036651913076639175;0.0024434609804302454;0.0073303827084600925
01:00:0A:00:00:00:00;1727050170;23/09/24;00:09:30;1.004;0.001;0.161;0.036651913076639175;-0.015882495790719986;0.004886921960860491
01:00:0A:00:00:00:00;1727050171;23/09/24;00:09:31;1.006;0.002;0.156;0.03420845419168472;-0.018325956538319588;0.010995574295520782
01:00:0A:00:00:00:00;1727050172;23/09/24;00:09:32;1.008;0.0;0.16;0.036651913076639175;0.0;0.00855211354792118
01:00:0A:00:00:00:00;1727050173;23/09/24;00:09:33;1.01;0.002;0.163;0.036651913076639175;-0.014660765416920185;0.0073303827084600925
01:00:0A:00:00:00:00;1727050174;23/09/24;00:09:34;1.011;0.001;0.158;0.0354301817715168;-0.01710422709584236;0.010995574295520782
01:00:0A:00:00:00:00;1727050175;23/09/24;00:09:35;1.012;0.0;0.16;0.036651913076639175;0.0;0.006108652334660292
01:00:0A:00:00:00:00;1727050176;23/09/24;00:09:36;1.008;0.001;0.163;0.036651913076639175;-0.0073303827084600925;0.006108652334660292
01:00:0A:00:00:00:00;1727050177;23/09/24;00:09:37;1.006;0.0;0.156;0.03420845419168472;-0.015882495790719986;0.014660765416920185
01:00:0A:00:00:00:00;1727050178;23/09/24;00:09:38;1.003;0.0;0.158;0.036651913076639175;-0.0012217304902151227;0.00855211354792118
01:00:0A:00:00:00:00;1727050179;23/09/24;00:09:39;1.003;0.003;0.162;0.036651913076639175;-0.009773843921720982;0.006108652334660292
01:00:0A:00:00:00:00;1727050180;23/09/24;00:09:40;1.007;0.001;0.155;0.03420845419168472;-0.019547687843441963;0.010995574295520782
01:00:0A:00:00:00:00;1727050181;23/09/24;00:09:41;1.009;0.0;0.158;0.03787364438176155;-0.00855211354792118;0.0024434609804302454
01:00:0A:00:00:00:00;1727050182;23/09/24;00:09:42;1.013;0.002;0.164;0.036651913076639175;-0.014660765416920185;0.006108652334660292
01:00:0A:00:00:00:00;1727050183;23/09/24;00:09:43;1.013;0.0;0.16;0.03420845419168472;-0.012217304669320583;0.014660765416920185
01:00:0A:00:00:00:00;1727050184;23/09/24;00:09:44;1.011;-0.001;0.159;0.036651913076639175;0.0012217304902151227;0.009773843921720982
01:00:0A:00:00:00:00;1727050185;23/09/24;00:09:45;1.004;0.003;0.161;0.036651913076639175;-0.006108652334660292;0.006108652334660292
01:00:0A:00:00:00:00;1727050186;23/09/24;00:09:46;1.003;0.001;0.156;0.03420845419168472;-0.015882495790719986;0.012217304669320583
01:00:0A:00:00:00:00;1727050187;23/09/24;00:09:47;1.003;0.0;0.157;0.03787364438176155;-0.00855211354792118;0.0012217304902151227
01:00:0A:00:00:00:00;1727050188;23/09/24;00:09:48;1.005;0.001;0.162;0.036651913076639175;-0.013439035043120384;0.0012217304902151227
01:00:0A:00:00:00:00;1727050189;23/09/24;00:09:49;1.01;-0.001;0.16;0.03298672288656235;-0.018325956538319588;0.014660765416920185
01:00:0A:00:00:00:00;1727050190;23/09/24;00:09:50;1.011;-0.001;0.16;0.036651913076639175;-0.006108652334660292;0.00855211354792118
01:00:0A:00:00:00:00;1727050191;23/09/24;00:09:51;1.01;0.004;0.161;0.036651913076639175;-0.006108652334660292;0.006108652334660292
01:00:0A:00:00:00:00;1727050192;23/09/24;00:09:52;1.009;0.001;0.158;0.0354301817715168;-0.014660765416920185;0.010995574295520782
01:00:0A:00:00:00:00;1727050193;23/09/24;00:09:53;1.008;0.0;0.158;0.03787364438176155;-0.009773843921720982;0.0024434609804302454
01:00:0A:00:00:00:00;1727050194;23/09/24;00:09:54;1.006;0.001;0.162;0.03787364438176155;-0.010995574295520782;0.0012217304902151227
01:00:0A:00:00:00:00;1727050195;23/09/24;00:09:55;1.006;0.0;0.16;0.0354301817715168;-0.012217304669320583;0.010995574295520782
01:00:0A:00:00:00:00;1727050196;23/09/24;00:09:56;1.006;-0.003;0.159;0.036651913076639175;-0.006108652334660292;0.009773843921720982
01:00:0A:00:00:00:00;1727050197;23/09/24;00:09:57;1.007;0.004;0.16;0.036651913076639175;-0.009773843921720982;0.00855211354792118
01:00:0A:00:00:00:00;1727050198;23/09/24;00:09:58;1.008;0.003;0.158;0.0354301817715168;-0.015882495790719986;0.012217304669320583
01:00:0A:00:00:00:00;1727050199;23/09/24;00:09:59;1.009;0.0;0.159;0.03787364438176155;-0.010995574295520782;0.0036651913542300463
01:00:0A:00:00:00:00;1727050200;23/09/24;00:10:00;1.01;0.001;0.162;0.039095375686883926;-0.012217304669320583;0.0
01:00:0A:00:00:00:00;1727050201;23/09/24;00:10:01;1.008;0.0;0.16;0.0354301817715168;-0.010995574295520782;0.013439035043120384
01:00:0A:00:00:00:00;1727050202;23/09/24;00:10:02;1.008;0.0;0.16;0.03787364438176155;-0.004886921960860491;0.0073303827084600925
01:00:0A:00:00:00:00;1727050203;23/09/24;00:10:03;1.009;0.001;0.159;0.039095375686883926;-0.006108652334660292;0.0036651913542300463
01:00:0A:00:00:00:00;1727050204;23/09/24;00:10:04;1.007;0.003;0.157;0.0354301817715168;-0.012217304669320583;0.012217304669320583
01:00:0A:00:00:00:00;1727050205;23/09/24;00:10:05;1.009;-0.001;0.158;0.03787364438176155;-0.013439035043120384;0.00855211354792118
01:00:0A:00:00:00:00;1727050206;23/09/24;00:10:06;1.008;0.001;0.16;0.039095375686883926;-0.013439035043120384;0.004886921960860491
01:00:0A:00:00:00:00;1727050207;23/09/24;00:10:07;1.007;0.001;0.162;0.036651913076639175;-0.012217304669320583;0.012217304669320583
01:00:0A:00:00:00:00;1727050208;23/09/24;00:10:08;1.009;-0.001;0.159;0.03787364438176155;-0.0073303827084600925;0.009773843921720982
01:00:0A:00:00:00:00;1727050209;23/09/24;00:10:09;1.009;0.003;0.161;0.039095375686883926;-0.00855211354792118;0.0036651913542300463
01:00:0A:00:00:00:00;1727050210;23/09/24;00:10:10;1.008;0.002;0.157;0.036651913076639175;-0.009773843921720982;0.009773843921720982
01:00:0A:00:00:00:00;1727050211;23/09/24;00:10:11;1.008;0.0;0.159;0.03787364438176155;-0.010995574295520782;0.0073303827084600925
01:00:0A:00:00:00:00;1727050212;23/09/24;00:10:12;1.009;0.0;0.161;0.040317103266716;-0.012217304669320583;0.004886921960860491
01:00:0A:00:00:00:00;1727050213;23/09/24;00:10:13;1.007;0.002;0.159;0.036651913076639175;-0.010995574295520782;0.014660765416920185
01:00:0A:00:00:00:00;1727050214;23/09/24;00:10:14;1.006;0.0;0.16;0.039095375686883926;-0.009773843921720982;0.009773843921720982
01:00:0A:00:00:00:00;1727050215;23/09/24;00:10:15;1.007;0.001;0.16;0.040317103266716;-0.010995574295520782;0.0036651913542300463
01:00:0A:00:00:00:00;1727050216;23/09/24;00:10:16;1.009;0.002;0.158;0.03787364438176155;-0.009773843921720982;0.010995574295520782
01:00:0A:00:00:00:00;1727050217;23/09/24;00:10:17;1.009;0.0;0.16;0.039095375686883926;-0.010995574295520782;0.010995574295520782
01:00:0A:00:00:00:00;1727050218;23/09/24;00:10:18;1.01;0.001;0.159;0.040317103266716;-0.012217304669320583;0.0024434609804302454
01:00:0A:00:00:00:00;1727050219;23/09/24;00:10:19;1.008;0.001;0.159;0.039095375686883926;-0.010995574295520782;0.010995574295520782
01:00:0A:00:00:00:00;1727050220;23/09/24;00:10:20;1.007;-0.001;0.161;0.039095375686883926;-0.009773843921720982;0.012217304669320583
01:00:0A:00:00:00:00;1727050221;23/09/24;00:10:21;1.007;0.0;0.16;0.040317103266716;-0.012217304669320583;0.004886921960860491
01:00:0A:00:00:00:00;1727050222;23/09/24;00:10:22;1.007;0.002;0.158;0.039095375686883926;-0.00855211354792118;0.012217304669320583
01:00:0A:00:00:00:00;1727050223;23/09/24;00:10:23;1.008;0.0;0.16;0.039095375686883926;-0.00855211354792118;0.009773843921720982
01:00:0A:00:00:00:00;1727050224;23/09/24;00:10:24;1.008;0.001;0.16;0.04153883829712868;-0.013439035043120384;0.004886921960860491
01:00:0A:00:00:00:00;1727050225;23/09/24;00:10:25;1.009;0.003;0.159;0.039095375686883926;-0.010995574295520782;0.009773843921720982
01:00:0A:00:00:00:00;1727050226;23/09/24;00:10:26;1.006;0.0;0.161;0.039095375686883926;-0.010995574295520782;0.009773843921720982
01:00:0A:00:00:00:00;1727050227;23/09/24;00:10:27;1.008;0.0;0.16;0.04153883829712868;-0.013439035043120384;0.0024434609804302454
01:00:0A:00:00:00:00;1727050228;23/09/24;00:10:28;1.008;0.002;0.159;0.040317103266716;-0.00855211354792118;0.00855211354792118
01:00:0A:00:00:00:00;1727050229;23/09/24;00:10:29;1.009;0.0;0.16;0.039095375686883926;-0.006108652334660292;0.010995574295520782
01:00:0A:00:00:00:00;1727050230;23/09/24;00:10:30;1.008;0.0;0.159;0.04153883829712868;-0.012217304669320583;0.004886921960860491
01:00:0A:00:00:00:00;1727050231;23/09/24;00:10:31;1.01;0.001;0.159;0.039095375686883926;-0.010995574295520782;0.009773843921720982
01:00:0A:00:00:00:00;1727050232;23/09/24;00:10:32;1.007;0.0;0.159;0.039095375686883926;-0.00855211354792118;0.012217304669320583
01:00:0A:00:00:00:00;1727050233;23/09/24;00:10:33;1.006;0.001;0.159;0.040317103266716;-0.013439035043120384;0.004886921960860491
01:00:0A:00:00:00:00;1727050234;23/09/24;00:10:34;1.008;0.001;0.158;0.040317103266716;-0.012217304669320583;0.006108652334660292
01:00:0A:00:00:00:00;1727050235;23/09/24;00:10:35;1.009;0.0;0.161;0.039095375686883926;-0.00855211354792118;0.00855211354792118
01:00:0A:00:00:00:00;1727050236;23/09/24;00:10:36;1.011;0.0;0.16;0.040317103266716;-0.012217304669320583;0.006108652334660292
01:00:0A:00:00:00:00;1727050237;23/09/24;00:10:37;1.011;0.001;0.158;0.039095375686883926;-0.009773843921720982;0.009773843921720982
01:00:0A:00:00:00:00;1727050238;23/09/24;00:10:38;1.008;0.0;0.16;0.03787364438176155;-0.006108652334660292;0.012217304669320583
01:00:0A:00:00:00:00;1727050239;23/09/24;00:10:39;1.005;0.0;0.159;0.039095375686883926;-0.012217304669320583;0.006108652334660292
01:00:0A:00:00:00:00;1727050240;23/09/24;00:10:40;1.006;0.001;0.157;0.039095375686883926;-0.009773843921720982;0.00855211354792118
01:00:0A:00:00:00:00;1727050241;23/09/24;00:10:41;1.007;0.0;0.159;0.03787364438176155;-0.00855211354792118;0.009773843921720982
01:00:0A:00:00:00:00;1727050242;23/09/24;00:10:42;1.011;0.0;0.16;0.039095375686883926;-0.013439035043120384;0.0036651913542300463
01:00:0A:00:00:00:00;1727050243;23/09/24;00:10:43;1.012;0.0;0.159;0.03787364438176155;-0.010995574295520782;0.0073303827084600925
01:00:0A:00:00:00:00;1727050244;23/09/24;00:10:44;1.009;0.0;0.16;0.03787364438176155;-0.004886921960860491;0.010995574295520782
01:00:0A:00:00:00:00;1727050245;23/09/24;00:10:45;1.005;0.0;0.16;0.03787364438176155;-0.010995574295520782;0.006108652334660292
01:00:0A:00:00:00:00;1727050246;23/09/24;00:10:46;1.007;0.001;0.156;0.03787364438176155;-0.012217304669320583;0.006108652334660292
01:00:0A:00:00:00:00;1727050247;23/09/24;00:10:47;1.007;0.0;0.16;0.036651913076639175;-0.0073303827084600925;0.009773843921720982
01:00:0A:00:00:00:00;1727050248;23/09/24;00:10:48;1.009;0.0;0.16;0.03787364438176155;-0.010995574295520782;0.006108652334660292
01:00:0A:00:00:00:00;1727050249;23/09/24;00:10:49;1.011;0.002;0.158;0.03787364438176155;-0.012217304669320583;0.006108652334660292
01:00:0A:00:00:00:00;1727050250;23/09/24;00:10:50;1.008;0.001;0.159;0.036651913076639175;-0.006108652334660292;0.00855211354792118
01:00:0A:00:00:00:00;1727050251;23/09/24;00:10:51;1.007;0.0;0.16;0.036651913076639175;-0.012217304669320583;0.006108652334660292
01:00:0A:00:00:00:00;1727050252;23/09/24;00:10:52;1.006;0.0;0.159;0.036651913076639175;-0.012217304669320583;0.006108652334660292
01:00:0A:00:00:00:00;1727050253;23/09/24;00:10:53;1.008;0.001;0.159;0.0354301817715168;-0.0073303827084600925;0.009773843921720982
01:00:0A:00:00:00:00;1727050254;23/09/24;00:10:54;1.009;0.0;0.162;0.0354301817715168;-0.013439035043120384;0.006108652334660292
01:00:0A:00:00:00:00;1727050255;23/09/24;00:10:55;1.01;0.002;0.158;0.0354301817715168;-0.010995574295520782;0.006108652334660292
01:00:0A:00:00:00:00;1727050256;23/09/24;00:10:56;1.009;0.001;0.16;0.03420845419168472;-0.0036651913542300463;0.009773843921720982
01:00:0A:00:00:00:00;1727050257;23/09/24;00:10:57;1.006;0.0;0.16;0.0354301817715168;-0.010995574295520782;0.006108652334660292
01:00:0A:00:00:00:00;1727050258;23/09/24;00:10:58;1.005;0.001;0.157;0.03420845419168472;-0.015882495790719986;0.006108652334660292
01:00:0A:00:00:00:00;1727050259;23/09/24;00:10:59;1.009;0.001;0.159;0.03420845419168472;-0.006108652334660292;0.00855211354792118
01:00:0A:00:00:00:00;1727050260;23/09/24;00:11:00;1.008;0.001;0.162;0.03298672288656235;-0.009773843921720982;0.00855211354792118
01:00:0A:00:00:00:00;1727050261;23/09/24;00:11:01;1.009;0.001;0.159;0.03420845419168472;-0.013439035043120384;0.006108652334660292
01:00:0A:00:00:00:00;1727050262;23/09/24;00:11:02;1.008;0.0;0.158;0.03298672288656235;-0.0036651913542300463;0.00855211354792118
01:00:0A:00:00:00:00;1727050263;23/09/24;00:11:03;1.006;0.0;0.162;0.03298672288656235;-0.0073303827084600925;0.0073303827084600925
01:00:0A:00:00:00:00;1727050264;23/09/24;00:11:04;1.008;0.0;0.157;0.03176499158143997;-0.014660765416920185;0.0073303827084600925
01:00:0A:00:00:00:00;1727050265;23/09/24;00:11:05;1.008;0.0;0.157;0.03176499158143997;-0.0073303827084600925;0.00855211354792118
01:00:0A:00:00:00:00;1727050266;23/09/24;00:11:06;1.009;0.0;0.162;0.03176499158143997;-0.010995574295520782;0.0073303827084600925
01:00:0A:00:00:00:00;1727050267;23/09/24;00:11:07;1.01;0.0;0.159;0.03176499158143997;-0.015882495790719986;0.006108652334660292
01:00:0A:00:00:00:00;1727050268;23/09/24;00:11:08;1.009;0.0;0.158;0.030543262138962746;-0.006108652334660292;0.0073303827084600925
01:00:0A:00:00:00:00;1727050269;23/09/24;00:11:09;1.007;0.0;0.162;0.030543262138962746;-0.00855211354792118;0.006108652334660292
01:00:0A:00:00:00:00;1727050270;23/09/24;00:11:10;1.007;0.001;0.158;0.030543262138962746;-0.015882495790719986;0.006108652334660292
01:00:0A:00:00:00:00;1727050271;23/09/24;00:11:11;1.008;0.0;0.157;0.030543262138962746;-0.004886921960860491;0.0073303827084600925
01:00:0A:00:00:00:00;1727050272;23/09/24;00:11:12;1.007;0.0;0.161;0.02932153083384037;-0.00855211354792118;0.0073303827084600925
01:00:0A:00:00:00:00;1727050273;23/09/24;00:11:13;1.01;0.0;0.158;0.02932153083384037;-0.01710422709584236;0.0073303827084600925
01:00:0A:00:00:00:00;1727050274;23/09/24;00:11:14;1.009;0.0;0.156;0.02932153083384037;-0.00855211354792118;0.0073303827084600925
01:00:0A:00:00:00:00;1727050275;23/09/24;00:11:15;1.008;0.0;0.162;0.02932153083384037;-0.0073303827084600925;0.006108652334660292
01:00:0A:00:00:00:00;1727050276;23/09/24;00:11:16;1.008;0.0;0.159;0.028099799528717995;-0.015882495790719986;0.006108652334660292
01:00:0A:00:00:00:00;1727050277;23/09/24;00:11:17;1.007;0.0;0.156;0.028099799528717995;-0.00855211354792118;0.0073303827084600925
01:00:0A:00:00:00:00;1727050278;23/09/24;00:11:18;1.008;0.0;0.162;0.028099799528717995;-0.0073303827084600925;0.006108652334660292
01:00:0A:00:00:00:00;1727050279;23/09/24;00:11:19;1.009;0.001;0.16;0.02687807008624077;-0.015882495790719986;0.0073303827084600925
01:00:0A:00:00:00:00;1727050280;23/09/24;00:11:20;1.01;0.0;0.156;0.028099799528717995;-0.0073303827084600925;0.0073303827084600925
01:00:0A:00:00:00:00;1727050281;23/09/24;00:11:21;1.008;0.0;0.161;0.028099799528717995;-0.0073303827084600925;0.006108652334660292
01:00:0A:00:00:00:00;1727050282;23/09/24;00:11:22;1.007;0.001;0.161;0.02687807008624077;-0.015882495790719986;0.0073303827084600925
01:00:0A:00:00:00:00;1727050283;23/09/24;00:11:23;1.008;0.0;0.156;0.028099799528717995;-0.0073303827084600925;0.006108652334660292
01:00:0A:00:00:00:00;1727050284;23/09/24;00:11:24;1.005;0.0;0.161;0.02687807008624077;-0.0073303827084600925;0.006108652334660292
01:00:0A:00:00:00:00;1727050285;23/09/24;00:11:25;1.007;0.001;0.159;0.02687807008624077;-0.018325956538319588;0.00855211354792118
01:00:0A:00:00:00:00;1727050286;23/09/24;00:11:26;1.009;0.0;0.157;0.02687807008624077;-0.00855211354792118;0.0073303827084600925
01:00:0A:00:00:00:00;1727050287;23/09/24;00:11:27;1.009;0.001;0.161;0.028099799528717995;-0.004886921960860491;0.0036651913542300463
01:00:0A:00:00:00:00;1727050288;23/09/24;00:11:28;1.01;0.001;0.159;0.02687807008624077;-0.015882495790719986;0.006108652334660292
01:00:0A:00:00:00:00;1727050289;23/09/24;00:11:29;1.009;0.0;0.157;0.02687807008624077;-0.010995574295520782;0.0073303827084600925
01:00:0A:00:00:00:00;1727050290;23/09/24;00:11:30;1.007;0.0;0.161;0.028099799528717995;-0.004886921960860491;0.004886921960860491
01:00:0A:00:00:00:00;1727050291;23/09/24;00:11:31;1.006;0.001;0.161;0.025656338781118393;-0.015882495790719986;0.009773843921720982
01:00:0A:00:00:00:00;1727050292;23/09/24;00:11:32;1.009;0.0;0.155;0.02687807008624077;-0.00855211354792118;0.00855211354792118
01:00:0A:00:00:00:00;1727050293;23/09/24;00:11:33;1.007;0.0;0.16;0.02687807008624077;-0.0073303827084600925;0.0036651913542300463
01:00:0A:00:00:00:00;1727050294;23/09/24;00:11:34;1.007;0.001;0.162;0.025656338781118393;-0.015882495790719986;0.006108652334660292
01:00:0A:00:00:00:00;1727050295;23/09/24;00:11:35;1.01;0.0;0.156;0.02687807008624077;-0.010995574295520782;0.004886921960860491
01:00:0A:00:00:00:00;1727050296;23/09/24;00:11:36;1.01;0.0;0.162;0.02687807008624077;-0.004886921960860491;0.0036651913542300463
01:00:0A:00:00:00:00;1727050297;23/09/24;00:11:37;1.01;0.001;0.162;0.024434609338641167;-0.014660765416920185;0.009773843921720982
01:00:0A:00:00:00:00;1727050298;23/09/24;00:11:38;1.009;0.0;0.157;0.025656338781118393;-0.009773843921720982;0.009773843921720982
01:00:0A:00:00:00:00;1727050299;23/09/24;00:11:39;1.007;0.001;0.159;0.02687807008624077;-0.0024434609804302454;0.0036651913542300463
01:00:0A:00:00:00:00;1727050300;23/09/24;00:11:40;1.006;0.002;0.16;0.025656338781118393;-0.015882495790719986;0.00855211354792118
01:00:0A:00:00:00:00;1727050301;23/09/24;00:11:41;1.006;0.0;0.157;0.025656338781118393;-0.013439035043120384;0.0073303827084600925
01:00:0A:00:00:00:00;1727050302;23/09/24;00:11:42;1.007;0.0;0.16;0.028099799528717995;-0.006108652334660292;0.0012217304902151227
01:00:0A:00:00:00:00;1727050303;23/09/24;00:11:43;1.009;0.0;0.162;0.025656338781118393;-0.013439035043120384;0.00855211354792118
01:00:0A:00:00:00:00;1727050304;23/09/24;00:11:44;1.01;0.0;0.156;0.024434609338641167;-0.010995574295520782;0.010995574295520782
01:00:0A:00:00:00:00;1727050305;23/09/24;00:11:45;1.009;0.0;0.16;0.02687807008624077;-0.004886921960860491;0.0036651913542300463
01:00:0A:00:00:00:00;1727050306;23/09/24;00:11:46;1.009;0.002;0.161;0.025656338781118393;-0.013439035043120384;0.0073303827084600925
01:00:0A:00:00:00:00;1727050307;23/09/24;00:11:47;1.008;0.0;0.158;0.025656338781118393;-0.014660765416920185;0.00855211354792118
01:00:0A:00:00:00:00;1727050308;23/09/24;00:11:48;1.006;0.0;0.16;0.028099799528717995;-0.004886921960860491;0.0012217304902151227
01:00:0A:00:00:00:00;1727050309;23/09/24;00:11:49;1.006;0.002;0.161;0.025656338781118393;-0.013439035043120384;0.00855211354792118
01:00:0A:00:00:00:00;1727050310;23/09/24;00:11:50;1.007;0.0;0.158;0.025656338781118393;-0.013439035043120384;0.010995574295520782
01:00:0A:00:00:00:00;1727050311;23/09/24;00:11:51;1.009;0.0;0.159;0.028099799528717995;-0.006108652334660292;0.0012217304902151227
01:00:0A:00:00:00:00;1727050312;23/09/24;00:11:52;1.009;0.003;0.161;0.025656338781118393;-0.013439035043120384;0.0073303827084600925
01:00:0A:00:00:00:00;1727050313;23/09/24;00:11:53;1.008;0.0;0.158;0.025656338781118393;-0.014660765416920185;0.009773843921720982
01:00:0A:00:00:00:00;1727050314;23/09/24;00:11:54;1.009;0.0;0.159;0.02932153083384037;-0.006108652334660292;0.0012217304902151227
01:00:0A:00:00:00:00;1727050315;23/09/24;00:11:55;1.007;0.002;0.162;0.02687807008624077;-0.010995574295520782;0.006108652334660292
01:00:0A:00:00:00:00;1727050316;23/09/24;00:11:56;1.008;0.0;0.158;0.025656338781118393;-0.012217304669320583;0.012217304669320583
01:00:0A:00:00:00:00;1727050317;23/09/24;00:11:57;1.007;0.0;0.158;0.02932153083384037;-0.006108652334660292;0.0012217304902151227
01:00:0A:00:00:00:00;1727050318;23/09/24;00:11:58;1.007;0.003;0.162;0.02687807008624077;-0.013439035043120384;0.004886921960860491
01:00:0A:00:00:00:00;1727050319;23/09/24;00:11:59;1.009;0.0;0.157;0.025656338781118393;-0.015882495790719986;0.012217304669320583
01:00:0A:00:00:00:00;1727050320;23/09/24;00:12:00;1.01;0.0;0.16;0.02932153083384037;-0.0073303827084600925;0.0012217304902151227
01:00:0A:00:00:00:00;1727050321;23/09/24;00:12:01;1.009;0.003;0.161;0.02687807008624077;-0.009773843921720982;0.006108652334660292
01:00:0A:00:00:00:00;1727050322;23/09/24;00:12:02;1.009;0.0;0.159;0.024434609338641167;-0.013439035043120384;0.013439035043120384
01:00:0A:00:00:00:00;1727050323;23/09/24;00:12:03;1.008;-0.001;0.158;0.028099799528717995;-0.006108652334660292;0.0012217304902151227
01:00:0A:00:00:00:00;1727050324;23/09/24;00:12:04;1.007;0.003;0.161;0.02687807008624077;-0.010995574295520782;0.004886921960860491
01:00:0A:00:00:00:00;1727050325;23/09/24;00:12:05;1.008;0.0;0.158;0.024434609338641167;-0.013439035043120384;0.012217304669320583
01:00:0A:00:00:00:00;1727050326;23/09/24;00:12:06;1.007;-0.001;0.158;0.028099799528717995;-0.0073303827084600925;0.0012217304902151227
01:00:0A:00:00:00:00;1727050327;23/09/24;00:12:07;1.007;0.004;0.16;0.02687807008624077;-0.009773843921720982;0.0036651913542300463
01:00:0A:00:00:00:00;1727050328;23/09/24;00:12:08;1.008;0.0;0.159;0.024434609338641167;-0.013439035043120384;0.014660765416920185
01:00:0A:00:00:00:00;1727050329;23/09/24;00:12:09;1.008;-0.001;0.159;0.028099799528717995;-0.00855211354792118;0.0024434609804302454
01:00:0A:00:00:00:00;1727050330;23/09/24;00:12:10;1.008;0.003;0.161;0.02687807008624077;-0.009773843921720982;0.0024434609804302454
01:00:0A:00:00:00:00;1727050331;23/09/24;00:12:11;1.009;0.0;0.159;0.024434609338641167;-0.013439035043120384;0.013439035043120384
01:00:0A:00:00:00:00;1727050332;23/09/24;00:12:12;1.009;-0.001;0.158;0.028099799528717995;-0.00855211354792118;0.0024434609804302454
01:00:0A:00:00:00:00;1727050333;23/09/24;00:12:13;1.007;0.003;0.161;0.02687807008624077;-0.009773843921720982;0.0024434609804302454
01:00:0A:00:00:00:00;1727050334;23/09/24;00:12:14;1.008;0.0;0.158;0.02321287989616394;-0.013439035043120384;0.013439035043120384
01:00:0A:00:00:00:00;1727050335;23/09/24;00:12:15;1.009;-0.002;0.158;0.02687807008624077;-0.009773843921720982;0.0024434609804302454
01:00:0A:00:00:00:00;1727050336;23/09/24;00:12:16;1.008;0.004;0.16;0.02687807008624077;-0.009773843921720982;0.0012217304902151227
01:00:0A:00:00:00:00;1727050337;23/09/24;00:12:17;1.008;0.001;0.159;0.02321287989616394;-0.012217304669320583;0.014660765416920185
01:00:0A:00:00:00:00;1727050338;23/09/24;00:12:18;1.009;-0.002;0.158;0.025656338781118393;-0.009773843921720982;0.0036651913542300463
01:00:0A:00:00:00:00;1727050339;23/09/24;00:12:19;1.009;0.003;0.161;0.02687807008624077;-0.009773843921720982;0.0
01:00:0A:00:00:00:00;1727050340;23/09/24;00:12:20;1.008;0.002;0.159;0.021991148591041565;-0.012217304669320583;0.013439035043120384
01:00:0A:00:00:00:00;1727050341;23/09/24;00:12:21;1.008;-0.002;0.16;0.024434609338641167;-0.009773843921720982;0.0036651913542300463
01:00:0A:00:00:00:00;1727050342;23/09/24;00:12:22;1.008;0.003;0.16;0.025656338781118393;-0.009773843921720982;0.0012217304902151227
01:00:0A:00:00:00:00;1727050343;23/09/24;00:12:23;1.008;0.001;0.159;0.02076941914856434;-0.010995574295520782;0.014660765416920185
01:00:0A:00:00:00:00;1727050344;23/09/24;00:12:24;1.008;-0.002;0.159;0.024434609338641167;-0.009773843921720982;0.0036651913542300463
01:00:0A:00:00:00:00;1727050345;23/09/24;00:12:25;1.008;0.002;0.16;0.024434609338641167;-0.010995574295520782;0.0
01:00:0A:00:00:00:00;1727050346;23/09/24;00:12:26;1.008;0.002;0.159;0.019547687843441963;-0.012217304669320583;0.013439035043120384
01:00:0A:00:00:00:00;1727050347;23/09/24;00:12:27;1.008;-0.001;0.159;0.02321287989616394;-0.010995574295520782;0.004886921960860491
01:00:0A:00:00:00:00;1727050348;23/09/24;00:12:28;1.009;0.002;0.159;0.024434609338641167;-0.010995574295520782;-0.0024434609804302454
01:00:0A:00:00:00:00;1727050349;23/09/24;00:12:29;1.009;0.001;0.158;0.019547687843441963;-0.009773843921720982;0.013439035043120384
01:00:0A:00:00:00:00;1727050350;23/09/24;00:12:30;1.007;-0.002;0.159;0.02076941914856434;-0.009773843921720982;0.006108652334660292
01:00:0A:00:00:00:00;1727050351;23/09/24;00:12:31;1.008;0.003;0.159;0.02321287989616394;-0.010995574295520782;-0.0012217304902151227
01:00:0A:00:00:00:00;1727050352;23/09/24;00:12:32;1.008;0.002;0.159;0.018325956538319588;-0.010995574295520782;0.012217304669320583
01:00:0A:00:00:00:00;1727050353;23/09/24;00:12:33;1.007;-0.002;0.159;0.019547687843441963;-0.010995574295520782;0.0073303827084600925
01:00:0A:00:00:00:00;1727050354;23/09/24;00:12:34;1.006;0.002;0.16;0.021991148591041565;-0.012217304669320583;-0.0012217304902151227
01:00:0A:00:00:00:00;1727050355;23/09/24;00:12:35;1.008;0.003;0.159;0.018325956538319588;-0.009773843921720982;0.010995574295520782
01:00:0A:00:00:00:00;1727050356;23/09/24;00:12:36;1.009;-0.002;0.159;0.019547687843441963;-0.010995574295520782;0.006108652334660292
01:00:0A:00:00:00:00;1727050357;23/09/24;00:12:37;1.009;0.0;0.16;0.021991148591041565;-0.012217304669320583;-0.0024434609804302454
01:00:0A:00:00:00:00;1727050358;23/09/24;00:12:38;1.009;0.002;0.159;0.01710422709584236;-0.009773843921720982;0.010995574295520782
01:00:0A:00:00:00:00;1727050359;23/09/24;00:12:39;1.008;-0.003;0.16;0.018325956538319588;-0.009773843921720982;0.0073303827084600925
01:00:0A:00:00:00:00;1727050360;23/09/24;00:12:40;1.008;0.0;0.16;0.02076941914856434;-0.012217304669320583;-0.0036651913542300463
01:00:0A:00:00:00:00;1727050361;23/09/24;00:12:41;1.009;0.002;0.159;0.01710422709584236;-0.00855211354792118;0.010995574295520782
01:00:0A:00:00:00:00;1727050362;23/09/24;00:12:42;1.008;-0.002;0.159;0.01710422709584236;-0.009773843921720982;0.00855211354792118
01:00:0A:00:00:00:00;1727050363;23/09/24;00:12:43;1.009;0.001;0.16;0.02076941914856434;-0.013439035043120384;-0.0036651913542300463
01:00:0A:00:00:00:00;1727050364;23/09/24;00:12:44;1.007;0.003;0.159;0.01710422709584236;-0.009773843921720982;0.00855211354792118
01:00:0A:00:00:00:00;1727050365;23/09/24;00:12:45;1.008;-0.003;0.161;0.01710422709584236;-0.009773843921720982;0.00855211354792118
01:00:0A:00:00:00:00;1727050366;23/09/24;00:12:46;1.009;0.001;0.16;0.019547687843441963;-0.012217304669320583;-0.0024434609804302454
01:00:0A:00:00:00:00;1727050367;23/09/24;00:12:47;1.009;0.003;0.158;0.015882495790719986;-0.009773843921720982;0.00855211354792118
01:00:0A:00:00:00:00;1727050368;23/09/24;00:12:48;1.009;-0.002;0.161;0.015882495790719986;-0.00855211354792118;0.009773843921720982
01:00:0A:00:00:00:00;1727050369;23/09/24;00:12:49;1.009;0.0;0.16;0.019547687843441963;-0.013439035043120384;-0.0024434609804302454
01:00:0A:00:00:00:00;1727050370;23/09/24;00:12:50;1.008;0.004;0.158;0.015882495790719986;-0.009773843921720982;0.0073303827084600925
01:00:0A:00:00:00:00;1727050371;23/09/24;00:12:51;1.008;-0.001;0.16;0.015882495790719986;-0.00855211354792118;0.009773843921720982
01:00:0A:00:00:00:00;1727050372;23/09/24;00:12:52;1.008;0.0;0.159;0.019547687843441963;-0.013439035043120384;-0.0036651913542300463
01:00:0A:00:00:00:00;1727050373;23/09/24;00:12:53;1.01;0.004;0.158;0.015882495790719986;-0.009773843921720982;0.0073303827084600925
01:00:0A:00:00:00:00;1727050374;23/09/24;00:12:54;1.008;-0.001;0.16;0.014660765416920185;-0.00855211354792118;0.010995574295520782
01:00:0A:00:00:00:00;1727050375;23/09/24;00:12:55;1.007;0.0;0.159;0.018325956538319588;-0.014660765416920185;-0.0024434609804302454
01:00:0A:00:00:00:00;1727050376;23/09/24;00:12:56;1.007;0.003;0.159;0.014660765416920185;-0.010995574295520782;0.006108652334660292
01:00:0A:00:00:00:00;1727050377;23/09/24;00:12:57;1.008;-0.001;0.16;0.013439035043120384;-0.00855211354792118;0.010995574295520782
01:00:0A:00:00:00:00;1727050378;23/09/24;00:12:58;1.008;0.0;0.16;0.01710422709584236;-0.014660765416920185;-0.0024434609804302454
01:00:0A:00:00:00:00;1727050379;23/09/24;00:12:59;1.009;0.004;0.158;0.014660765416920185;-0.010995574295520782;0.004886921960860491
01:00:0A:00:00:00:00;1727050380;23/09/24;00:13:00;1.009;0.0;0.161;0.012217304669320583;-0.0073303827084600925;0.012217304669320583
01:00:0A:00:00:00:00;1727050381;23/09/24;00:13:01;1.009;0.0;0.16;0.01710422709584236;-0.013439035043120384;-0.0012217304902151227
01:00:0A:00:00:00:00;1727050382;23/09/24;00:13:02;1.009;0.005;0.157;0.014660765416920185;-0.010995574295520782;0.0036651913542300463
01:00:0A:00:00:00:00;1727050383;23/09/24;00:13:03;1.008;0.0;0.162;0.012217304669320583;-0.00855211354792118;0.010995574295520782
01:00:0A:00:00:00:00;1727050384;23/09/24;00:13:04;1.008;-0.001;0.161;0.015882495790719986;-0.013439035043120384;-0.0012217304902151227
01:00:0A:00:00:00:00;1727050385;23/09/24;00:13:05;1.008;0.004;0.157;0.013439035043120384;-0.010995574295520782;0.004886921960860491
01:00:0A:00:00:00:00;1727050386;23/09/24;00:13:06;1.008;0.0;0.16;0.010995574295520782;-0.0073303827084600925;0.012217304669320583
01:00:0A:00:00:00:00;1727050387;23/09/24;00:13:07;1.008;0.0;0.16;0.014660765416920185;-0.013439035043120384;-0.0012217304902151227
01:00:0A:00:00:00:00;1727050388;23/09/24;00:13:08;1.008;0.004;0.157;0.013439035043120384;-0.012217304669320583;0.0036651913542300463
01:00:0A:00:00:00:00;1727050389;23/09/24;00:13:09;1.008;0.0;0.16;0.010995574295520782;-0.0073303827084600925;0.012217304669320583
01:00:0A:00:00:00:00;1727050390;23/09/24;00:13:10;1.009;0.0;0.161;0.013439035043120384;-0.013439035043120384;-0.0012217304902151227
01:00:0A:00:00:00:00;1727050391;23/09/24;00:13:11;1.009;0.003;0.157;0.012217304669320583;-0.010995574295520782;0.0012217304902151227
01:00:0A:00:00:00:00;1727050392;23/09/24;00:13:12;1.007;0.0;0.16;0.009773843921720982;-0.006108652334660292;0.012217304669320583
01:00:0A:00:00:00:00;1727050393;23/09/24;00:13:13;1.007;-0.002;0.16;0.012217304669320583;-0.013439035043120384;0.0012217304902151227
01:00:0A:00:00:00:00;1727050394;23/09/24;00:13:14;1.007;0.003;0.157;0.012217304669320583;-0.012217304669320583;0.0012217304902151227
01:00:0A:00:00:00:00;1727050395;23/09/24;00:13:15;1.008;0.0;0.159;0.00855211354792118;-0.0073303827084600925;0.010995574295520782
01:00:0A:00:00:00:00;1727050396;23/09/24;00:13:16;1.009;-0.001;0.161;0.012217304669320583;-0.013439035043120384;0.0
01:00:0A:00:00:00:00;1727050397;23/09/24;00:13:17;1.009;0.003;0.157;0.010995574295520782;-0.012217304669320583;0.0012217304902151227
01:00:0A:00:00:00:00;1727050398;23/09/24;00:13:18;1.008;0.002;0.159;0.00855211354792118;-0.006108652334660292;0.010995574295520782
01:00:0A:00:00:00:00;1727050399;23/09/24;00:13:19;1.008;-0.001;0.16;0.010995574295520782;-0.013439035043120384;0.0012217304902151227
01:00:0A:00:00:00:00;1727050400;23/09/24;00:13:20;1.008;0.002;0.158;0.010995574295520782;-0.012217304669320583;0.0
01:00:0A:00:00:00:00;1727050401;23/09/24;00:13:21;1.007;0.0;0.16;0.0073303827084600925;-0.0073303827084600925;0.010995574295520782
01:00:0A:00:00:00:00;1727050402;23/09/24;00:13:22;1.009;0.0;0.16;0.009773843921720982;-0.013439035043120384;0.0024434609804302454
01:00:0A:00:00:00:00;1727050403;23/09/24;00:13:23;1.008;0.003;0.158;0.010995574295520782;-0.013439035043120384;0.0
01:00:0A:00:00:00:00;1727050404;23/09/24;00:13:24;1.009;0.0;0.159;0.0073303827084600925;-0.006108652334660292;0.010995574295520782
01:00:0A:00:00:00:00;1727050405;23/09/24;00:13:25;1.008;0.0;0.16;0.009773843921720982;-0.012217304669320583;0.0024434609804302454
01:00:0A:00:00:00:00;1727050406;23/09/24;00:13:26;1.009;0.002;0.158;0.010995574295520782;-0.014660765416920185;-0.0012217304902151227
01:00:0A:00:00:00:00;1727050407;23/09/24;00:13:27;1.008;0.002;0.159;0.0073303827084600925;-0.0073303827084600925;0.009773843921720982
01:00:0A:00:00:00:00;1727050408;23/09/24;00:13:28;1.008;-0.002;0.162;0.00855211354792118;-0.010995574295520782;0.0036651913542300463
01:00:0A:00:00:00:00;1727050409;23/09/24;00:13:29;1.007;0.002;0.158;0.010995574295520782;-0.013439035043120384;-0.0012217304902151227
01:00:0A:00:00:00:00;1727050410;23/09/24;00:13:30;1.008;0.001;0.159;0.00855211354792118;-0.0073303827084600925;0.00855211354792118
01:00:0A:00:00:00:00;1727050411;23/09/24;00:13:31;1.008;-0.001;0.161;0.009773843921720982;-0.012217304669320583;0.004886921960860491
01:00:0A:00:00:00:00;1727050412;23/09/24;00:13:32;1.008;0.002;0.158;0.010995574295520782;-0.014660765416920185;0.0
01:00:0A:00:00:00:00;1727050413;23/09/24;00:13:33;1.008;0.003;0.159;0.00855211354792118;-0.0073303827084600925;0.009773843921720982
01:00:0A:00:00:00:00;1727050414;23/09/24;00:13:34;1.007;0.0;0.162;0.009773843921720982;-0.010995574295520782;0.004886921960860491
01:00:0A:00:00:00:00;1727050415;23/09/24;00:13:35;1.008;0.001;0.158;0.010995574295520782;-0.014660765416920185;-0.0012217304902151227
01:00:0A:00:00:00:00;1727050416;23/09/24;00:13:36;1.009;0.003;0.157;0.00855211354792118;-0.0073303827084600925;0.00855211354792118
01:00:0A:00:00:00:00;1727050417;23/09/24;00:13:37;1.007;-0.001;0.161;0.009773843921720982;-0.010995574295520782;0.006108652334660292
01:00:0A:00:00:00:00;1727050418;23/09/24;00:13:38;1.008;0.001;0.16;0.012217304669320583;-0.014660765416920185;-0.0012217304902151227
01:00:0A:00:00:00:00;1727050419;23/09/24;00:13:39;1.008;0.003;0.158;0.009773843921720982;-0.0073303827084600925;0.00855211354792118
01:00:0A:00:00:00:00;1727050420;23/09/24;00:13:40;1.008;-0.001;0.161;0.009773843921720982;-0.009773843921720982;0.006108652334660292
01:00:0A:00:00:00:00;1727050421;23/09/24;00:13:41;1.008;0.001;0.157;0.013439035043120384;-0.014660765416920185;-0.0012217304902151227
01:00:0A:00:00:00:00;1727050422;23/09/24;00:13:42;1.008;0.003;0.158;0.010995574295520782;-0.00855211354792118;0.0073303827084600925
01:00:0A:00:00:00:00;1727050423;23/09/24;00:13:43;1.008;0.0;0.161;0.010995574295520782;-0.009773843921720982;0.0073303827084600925
01:00:0A:00:00:00:00;1727050424;23/09/24;00:13:44;1.009;0.001;0.159;0.013439035043120384;-0.014660765416920185;-0.0012217304902151227
01:00:0A:00:00:00:00;1727050425;23/09/24;00:13:45;1.009;0.003;0.158;0.012217304669320583;-0.00855211354792118;0.0073303827084600925
01:00:0A:00:00:00:00;1727050426;23/09/24;00:13:46;1.007;-0.001;0.162;0.012217304669320583;-0.00855211354792118;0.0073303827084600925
01:00:0A:00:00:00:00;1727050427;23/09/24;00:13:47;1.007;0.0;0.16;0.014660765416920185;-0.014660765416920185;-0.0012217304902151227
01:00:0A:00:00:00:00;1727050428;23/09/24;00:13:48;1.008;0.003;0.157;0.012217304669320583;-0.00855211354792118;0.0073303827084600925
01:00:0A:00:00:00:00;1727050429;23/09/24;00:13:49;1.008;0.0;0.161;0.012217304669320583;-0.00855211354792118;0.00855211354792118
01:00:0A:00:00:00:00;1727050430;23/09/24;00:13:50;1.009;0.001;0.159;0.014660765416920185;-0.015882495790719986;-0.0012217304902151227
01:00:0A:00:00:00:00;1727050431;23/09/24;00:13:51;1.009;0.003;0.157;0.013439035043120384;-0.00855211354792118;0.006108652334660292
01:00:0A:00:00:00:00;1727050432;23/09/24;00:13:52;1.008;-0.001;0.161;0.012217304669320583;-0.0073303827084600925;0.00855211354792118
01:00:0A:00:00:00:00;1727050433;23/09/24;00:13:53;1.009;0.0;0.159;0.014660765416920185;-0.014660765416920185;0.0
01:00:0A:00:00:00:00;1727050434;23/09/24;00:13:54;1.008;0.003;0.158;0.013439035043120384;-0.009773843921720982;0.006108652334660292
01:00:0A:00:00:00:00;1727050435;23/09/24;00:13:55;1.007;0.0;0.161;0.012217304669320583;-0.0073303827084600925;0.00855211354792118
01:00:0A:00:00:00:00;1727050436;23/09/24;00:13:56;1.008;0.0;0.16;0.015882495790719986;-0.014660765416920185;0.0
01:00:0A:00:00:00:00;1727050437;23/09/24;00:13:57;1.008;0.003;0.157;0.014660765416920185;-0.009773843921720982;0.004886921960860491
01:00:0A:00:00:00:00;1727050438;23/09/24;00:13:58;1.009;-0.001;0.161;0.012217304669320583;-0.0073303827084600925;0.00855211354792118
01:00:0A:00:00:00:00;1727050439;23/09/24;00:13:59;1.009;0.0;0.16;0.015882495790719986;-0.015882495790719986;0.0
01:00:0A:00:00:00:00;1727050440;23/09/24;00:14:00;1.008;0.002;0.157;0.013439035043120384;-0.009773843921720982;0.004886921960860491
01:00:0A:00:00:00:00;1727050441;23/09/24;00:14:01;1.007;0.0;0.16;0.012217304669320583;-0.0073303827084600925;0.009773843921720982
01:00:0A:00:00:00:00;1727050442;23/09/24;00:14:02;1.008;0.0;0.16;0.014660765416920185;-0.015882495790719986;0.0
01:00:0A:00:00:00:00;1727050443;23/09/24;00:14:03;1.008;0.003;0.157;0.013439035043120384;-0.010995574295520782;0.0036651913542300463
01:00:0A:00:00:00:00;1727050444;23/09/24;00:14:04;1.008;0.0;0.161;0.012217304669320583;-0.006108652334660292;0.009773843921720982
01:00:0A:00:00:00:00;1727050445;23/09/24;00:14:05;1.007;0.0;0.16;0.014660765416920185;-0.014660765416920185;0.0012217304902151227
01:00:0A:00:00:00:00;1727050446;23/09/24;00:14:06;1.009;0.002;0.157;0.013439035043120384;-0.012217304669320583;0.0036651913542300463
01:00:0A:00:00:00:00;1727050457;23/09/24;00:14:17;1.008;0.0;0.162;0.010995574295520782;-0.013439035043120384;0.0024434609804302454
01:00:0A:00:00:00:00;1727050458;23/09/24;00:14:18;1.007;0.001;0.157;0.010995574295520782;-0.013439035043120384;0.0012217304902151227
01:00:0A:00:00:00:00;1727050459;23/09/24;00:14:19;1.008;0.0;0.16;0.00855211354792118;-0.004886921960860491;0.009773843921720982
01:00:0A:00:00:00:00;1727050460;23/09/24;00:14:20;1.009;0.0;0.161;0.009773843921720982;-0.013439035043120384;0.0024434609804302454
01:00:0A:00:00:00:00;1727050461;23/09/24;00:14:21;1.007;0.002;0.158;0.009773843921720982;-0.014660765416920185;0.0
01:00:0A:00:00:00:00;1727050462;23/09/24;00:14:22;1.009;0.001;0.159;0.0073303827084600925;-0.006108652334660292;0.0073303827084600925
01:00:0A:00:00:00:00;1727050463;23/09/24;00:14:23;1.008;0.0;0.162;0.00855211354792118;-0.012217304669320583;0.0036651913542300463
01:00:0A:00:00:00:00;1727050464;23/09/24;00:14:24;1.008;0.003;0.156;0.00855211354792118;-0.014660765416920185;0.0012217304902151227
01:00:0A:00:00:00:00;1727050465;23/09/24;00:14:25;1.008;0.001;0.157;0.0073303827084600925;-0.006108652334660292;0.0073303827084600925
01:00:0A:00:00:00:00;1727050466;23/09/24;00:14:26;1.008;0.0;0.161;0.0073303827084600925;-0.010995574295520782;0.0036651913542300463
01:00:0A:00:00:00:00;1727050467;23/09/24;00:14:27;1.008;0.001;0.159;0.00855211354792118;-0.014660765416920185;0.0
01:00:0A:00:00:00:00;1727050468;23/09/24;00:14:28;1.008;0.002;0.159;0.006108652334660292;-0.006108652334660292;0.0073303827084600925
01:00:0A:00:00:00:00;1727050469;23/09/24;00:14:29;1.007;0.0;0.162;0.0073303827084600925;-0.012217304669320583;0.0024434609804302454
01:00:0A:00:00:00:00;1727050470;23/09/24;00:14:30;1.009;0.001;0.158;0.00855211354792118;-0.014660765416920185;0.0
01:00:0A:00:00:00:00;1727050471;23/09/24;00:14:31;1.008;0.001;0.158;0.006108652334660292;-0.006108652334660292;0.00855211354792118
01:00:0A:00:00:00:00;1727050472;23/09/24;00:14:32;1.007;0.0;0.161;0.0073303827084600925;-0.010995574295520782;0.0036651913542300463
01:00:0A:00:00:00:00;1727050473;23/09/24;00:14:33;1.009;0.002;0.157;0.0073303827084600925;-0.015882495790719986;0.0
01:00:0A:00:00:00:00;1727050474;23/09/24;00:14:34;1.008;0.001;0.158;0.006108652334660292;-0.006108652334660292;0.0073303827084600925
01:00:0A:00:00:00:00;1727050475;23/09/24;00:14:35;1.006;0.0;0.162;0.006108652334660292;-0.010995574295520782;0.004886921960860491
01:00:0A:00:00:00:00;1727050476;23/09/24;00:14:36;1.008;0.001;0.158;0.0073303827084600925;-0.015882495790719986;0.0
01:00:0A:00:00:00:00;1727050477;23/09/24;00:14:37;1.008;0.001;0.157;0.006108652334660292;-0.0073303827084600925;0.006108652334660292
01:00:0A:00:00:00:00;1727050478;23/09/24;00:14:38;1.008;-0.001;0.162;0.006108652334660292;-0.009773843921720982;0.004886921960860491
01:00:0A:00:00:00:00;1727050479;23/09/24;00:14:39;1.008;0.001;0.158;0.0073303827084600925;-0.015882495790719986;0.0
01:00:0A:00:00:00:00;1727050480;23/09/24;00:14:40;1.009;0.001;0.158;0.006108652334660292;-0.0073303827084600925;0.0073303827084600925
01:00:0A:00:00:00:00;1727050481;23/09/24;00:14:41;1.006;0.0;0.162;0.006108652334660292;-0.009773843921720982;0.004886921960860491
01:00:0A:00:00:00:00;1727050482;23/09/24;00:14:42;1.007;0.0;0.159;0.00855211354792118;-0.015882495790719986;0.0
01:00:0A:00:00:00:00;1727050483;23/09/24;00:14:43;1.008;0.002;0.157;0.006108652334660292;-0.0073303827084600925;0.0073303827084600925
01:00:0A:00:00:00:00;1727050484;23/09/24;00:14:44;1.008;0.0;0.161;0.006108652334660292;-0.00855211354792118;0.006108652334660292
01:00:0A:00:00:00:00;1727050485;23/09/24;00:14:45;1.009;0.001;0.158;0.00855211354792118;-0.015882495790719986;0.0
01:00:0A:00:00:00:00;1727050486;23/09/24;00:14:46;1.009;0.002;0.157;0.006108652334660292;-0.00855211354792118;0.006108652334660292
01:00:0A:00:00:00:00;1727050487;23/09/24;00:14:47;1.007;0.0;0.161;0.006108652334660292;-0.00855211354792118;0.006108652334660292
01:00:0A:00:00:00:00;1727050488;23/09/24;00:14:48;1.008;0.0;0.16;0.00855211354792118;-0.015882495790719986;-0.0012217304902151227
01:00:0A:00:00:00:00;1727050489;23/09/24;00:14:49;1.009;0.002;0.158;0.006108652334660292;-0.00855211354792118;0.006108652334660292
01:00:0A:00:00:00:00;1727050490;23/09/24;00:14:50;1.008;0.0;0.162;0.006108652334660292;-0.0073303827084600925;0.0073303827084600925
01:00:0A:00:00:00:00;1727050491;23/09/24;00:14:51;1.008;0.0;0.159;0.0073303827084600925;-0.015882495790719986;0.0
01:00:0A:00:00:00:00;1727050492;23/09/24;00:14:52;1.008;0.002;0.157;0.006108652334660292;-0.009773843921720982;0.004886921960860491
01:00:0A:00:00:00:00;1727050493;23/09/24;00:14:53;1.008;0.0;0.161;0.006108652334660292;-0.0073303827084600925;0.006108652334660292
01:00:0A:00:00:00:00;1727050494;23/09/24;00:14:54;1.009;0.0;0.16;0.0073303827084600925;-0.015882495790719986;0.0
01:00:0A:00:00:00:00;1727050495;23/09/24;00:14:55;1.009;0.004;0.156;0.006108652334660292;-0.009773843921720982;0.004886921960860491
01:00:0A:00:00:00:00;1727050496;23/09/24;00:14:56;1.007;0.0;0.161;0.006108652334660292;-0.0073303827084600925;0.0073303827084600925
01:00:0A:00:00:00:00;1727050497;23/09/24;00:14:57;1.008;0.0;0.16;0.0073303827084600925;-0.015882495790719986;0.0
01:00:0A:00:00:00:00;1727050498;23/09/24;00:14:58;1.008;0.002;0.157;0.006108652334660292;-0.009773843921720982;0.004886921960860491
01:00:0A:00:00:00:00;1727050499;23/09/24;00:14:59;1.009;0.0;0.161;0.006108652334660292;-0.006108652334660292;0.0073303827084600925
01:00:0A:00:00:00:00;1727050500;23/09/24;00:15:00;1.008;0.0;0.16;0.0073303827084600925;-0.015882495790719986;-0.0012217304902151227
01:00:0A:00:00:00:00;1727050501;23/09/24;00:15:01;1.008;0.001;0.157;0.0073303827084600925;-0.010995574295520782;0.0036651913542300463
01:00:0A:00:00:00:00;1727050502;23/09/24;00:15:02;1.008;0.0;0.16;0.006108652334660292;-0.006108652334660292;0.00855211354792118
01:00:0A:00:00:00:00;1727050503;23/09/24;00:15:03;1.008;0.0;0.161;0.0073303827084600925;-0.014660765416920185;0.0
01:00:0A:00:00:00:00;1727050504;23/09/24;00:15:04;1.009;0.003;0.157;0.0073303827084600925;-0.012217304669320583;0.0024434609804302454
01:00:0A:00:00:00:00;1727050505;23/09/24;00:15:05;1.007;0.0;0.161;0.006108652334660292;-0.006108652334660292;0.0073303827084600925
01:00:0A:00:00:00:00;1727050506;23/09/24;00:15:06;1.008;0.0;0.161;0.00855211354792118;-0.014660765416920185;0.0012217304902151227
01:00:0A:00:00:00:00;1727050507;23/09/24;00:15:07;1.009;0.002;0.157;0.0073303827084600925;-0.012217304669320583;0.0024434609804302454
01:00:0A:00:00:00:00;1727050508;23/09/24;00:15:08;1.008;0.0;0.16;0.0073303827084600925;-0.006108652334660292;0.0073303827084600925
01:00:0A:00:00:00:00;1727050509;23/09/24;00:15:09;1.007;0.0;0.161;0.00855211354792118;-0.014660765416920185;0.0012217304902151227
01:00:0A:00:00:00:00;1727050510;23/09/24;00:15:10;1.008;0.003;0.157;0.00855211354792118;-0.012217304669320583;0.0024434609804302454
01:00:0A:00:00:00:00;1727050511;23/09/24;00:15:11;1.009;0.001;0.16;0.0073303827084600925;-0.006108652334660292;0.0073303827084600925
01:00:0A:00:00:00:00;1727050512;23/09/24;00:15:12;1.008;0.0;0.161;0.009773843921720982;-0.013439035043120384;0.0012217304902151227
01:00:0A:00:00:00:00;1727050513;23/09/24;00:15:13;1.008;0.002;0.157;0.009773843921720982;-0.013439035043120384;0.0024434609804302454
01:00:0A:00:00:00:00;1727050514;23/09/24;00:15:14;1.008;0.0;0.16;0.00855211354792118;-0.006108652334660292;0.00855211354792118
01:00:0A:00:00:00:00;1727050515;23/09/24;00:15:15;1.008;0.0;0.162;0.009773843921720982;-0.013439035043120384;0.0024434609804302454
01:00:0A:00:00:00:00;1727050516;23/09/24;00:15:16;1.008;0.002;0.156;0.009773843921720982;-0.013439035043120384;0.0012217304902151227
01:00:0A:00:00:00:00;1727050517;23/09/24;00:15:17;1.008;0.001;0.158;0.00855211354792118;-0.006108652334660292;0.00855211354792118
01:00:0A:00:00:00:00;1727050518;23/09/24;00:15:18;1.009;0.0;0.161;0.009773843921720982;-0.012217304669320583;0.0036651913542300463
01:00:0A:00:00:00:00;1727050519;23/09/24;00:15:19;1.009;0.002;0.157;0.010995574295520782;-0.014660765416920185;0.0012217304902151227
01:00:0A:00:00:00:00;1727050520;23/09/24;00:15:20;1.008;0.001;0.158;0.00855211354792118;-0.006108652334660292;0.0073303827084600925
01:00:0A:00:00:00:00;1727050521;23/09/24;00:15:21;1.007;0.0;0.161;0.009773843921720982;-0.012217304669320583;0.0036651913542300463
01:00:0A:00:00:00:00;1727050522;23/09/24;00:15:22;1.009;0.001;0.157;0.009773843921720982;-0.014660765416920185;0.0012217304902151227
01:00:0A:00:00:00:00;1727050523;23/09/24;00:15:23;1.009;0.001;0.158;0.00855211354792118;-0.006108652334660292;0.0073303827084600925
01:00:0A:00:00:00:00;1727050524;23/09/24;00:15:24;1.008;-0.001;0.161;0.00855211354792118;-0.010995574295520782;0.0036651913542300463
01:00:0A:00:00:00:00;1727050525;23/09/24;00:15:25;1.009;0.002;0.158;0.00855211354792118;-0.014660765416920185;0.0
01:00:0A:00:00:00:00;1727050526;23/09/24;00:15:26;1.009;0.002;0.159;0.0073303827084600925;-0.0073303827084600925;0.0073303827084600925
01:00:0A:00:00:00:00;1727050527;23/09/24;00:15:27;1.008;0.0;0.162;0.006108652334660292;-0.009773843921720982;0.004886921960860491
01:00:0A:00:00:00:00;1727050528;23/09/24;00:15:28;1.009;0.001;0.16;-0.004886921960860491;-0.014660765416920185;-0.0024434609804302454
01:00:0A:00:00:00:00;1727050529;23/09/24;00:15:29;1.009;0.002;0.157;-0.014660765416920185;-0.00855211354792118;0.0036651913542300463
01:00:0A:00:00:00:00;1727050530;23/09/24;00:15:30;1.009;0.0;0.161;-0.012217304669320583;-0.010995574295520782;0.0024434609804302454
01:00:0A:00:00:00:00;1727050531;23/09/24;00:15:31;1.009;0.0;0.159;-0.010995574295520782;-0.014660765416920185;-0.0036651913542300463
