Source;Epoch timestamp (UTC);Date;Time (UTC);Accel X (G);Accel Y (G);Accel Z (G);Gyro X (rad/s);Gyro Y (rad/s);Gyro Z (rad/s)
01:00:0A:00:00:00:00;1723939200;18/08/24;00:00:00;1.019;-0.022;0.076;-0.05742133408784866;-0.01710422709584236;-0.013439035043120384
01:00:0A:00:00:00:00;1723939201;18/08/24;00:00:01;1.014;-0.024;0.075;-0.05375614017248154;0.0036651913542300463;0.004886921960860491
01:00:0A:00:00:00:00;1723939202;18/08/24;00:00:02;1.009;-0.031;0.083;-0.05375614017248154;-0.015882495790719986;0.004886921960860491
01:00:0A:00:00:00:00;1723939203;18/08/24;00:00:03;1.009;-0.022;0.076;-0.051312677562236786;-0.025656338781118393;-0.006108652334660292
01:00:0A:00:00:00:00;1723939204;18/08/24;00:00:04;1.012;-0.019;0.076;-0.04886921867728233;-0.006108652334660292;0.00855211354792118
01:00:0A:00:00:00:00;1723939205;18/08/24;00:00:05;1.014;-0.03;0.085;-0.04642575979232788;-0.02076941914856434;-0.004886921960860491
01:00:0A:00:00:00:00;1723939206;18/08/24;00:00:06;1.017;-0.022;0.077;-0.04398229718208313;-0.02321287989616394;-0.013439035043120384
01:00:0A:00:00:00:00;1723939207;18/08/24;00:00:07;1.016;-0.023;0.08;-0.04398229718208313;-0.004886921960860491;0.009773843921720982
01:00:0A:00:00:00:00;1723939208;18/08/24;00:00:08;1.016;-0.032;0.086;-0.04398229718208313;-0.01710422709584236;0.0036651913542300463
01:00:0A:00:00:00:00;1723939209;18/08/24;00:00:09;1.014;-0.016;0.078;-0.040317103266716;-0.018325956538319588;-0.0073303827084600925
01:00:0A:00:00:00:00;1723939210;18/08/24;00:00:10;1.013;-0.02;0.081;-0.04153883829712868;0.0012217304902151227;0.010995574295520782
01:00:0A:00:00:00:00;1723939211;18/08/24;00:00:11;1.014;-0.028;0.083;-0.039095375686883926;-0.00855211354792118;-0.010995574295520782
01:00:0A:00:00:00:00;1723939212;18/08/24;00:00:12;1.016;-0.016;0.074;-0.03787364438176155;-0.010995574295520782;-0.013439035043120384
01:00:0A:00:00:00:00;1723939213;18/08/24;00:00:13;1.019;-0.022;0.077;-0.042760565876960754;-0.009773843921720982;0.012217304669320583
01:00:0A:00:00:00:00;1723939214;18/08/24;00:00:14;1.021;-0.034;0.08;-0.03787364438176155;-0.019547687843441963;-0.006108652334660292
01:00:0A:00:00:00:00;1723939215;18/08/24;00:00:15;1.02;-0.018;0.079;-0.039095375686883926;-0.019547687843441963;-0.004886921960860491
01:00:0A:00:00:00:00;1723939216;18/08/24;00:00:16;1.016;-0.026;0.084;-0.04398229718208313;-0.00855211354792118;0.024434609338641167
01:00:0A:00:00:00:00;1723939217;18/08/24;00:00:17;1.009;-0.031;0.083;-0.036651913076639175;-0.0036651913542300463;-0.0036651913542300463
01:00:0A:00:00:00:00;1723939218;18/08/24;00:00:18;1.004;-0.016;0.079;-0.0354301817715168;-0.0024434609804302454;-0.006108652334660292
01:00:0A:00:00:00:00;1723939219;18/08/24;00:00:19;1.002;-0.023;0.078;-0.04153883829712868;-0.00855211354792118;0.018325956538319588
01:00:0A:00:00:00:00;1723939220;18/08/24;00:00:20;1.006;-0.03;0.079;-0.03176499158143997;-0.014660765416920185;-0.01710422709584236
01:00:0A:00:00:00:00;1723939221;18/08/24;00:00:21;1.018;-0.017;0.08;-0.03420845419168472;-0.019547687843441963;-0.009773843921720982
01:00:0A:00:00:00:00;1723939222;18/08/24;00:00:22;1.028;-0.028;0.082;-0.03787364438176155;-0.014660765416920185;0.012217304669320583
01:00:0A:00:00:00:00;1723939223;18/08/24;00:00:23;1.027;-0.034;0.083;-0.030543262138962746;-0.006108652334660292;-0.0012217304902151227
01:00:0A:00:00:00:00;1723939224;18/08/24;00:00:24;1.02;-0.016;0.084;-0.03176499158143997;-0.0036651913542300463;-0.0024434609804302454
01:00:0A:00:00:00:00;1723939225;18/08/24;00:00:25;1.015;-0.025;0.079;-0.0354301817715168;-0.006108652334660292;0.018325956538319588
01:00:0A:00:00:00:00;1723939226;18/08/24;00:00:26;1.006;-0.028;0.081;-0.025656338781118393;0.0;-0.012217304669320583
01:00:0A:00:00:00:00;1723939227;18/08/24;00:00:27;1.005;-0.018;0.081;-0.02932153083384037;-0.009773843921720982;-0.004886921960860491
01:00:0A:00:00:00:00;1723939228;18/08/24;00:00:28;1.007;-0.026;0.077;-0.03298672288656235;-0.01710422709584236;0.012217304669320583
01:00:0A:00:00:00:00;1723939229;18/08/24;00:00:29;1.008;-0.026;0.081;-0.024434609338641167;-0.0073303827084600925;-0.015882495790719986
01:00:0A:00:00:00:00;1723939230;18/08/24;00:00:30;1.014;-0.015;0.084;-0.02932153083384037;-0.014660765416920185;-0.004886921960860491
01:00:0A:00:00:00:00;1723939231;18/08/24;00:00:31;1.018;-0.027;0.079;-0.03298672288656235;-0.013439035043120384;0.00855211354792118
01:00:0A:00:00:00:00;1723939232;18/08/24;00:00:32;1.018;-0.027;0.081;-0.024434609338641167;-0.0012217304902151227;-0.015882495790719986
01:00:0A:00:00:00:00;1723939233;18/08/24;00:00:33;1.02;-0.019;0.083;-0.030543262138962746;-0.00855211354792118;0.0
01:00:0A:00:00:00:00;1723939234;18/08/24;00:00:34;1.022;-0.03;0.076;-0.03298672288656235;-0.0073303827084600925;0.013439035043120384
01:00:0A:00:00:00:00;1723939235;18/08/24;00:00:35;1.018;-0.027;0.079;-0.024434609338641167;0.0012217304902151227;-0.0036651913542300463
01:00:0A:00:00:00:00;1723939236;18/08/24;00:00:36;1.015;-0.018;0.084;-0.03176499158143997;-0.013439035043120384;0.00855211354792118
01:00:0A:00:00:00:00;1723939237;18/08/24;00:00:37;1.011;-0.028;0.076;-0.03298672288656235;-0.013439035043120384;0.014660765416920185
01:00:0A:00:00:00:00;1723939238;18/08/24;00:00:38;1.01;-0.022;0.081;-0.02321287989616394;0.004886921960860491;-0.00855211354792118
01:00:0A:00:00:00:00;1723939239;18/08/24;00:00:39;1.008;-0.018;0.081;-0.030543262138962746;-0.018325956538319588;0.0024434609804302454
01:00:0A:00:00:00:00;1723939240;18/08/24;00:00:40;1.011;-0.03;0.075;-0.030543262138962746;-0.02076941914856434;0.006108652334660292
01:00:0A:00:00:00:00;1723939241;18/08/24;00:00:41;1.012;-0.025;0.081;-0.021991148591041565;-0.0036651913542300463;-0.013439035043120384
01:00:0A:00:00:00:00;1723939242;18/08/24;00:00:42;1.016;-0.021;0.085;-0.030543262138962746;-0.02321287989616394;0.004886921960860491
01:00:0A:00:00:00:00;1723939243;18/08/24;00:00:43;1.017;-0.031;0.076;-0.028099799528717995;-0.014660765416920185;0.0073303827084600925
01:00:0A:00:00:00:00;1723939244;18/08/24;00:00:44;1.019;-0.025;0.083;-0.021991148591041565;0.0024434609804302454;-0.0012217304902151227
01:00:0A:00:00:00:00;1723939245;18/08/24;00:00:45;1.018;-0.019;0.085;-0.030543262138962746;-0.01710422709584236;0.010995574295520782
01:00:0A:00:00:00:00;1723939246;18/08/24;00:00:46;1.018;-0.028;0.072;-0.02687807008624077;-0.010995574295520782;0.0073303827084600925
01:00:0A:00:00:00:00;1723939247;18/08/24;00:00:47;1.016;-0.021;0.082;-0.019547687843441963;0.004886921960860491;-0.0073303827084600925
01:00:0A:00:00:00:00;1723939248;18/08/24;00:00:48;1.012;-0.02;0.083;-0.02932153083384037;-0.024434609338641167;0.004886921960860491
01:00:0A:00:00:00:00;1723939249;18/08/24;00:00:49;1.011;-0.029;0.075;-0.024434609338641167;-0.015882495790719986;0.0036651913542300463
01:00:0A:00:00:00:00;1723939250;18/08/24;00:00:50;1.01;-0.023;0.086;-0.01710422709584236;0.0024434609804302454;-0.0073303827084600925
01:00:0A:00:00:00:00;1723939251;18/08/24;00:00:51;1.013;-0.024;0.085;-0.02687807008624077;-0.02076941914856434;0.00855211354792118
01:00:0A:00:00:00:00;1723939252;18/08/24;00:00:52;1.015;-0.029;0.074;-0.02076941914856434;-0.00855211354792118;0.0024434609804302454
01:00:0A:00:00:00:00;1723939253;18/08/24;00:00:53;1.018;-0.023;0.085;-0.01710422709584236;0.0036651913542300463;0.0
01:00:0A:00:00:00:00;1723939254;18/08/24;00:00:54;1.017;-0.023;0.083;-0.025656338781118393;-0.02321287989616394;0.012217304669320583
01:00:0A:00:00:00:00;1723939255;18/08/24;00:00:55;1.016;-0.027;0.073;-0.019547687843441963;-0.010995574295520782;0.00855211354792118
01:00:0A:00:00:00:00;1723939256;18/08/24;00:00:56;1.015;-0.022;0.086;-0.015882495790719986;0.0012217304902151227;0.0024434609804302454
01:00:0A:00:00:00:00;1723939257;18/08/24;00:00:57;1.015;-0.023;0.084;-0.024434609338641167;-0.025656338781118393;0.00855211354792118
01:00:0A:00:00:00:00;1723939258;18/08/24;00:00:58;1.016;-0.027;0.075;-0.01710422709584236;-0.006108652334660292;0.0012217304902151227
01:00:0A:00:00:00:00;1723939259;18/08/24;00:00:59;1.015;-0.022;0.086;-0.015882495790719986;0.0;-0.0012217304902151227
01:00:0A:00:00:00:00;1723939260;18/08/24;00:01:00;1.015;-0.023;0.084;-0.024434609338641167;-0.024434609338641167;0.006108652334660292
01:00:0A:00:00:00:00;1723939261;18/08/24;00:01:01;1.013;-0.025;0.074;-0.01710422709584236;-0.004886921960860491;0.0012217304902151227
01:00:0A:00:00:00:00;1723939262;18/08/24;00:01:02;1.012;-0.022;0.086;-0.01710422709584236;-0.0024434609804302454;-0.0012217304902151227
01:00:0A:00:00:00:00;1723939263;18/08/24;00:01:03;1.015;-0.024;0.082;-0.02321287989616394;-0.02932153083384037;0.0012217304902151227
01:00:0A:00:00:00:00;1723939264;18/08/24;00:01:04;1.017;-0.027;0.074;-0.01710422709584236;-0.00855211354792118;0.0
01:00:0A:00:00:00:00;1723939265;18/08/24;00:01:05;1.016;-0.024;0.088;-0.01710422709584236;-0.0024434609804302454;0.0012217304902151227
01:00:0A:00:00:00:00;1723939266;18/08/24;00:01:06;1.014;-0.026;0.081;-0.02321287989616394;-0.028099799528717995;0.0036651913542300463
01:00:0A:00:00:00:00;1723939267;18/08/24;00:01:07;1.015;-0.023;0.077;-0.015882495790719986;-0.004886921960860491;0.0
01:00:0A:00:00:00:00;1723939268;18/08/24;00:01:08;1.015;-0.023;0.09;-0.01710422709584236;0.0;-0.0036651913542300463
01:00:0A:00:00:00:00;1723939269;18/08/24;00:01:09;1.017;-0.027;0.082;-0.021991148591041565;-0.024434609338641167;-0.004886921960860491
01:00:0A:00:00:00:00;1723939270;18/08/24;00:01:10;1.02;-0.026;0.077;-0.015882495790719986;0.0012217304902151227;-0.006108652334660292
01:00:0A:00:00:00:00;1723939271;18/08/24;00:01:11;1.018;-0.026;0.088;-0.018325956538319588;0.0036651913542300463;0.004886921960860491
01:00:0A:00:00:00:00;1723939272;18/08/24;00:01:12;1.016;-0.028;0.078;-0.02321287989616394;-0.02321287989616394;0.0073303827084600925
01:00:0A:00:00:00:00;1723939273;18/08/24;00:01:13;1.011;-0.025;0.076;-0.018325956538319588;-0.0012217304902151227;0.0073303827084600925
01:00:0A:00:00:00:00;1723939274;18/08/24;00:01:14;1.009;-0.024;0.086;-0.02076941914856434;-0.00855211354792118;0.006108652334660292
01:00:0A:00:00:00:00;1723939275;18/08/24;00:01:15;1.009;-0.023;0.082;-0.021991148591041565;-0.024434609338641167;-0.0036651913542300463
01:00:0A:00:00:00:00;1723939276;18/08/24;00:01:16;1.012;-0.022;0.078;-0.01710422709584236;0.0012217304902151227;-0.0036651913542300463
01:00:0A:00:00:00:00;1723939277;18/08/24;00:01:17;1.017;-0.026;0.087;-0.02076941914856434;-0.00855211354792118;0.0
01:00:0A:00:00:00:00;1723939278;18/08/24;00:01:18;1.02;-0.026;0.077;-0.02321287989616394;-0.024434609338641167;0.0012217304902151227
01:00:0A:00:00:00:00;1723939279;18/08/24;00:01:19;1.02;-0.027;0.077;-0.019547687843441963;-0.0073303827084600925;0.00855211354792118
01:00:0A:00:00:00:00;1723939280;18/08/24;00:01:20;1.016;-0.025;0.089;-0.02321287989616394;-0.009773843921720982;0.012217304669320583
01:00:0A:00:00:00:00;1723939281;18/08/24;00:01:21;1.014;-0.022;0.081;-0.02321287989616394;-0.019547687843441963;0.0036651913542300463
01:00:0A:00:00:00:00;1723939282;18/08/24;00:01:22;1.013;-0.021;0.079;-0.018325956538319588;0.004886921960860491;0.0012217304902151227
01:00:0A:00:00:00:00;1723939283;18/08/24;00:01:23;1.012;-0.024;0.084;-0.019547687843441963;-0.006108652334660292;-0.004886921960860491
01:00:0A:00:00:00:00;1723939284;18/08/24;00:01:24;1.016;-0.027;0.074;-0.02076941914856434;-0.019547687843441963;-0.004886921960860491
01:00:0A:00:00:00:00;1723939285;18/08/24;00:01:25;1.017;-0.026;0.076;-0.018325956538319588;-0.004886921960860491;0.004886921960860491
01:00:0A:00:00:00:00;1723939286;18/08/24;00:01:26;1.015;-0.029;0.085;-0.021991148591041565;-0.02076941914856434;0.009773843921720982
01:00:0A:00:00:00:00;1723939287;18/08/24;00:01:27;1.014;-0.023;0.08;-0.02076941914856434;-0.025656338781118393;0.0036651913542300463
01:00:0A:00:00:00:00;1723939288;18/08/24;00:01:28;1.013;-0.021;0.083;-0.01710422709584236;0.0;0.0073303827084600925
01:00:0A:00:00:00:00;1723939289;18/08/24;00:01:29;1.015;-0.026;0.087;-0.018325956538319588;-0.0073303827084600925;-0.0012217304902151227
01:00:0A:00:00:00:00;1723939290;18/08/24;00:01:30;1.016;-0.024;0.078;-0.01710422709584236;-0.012217304669320583;-0.0073303827084600925
01:00:0A:00:00:00:00;1723939291;18/08/24;00:01:31;1.016;-0.026;0.077;-0.01710422709584236;-0.0036651913542300463;0.004886921960860491
01:00:0A:00:00:00:00;1723939292;18/08/24;00:01:32;1.015;-0.03;0.084;-0.018325956538319588;-0.018325956538319588;0.0073303827084600925
01:00:0A:00:00:00:00;1723939293;18/08/24;00:01:33;1.016;-0.024;0.078;-0.018325956538319588;-0.02076941914856434;0.006108652334660292
01:00:0A:00:00:00:00;1723939294;18/08/24;00:01:34;1.016;-0.022;0.082;-0.01710422709584236;-0.006108652334660292;0.010995574295520782
01:00:0A:00:00:00:00;1723939295;18/08/24;00:01:35;1.014;-0.024;0.085;-0.01710422709584236;-0.012217304669320583;-0.0012217304902151227
01:00:0A:00:00:00:00;1723939296;18/08/24;00:01:36;1.014;-0.022;0.078;-0.014660765416920185;-0.012217304669320583;-0.00855211354792118
01:00:0A:00:00:00:00;1723939297;18/08/24;00:01:37;1.012;-0.025;0.079;-0.014660765416920185;-0.004886921960860491;0.0036651913542300463
01:00:0A:00:00:00:00;1723939298;18/08/24;00:01:38;1.015;-0.029;0.081;-0.015882495790719986;-0.02076941914856434;0.0024434609804302454
01:00:0A:00:00:00:00;1723939299;18/08/24;00:01:39;1.016;-0.024;0.076;-0.015882495790719986;-0.02321287989616394;0.0036651913542300463
01:00:0A:00:00:00:00;1723939300;18/08/24;00:01:40;1.017;-0.022;0.083;-0.014660765416920185;-0.009773843921720982;0.009773843921720982
01:00:0A:00:00:00:00;1723939301;18/08/24;00:01:41;1.016;-0.025;0.087;-0.014660765416920185;-0.012217304669320583;0.0012217304902151227
01:00:0A:00:00:00:00;1723939302;18/08/24;00:01:42;1.015;-0.021;0.081;-0.012217304669320583;-0.0036651913542300463;-0.0036651913542300463
01:00:0A:00:00:00:00;1723939303;18/08/24;00:01:43;1.012;-0.023;0.081;-0.012217304669320583;0.004886921960860491;0.0
01:00:0A:00:00:00:00;1723939304;18/08/24;00:01:44;1.01;-0.027;0.078;-0.013439035043120384;-0.014660765416920185;-0.0036651913542300463
01:00:0A:00:00:00:00;1723939305;18/08/24;00:01:45;1.014;-0.024;0.077;-0.013439035043120384;-0.019547687843441963;-0.0024434609804302454
01:00:0A:00:00:00:00;1723939306;18/08/24;00:01:46;1.017;-0.025;0.081;-0.014660765416920185;-0.01710422709584236;0.004886921960860491
01:00:0A:00:00:00:00;1723939307;18/08/24;00:01:47;1.019;-0.026;0.084;-0.014660765416920185;-0.019547687843441963;0.0024434609804302454
01:00:0A:00:00:00:00;1723939308;18/08/24;00:01:48;1.018;-0.023;0.081;-0.013439035043120384;-0.00855211354792118;0.0012217304902151227
01:00:0A:00:00:00:00;1723939309;18/08/24;00:01:49;1.015;-0.024;0.082;-0.014660765416920185;0.0;0.0073303827084600925
01:00:0A:00:00:00:00;1723939310;18/08/24;00:01:50;1.013;-0.025;0.081;-0.014660765416920185;-0.0073303827084600925;0.0
01:00:0A:00:00:00:00;1723939311;18/08/24;00:01:51;1.009;-0.022;0.075;-0.014660765416920185;-0.010995574295520782;-0.0012217304902151227
01:00:0A:00:00:00:00;1723939312;18/08/24;00:01:52;1.01;-0.025;0.08;-0.015882495790719986;-0.013439035043120384;0.0024434609804302454
01:00:0A:00:00:00:00;1723939313;18/08/24;00:01:53;1.015;-0.026;0.081;-0.015882495790719986;-0.02076941914856434;-0.004886921960860491
01:00:0A:00:00:00:00;1723939314;18/08/24;00:01:54;1.02;-0.023;0.081;-0.015882495790719986;-0.013439035043120384;0.0
01:00:0A:00:00:00:00;1723939315;18/08/24;00:01:55;1.02;-0.026;0.084;-0.015882495790719986;-0.0073303827084600925;0.004886921960860491
01:00:0A:00:00:00:00;1723939316;18/08/24;00:01:56;1.017;-0.026;0.081;-0.01710422709584236;-0.00855211354792118;0.0036651913542300463
01:00:0A:00:00:00:00;1723939317;18/08/24;00:01:57;1.016;-0.024;0.08;-0.01710422709584236;-0.00855211354792118;0.004886921960860491
01:00:0A:00:00:00:00;1723939318;18/08/24;00:01:58;1.012;-0.024;0.081;-0.01710422709584236;-0.0073303827084600925;0.006108652334660292
01:00:0A:00:00:00:00;1723939319;18/08/24;00:01:59;1.013;-0.025;0.081;-0.018325956538319588;-0.013439035043120384;0.0
01:00:0A:00:00:00:00;1723939320;18/08/24;00:02:00;1.013;-0.023;0.081;-0.01710422709584236;-0.009773843921720982;0.0012217304902151227
01:00:0A:00:00:00:00;1723939321;18/08/24;00:02:01;1.015;-0.025;0.082;-0.018325956538319588;-0.0073303827084600925;0.0036651913542300463
01:00:0A:00:00:00:00;1723939322;18/08/24;00:02:02;1.012;-0.053;0.109;0.028099799528717995;0.009773843921720982;0.02321287989616394
01:00:0A:00:00:00:00;1723939323;18/08/24;00:02:03;1.015;-0.024;0.061;0.22602014243602753;-0.0708603635430336;-0.019547687843441963
01:00:0A:00:00:00:00;1723939324;18/08/24;00:02:04;1.012;-0.013;0.069;0.22602014243602753;0.04642575979232788;0.021991148591041565
01:00:0A:00:00:00:00;1723939325;18/08/24;00:02:05;1.009;-0.024;0.111;0.19547687470912933;-0.014660765416920185;0.028099799528717995
01:00:0A:00:00:00:00;1723939326;18/08/24;00:02:06;1.016;-0.034;0.066;0.1820378452539444;-0.06230825558304787;0.0036651913542300463
01:00:0A:00:00:00:00;1723939327;18/08/24;00:02:07;1.021;-0.021;0.064;0.2015855312347412;0.025656338781118393;-0.006108652334660292
01:00:0A:00:00:00:00;1723939328;18/08/24;00:02:08;1.02;0.0;0.081;0.05619959905743599;-0.045204028487205505;-0.00855211354792118
01:00:0A:00:00:00:00;1723939329;18/08/24;00:02:09;1.017;-0.032;0.064;0.05742133408784866;-0.0012217304902151227;0.05864306166768074
01:00:0A:00:00:00:00;1723939330;18/08/24;00:02:10;1.011;-0.026;0.08;0.03176499158143997;0.014660765416920185;-0.019547687843441963
01:00:0A:00:00:00:00;1723939331;18/08/24;00:02:11;1.004;-0.009;0.088;0.018325956538319588;-0.01710422709584236;0.010995574295520782
01:00:0A:00:00:00:00;1723939332;18/08/24;00:02:12;1.006;-0.03;0.074;0.013439035043120384;-0.03176499158143997;0.02076941914856434
01:00:0A:00:00:00:00;1723939333;18/08/24;00:02:13;1.013;-0.03;0.077;0.0354301817715168;-0.0012217304902151227;-0.03298672288656235
01:00:0A:00:00:00:00;1723939334;18/08/24;00:02:14;1.024;-0.012;0.093;0.021991148591041565;-0.01710422709584236;0.0073303827084600925
01:00:0A:00:00:00:00;1723939335;18/08/24;00:02:15;1.027;-0.038;0.078;0.015882495790719986;-0.02076941914856434;0.02321287989616394
01:00:0A:00:00:00:00;1723939336;18/08/24;00:02:16;1.021;-0.03;0.081;0.03176499158143997;0.006108652334660292;-0.0073303827084600925
01:00:0A:00:00:00:00;1723939337;18/08/24;00:02:17;1.014;-0.013;0.086;0.02076941914856434;-0.0073303827084600925;0.015882495790719986
01:00:0A:00:00:00:00;1723939338;18/08/24;00:02:18;1.008;-0.029;0.077;0.015882495790719986;-0.019547687843441963;0.02321287989616394
01:00:0A:00:00:00:00;1723939339;18/08/24;00:02:19;1.009;-0.024;0.079;0.030543262138962746;-0.0036651913542300463;-0.021991148591041565
01:00:0A:00:00:00:00;1723939340;18/08/24;00:02:20;1.014;-0.013;0.086;0.018325956538319588;-0.018325956538319588;0.004886921960860491
01:00:0A:00:00:00:00;1723939341;18/08/24;00:02:21;1.021;-0.033;0.08;0.015882495790719986;-0.018325956538319588;0.012217304669320583
01:00:0A:00:00:00:00;1723939342;18/08/24;00:02:22;1.022;-0.026;0.081;0.025656338781118393;-0.0036651913542300463;-0.010995574295520782
01:00:0A:00:00:00:00;1723939343;18/08/24;00:02:23;1.016;-0.017;0.084;0.015882495790719986;-0.009773843921720982;0.014660765416920185
01:00:0A:00:00:00:00;1723939344;18/08/24;00:02:24;1.013;-0.031;0.079;0.012217304669320583;-0.014660765416920185;0.02321287989616394
01:00:0A:00:00:00:00;1723939345;18/08/24;00:02:25;1.012;-0.022;0.081;0.021991148591041565;-0.004886921960860491;-0.015882495790719986
01:00:0A:00:00:00:00;1723939346;18/08/24;00:02:26;1.013;-0.016;0.083;0.012217304669320583;-0.015882495790719986;0.0073303827084600925
01:00:0A:00:00:00:00;1723939347;18/08/24;00:02:27;1.017;-0.032;0.079;0.012217304669320583;-0.013439035043120384;0.0036651913542300463
01:00:0A:00:00:00:00;1723939348;18/08/24;00:02:28;1.017;-0.028;0.081;0.018325956538319588;-0.006108652334660292;-0.010995574295520782
01:00:0A:00:00:00:00;1723939349;18/08/24;00:02:29;1.016;-0.021;0.083;0.00855211354792118;-0.013439035043120384;0.01710422709584236
01:00:0A:00:00:00:00;1723939350;18/08/24;00:02:30;1.014;-0.032;0.079;0.00855211354792118;-0.013439035043120384;0.019547687843441963
01:00:0A:00:00:00:00;1723939351;18/08/24;00:02:31;1.013;-0.02;0.081;0.014660765416920185;-0.00855211354792118;-0.0036651913542300463
01:00:0A:00:00:00:00;1723939352;18/08/24;00:02:32;1.012;-0.017;0.082;0.00855211354792118;-0.014660765416920185;0.010995574295520782
01:00:0A:00:00:00:00;1723939353;18/08/24;00:02:33;1.013;-0.029;0.08;0.010995574295520782;-0.012217304669320583;-0.0012217304902151227
01:00:0A:00:00:00:00;1723939354;18/08/24;00:02:34;1.016;-0.025;0.081;0.014660765416920185;-0.009773843921720982;-0.009773843921720982
01:00:0A:00:00:00:00;1723939355;18/08/24;00:02:35;1.016;-0.023;0.082;0.0073303827084600925;-0.013439035043120384;0.012217304669320583
01:00:0A:00:00:00:00;1723939356;18/08/24;00:02:36;1.016;-0.034;0.08;0.0073303827084600925;-0.012217304669320583;0.012217304669320583
01:00:0A:00:00:00:00;1723939357;18/08/24;00:02:37;1.016;-0.022;0.082;0.009773843921720982;-0.00855211354792118;0.0036651913542300463
01:00:0A:00:00:00:00;1723939358;18/08/24;00:02:38;1.015;-0.019;0.082;0.004886921960860491;-0.012217304669320583;0.012217304669320583
01:00:0A:00:00:00:00;1723939359;18/08/24;00:02:39;1.013;-0.027;0.08;0.0073303827084600925;-0.012217304669320583;0.0
01:00:0A:00:00:00:00;1723939360;18/08/24;00:02:40;1.014;-0.021;0.082;0.009773843921720982;-0.012217304669320583;-0.009773843921720982
01:00:0A:00:00:00:00;1723939361;18/08/24;00:02:41;1.015;-0.025;0.081;0.004886921960860491;-0.014660765416920185;0.009773843921720982
01:00:0A:00:00:00:00;1723939362;18/08/24;00:02:42;1.016;-0.031;0.081;0.0073303827084600925;-0.010995574295520782;0.0036651913542300463
01:00:0A:00:00:00:00;1723939363;18/08/24;00:02:43;1.016;-0.022;0.081;0.0073303827084600925;-0.010995574295520782;0.0012217304902151227
01:00:0A:00:00:00:00;1723939364;18/08/24;00:02:44;1.016;-0.022;0.081;0.0036651913542300463;-0.013439035043120384;0.015882495790719986
01:00:0A:00:00:00:00;1723939365;18/08/24;00:02:45;1.016;-0.025;0.081;0.0073303827084600925;-0.00855211354792118;0.0012217304902151227
01:00:0A:00:00:00:00;1723939366;18/08/24;00:02:46;1.014;-0.02;0.082;0.00855211354792118;-0.00855211354792118;-0.0036651913542300463
01:00:0A:00:00:00:00;1723939367;18/08/24;00:02:47;1.015;-0.024;0.081;0.004886921960860491;-0.010995574295520782;0.006108652334660292
01:00:0A:00:00:00:00;1723939368;18/08/24;00:02:48;1.014;-0.03;0.081;0.00855211354792118;-0.010995574295520782;0.0012217304902151227
01:00:0A:00:00:00:00;1723939369;18/08/24;00:02:49;1.015;-0.025;0.081;0.00855211354792118;-0.012217304669320583;0.0012217304902151227
01:00:0A:00:00:00:00;1723939370;18/08/24;00:02:50;1.014;-0.026;0.081;0.004886921960860491;-0.013439035043120384;0.012217304669320583
01:00:0A:00:00:00:00;1723939371;18/08/24;00:02:51;1.015;-0.027;0.081;0.00855211354792118;-0.010995574295520782;0.0024434609804302454
01:00:0A:00:00:00:00;1723939372;18/08/24;00:02:52;1.016;-0.021;0.082;0.00855211354792118;-0.012217304669320583;0.0
01:00:0A:00:00:00:00;1723939373;18/08/24;00:02:53;1.015;-0.024;0.081;0.0073303827084600925;-0.010995574295520782;0.006108652334660292
01:00:0A:00:00:00:00;1723939374;18/08/24;00:02:54;1.015;-0.028;0.081;0.009773843921720982;-0.00855211354792118;-0.0024434609804302454
01:00:0A:00:00:00:00;1723939375;18/08/24;00:02:55;1.015;-0.023;0.081;0.0073303827084600925;-0.013439035043120384;0.0
01:00:0A:00:00:00:00;1723939376;18/08/24;00:02:56;1.014;-0.027;0.08;0.006108652334660292;-0.013439035043120384;0.00855211354792118
01:00:0A:00:00:00:00;1723939377;18/08/24;00:02:57;1.015;-0.028;0.082;0.00855211354792118;-0.00855211354792118;0.0036651913542300463
01:00:0A:00:00:00:00;1723939378;18/08/24;00:02:58;1.016;-0.022;0.082;0.0073303827084600925;-0.010995574295520782;0.004886921960860491
01:00:0A:00:00:00:00;1723939379;18/08/24;00:02:59;1.016;-0.025;0.08;0.0073303827084600925;-0.00855211354792118;0.00855211354792118
01:00:0A:00:00:00:00;1723939380;18/08/24;00:03:00;1.016;-0.025;0.082;0.009773843921720982;-0.00855211354792118;0.0
01:00:0A:00:00:00:00;1723939381;18/08/24;00:03:01;1.014;-0.024;0.082;0.00855211354792118;-0.012217304669320583;0.0024434609804302454
01:00:0A:00:00:00:00;1723939382;18/08/24;00:03:02;1.013;-0.027;0.08;0.00855211354792118;-0.009773843921720982;0.0073303827084600925
01:00:0A:00:00:00:00;1723939383;18/08/24;00:03:03;1.012;-0.028;0.082;0.009773843921720982;-0.00855211354792118;0.0024434609804302454
01:00:0A:00:00:00:00;1723939384;18/08/24;00:03:04;1.015;-0.023;0.081;0.0073303827084600925;-0.013439035043120384;0.00855211354792118
01:00:0A:00:00:00:00;1723939385;18/08/24;00:03:05;1.016;-0.025;0.081;0.00855211354792118;-0.010995574295520782;0.00855211354792118
01:00:0A:00:00:00:00;1723939386;18/08/24;00:03:06;1.016;-0.023;0.082;0.009773843921720982;-0.00855211354792118;0.0012217304902151227
01:00:0A:00:00:00:00;1723939387;18/08/24;00:03:07;1.015;-0.023;0.081;0.0073303827084600925;-0.013439035043120384;0.0036651913542300463
01:00:0A:00:00:00:00;1723939388;18/08/24;00:03:08;1.014;-0.026;0.08;0.00855211354792118;-0.010995574295520782;0.0036651913542300463
01:00:0A:00:00:00:00;1723939389;18/08/24;00:03:09;1.012;-0.027;0.081;0.009773843921720982;-0.009773843921720982;0.0012217304902151227
01:00:0A:00:00:00:00;1723939390;18/08/24;00:03:10;1.014;-0.026;0.082;0.0073303827084600925;-0.014660765416920185;0.006108652334660292
01:00:0A:00:00:00:00;1723939391;18/08/24;00:03:11;1.016;-0.027;0.08;0.00855211354792118;-0.009773843921720982;0.0073303827084600925
01:00:0A:00:00:00:00;1723939392;18/08/24;00:03:12;1.019;-0.024;0.082;0.00855211354792118;-0.010995574295520782;0.0036651913542300463
01:00:0A:00:00:00:00;1723939393;18/08/24;00:03:13;1.016;-0.024;0.081;0.0073303827084600925;-0.013439035043120384;0.006108652334660292
01:00:0A:00:00:00:00;1723939394;18/08/24;00:03:14;1.014;-0.026;0.079;0.00855211354792118;-0.0073303827084600925;0.004886921960860491
01:00:0A:00:00:00:00;1723939395;18/08/24;00:03:15;1.011;-0.025;0.081;0.009773843921720982;-0.009773843921720982;0.0
01:00:0A:00:00:00:00;1723939396;18/08/24;00:03:16;1.011;-0.025;0.079;0.0073303827084600925;-0.01710422709584236;0.004886921960860491
01:00:0A:00:00:00:00;1723939397;18/08/24;00:03:17;1.014;-0.026;0.081;0.00855211354792118;-0.012217304669320583;0.004886921960860491
01:00:0A:00:00:00:00;1723939398;18/08/24;00:03:18;1.017;-0.024;0.084;0.00855211354792118;-0.012217304669320583;0.0024434609804302454
01:00:0A:00:00:00:00;1723939399;18/08/24;00:03:19;1.019;-0.024;0.081;0.006108652334660292;-0.013439035043120384;0.006108652334660292
01:00:0A:00:00:00:00;1723939400;18/08/24;00:03:20;1.016;-0.025;0.08;0.00855211354792118;-0.006108652334660292;0.0036651913542300463
01:00:0A:00:00:00:00;1723939401;18/08/24;00:03:21;1.013;-0.024;0.081;0.00855211354792118;-0.00855211354792118;0.0012217304902151227
01:00:0A:00:00:00:00;1723939402;18/08/24;00:03:22;1.012;-0.024;0.08;0.006108652334660292;-0.015882495790719986;0.004886921960860491
01:00:0A:00:00:00:00;1723939403;18/08/24;00:03:23;1.012;-0.026;0.079;0.00855211354792118;-0.009773843921720982;0.0024434609804302454
01:00:0A:00:00:00:00;1723939404;18/08/24;00:03:24;1.016;-0.024;0.084;0.0073303827084600925;-0.010995574295520782;0.0024434609804302454
01:00:0A:00:00:00:00;1723939405;18/08/24;00:03:25;1.016;-0.025;0.081;0.004886921960860491;-0.013439035043120384;0.004886921960860491
01:00:0A:00:00:00:00;1723939406;18/08/24;00:03:26;1.016;-0.025;0.08;0.0073303827084600925;-0.006108652334660292;0.0024434609804302454
01:00:0A:00:00:00:00;1723939407;18/08/24;00:03:27;1.013;-0.023;0.083;0.006108652334660292;-0.009773843921720982;0.0024434609804302454
01:00:0A:00:00:00:00;1723939408;18/08/24;00:03:28;1.012;-0.024;0.08;0.0036651913542300463;-0.01710422709584236;0.0024434609804302454
01:00:0A:00:00:00:00;1723939409;18/08/24;00:03:29;1.011;-0.026;0.081;0.006108652334660292;-0.009773843921720982;0.0
01:00:0A:00:00:00:00;1723939410;18/08/24;00:03:30;1.016;-0.024;0.083;0.004886921960860491;-0.012217304669320583;0.0024434609804302454
01:00:0A:00:00:00:00;1723939411;18/08/24;00:03:31;1.017;-0.025;0.08;0.0024434609804302454;-0.013439035043120384;0.004886921960860491
01:00:0A:00:00:00:00;1723939412;18/08/24;00:03:32;1.016;-0.025;0.079;0.004886921960860491;-0.006108652334660292;0.0036651913542300463
01:00:0A:00:00:00:00;1723939413;18/08/24;00:03:33;1.016;-0.025;0.083;0.0036651913542300463;-0.012217304669320583;0.0036651913542300463
01:00:0A:00:00:00:00;1723939414;18/08/24;00:03:34;1.016;-0.024;0.08;0.0012217304902151227;-0.015882495790719986;0.006108652334660292
01:00:0A:00:00:00:00;1723939415;18/08/24;00:03:35;1.013;-0.025;0.081;0.004886921960860491;-0.006108652334660292;0.0024434609804302454
01:00:0A:00:00:00:00;1723939416;18/08/24;00:03:36;1.013;-0.024;0.082;0.0024434609804302454;-0.013439035043120384;0.0036651913542300463
01:00:0A:00:00:00:00;1723939417;18/08/24;00:03:37;1.014;-0.025;0.08;0.0012217304902151227;-0.015882495790719986;0.004886921960860491
01:00:0A:00:00:00:00;1723939418;18/08/24;00:03:38;1.015;-0.025;0.081;0.004886921960860491;-0.006108652334660292;0.0024434609804302454
01:00:0A:00:00:00:00;1723939419;18/08/24;00:03:39;1.016;-0.023;0.083;0.0024434609804302454;-0.013439035043120384;0.004886921960860491
01:00:0A:00:00:00:00;1723939420;18/08/24;00:03:40;1.015;-0.026;0.079;0.0012217304902151227;-0.01710422709584236;0.004886921960860491
01:00:0A:00:00:00:00;1723939421;18/08/24;00:03:41;1.016;-0.025;0.081;0.0036651913542300463;-0.006108652334660292;0.0036651913542300463
01:00:0A:00:00:00:00;1723939422;18/08/24;00:03:42;1.012;-0.025;0.083;0.0012217304902151227;-0.013439035043120384;0.004886921960860491
01:00:0A:00:00:00:00;1723939423;18/08/24;00:03:43;1.014;-0.025;0.08;0.0012217304902151227;-0.01710422709584236;0.0036651913542300463
01:00:0A:00:00:00:00;1723939424;18/08/24;00:03:44;1.015;-0.025;0.081;0.0036651913542300463;-0.004886921960860491;0.0024434609804302454
01:00:0A:00:00:00:00;1723939425;18/08/24;00:03:45;1.015;-0.024;0.083;0.0012217304902151227;-0.015882495790719986;0.0036651913542300463
01:00:0A:00:00:00:00;1723939426;18/08/24;00:03:46;1.017;-0.026;0.078;0.0012217304902151227;-0.015882495790719986;0.0036651913542300463
01:00:0A:00:00:00:00;1723939427;18/08/24;00:03:47;1.016;-0.025;0.081;0.0036651913542300463;-0.0036651913542300463;0.0036651913542300463
01:00:0A:00:00:00:00;1723939428;18/08/24;00:03:48;1.013;-0.024;0.083;0.0;-0.014660765416920185;0.004886921960860491
01:00:0A:00:00:00:00;1723939429;18/08/24;00:03:49;1.013;-0.024;0.077;0.0012217304902151227;-0.013439035043120384;0.0036651913542300463
01:00:0A:00:00:00:00;1723939430;18/08/24;00:03:50;1.014;-0.025;0.081;0.0036651913542300463;-0.004886921960860491;0.0012217304902151227
01:00:0A:00:00:00:00;1723939431;18/08/24;00:03:51;1.015;-0.025;0.084;0.0;-0.014660765416920185;0.0036651913542300463
01:00:0A:00:00:00:00;1723939432;18/08/24;00:03:52;1.016;-0.026;0.077;0.0;-0.013439035043120384;0.0036651913542300463
01:00:0A:00:00:00:00;1723939433;18/08/24;00:03:53;1.016;-0.024;0.081;0.0024434609804302454;-0.004886921960860491;0.0024434609804302454
01:00:0A:00:00:00:00;1723939434;18/08/24;00:03:54;1.015;-0.026;0.083;-0.0012217304902151227;-0.018325956538319588;0.0036651913542300463
01:00:0A:00:00:00:00;1723939435;18/08/24;00:03:55;1.014;-0.026;0.078;-0.0012217304902151227;-0.014660765416920185;0.0024434609804302454
01:00:0A:00:00:00:00;1723939436;18/08/24;00:03:56;1.015;-0.025;0.083;0.0012217304902151227;-0.004886921960860491;0.0024434609804302454
01:00:0A:00:00:00:00;1723939437;18/08/24;00:03:57;1.015;-0.023;0.084;-0.0036651913542300463;-0.01710422709584236;0.0036651913542300463
01:00:0A:00:00:00:00;1723939438;18/08/24;00:03:58;1.017;-0.025;0.077;-0.0024434609804302454;-0.012217304669320583;0.0024434609804302454
01:00:0A:00:00:00:00;1723939439;18/08/24;00:03:59;1.014;-0.024;0.082;-0.0012217304902151227;-0.0036651913542300463;0.0036651913542300463
01:00:0A:00:00:00:00;1723939440;18/08/24;00:04:00;1.015;-0.025;0.083;-0.004886921960860491;-0.018325956538319588;0.0024434609804302454
01:00:0A:00:00:00:00;1723939441;18/08/24;00:04:01;1.016;-0.024;0.076;-0.0036651913542300463;-0.010995574295520782;0.0024434609804302454
01:00:0A:00:00:00:00;1723939442;18/08/24;00:04:02;1.016;-0.024;0.083;-0.0024434609804302454;-0.0024434609804302454;0.0036651913542300463
01:00:0A:00:00:00:00;1723939443;18/08/24;00:04:03;1.015;-0.025;0.083;-0.006108652334660292;-0.019547687843441963;0.0036651913542300463
01:00:0A:00:00:00:00;1723939444;18/08/24;00:04:04;1.015;-0.025;0.078;-0.004886921960860491;-0.009773843921720982;0.0024434609804302454
01:00:0A:00:00:00:00;1723939445;18/08/24;00:04:05;1.015;-0.024;0.085;-0.0036651913542300463;-0.0036651913542300463;0.004886921960860491
01:00:0A:00:00:00:00;1723939446;18/08/24;00:04:06;1.016;-0.026;0.082;-0.00855211354792118;-0.018325956538319588;0.0036651913542300463
01:00:0A:00:00:00:00;1723939447;18/08/24;00:04:07;1.015;-0.025;0.076;-0.006108652334660292;-0.00855211354792118;0.0036651913542300463
01:00:0A:00:00:00:00;1723939448;18/08/24;00:04:08;1.015;-0.025;0.084;-0.006108652334660292;-0.004886921960860491;0.0036651913542300463
01:00:0A:00:00:00:00;1723939449;18/08/24;00:04:09;1.015;-0.024;0.081;-0.009773843921720982;-0.019547687843441963;0.0024434609804302454
01:00:0A:00:00:00:00;1723939450;18/08/24;00:04:10;1.014;-0.024;0.078;-0.0073303827084600925;-0.00855211354792118;0.0036651913542300463
01:00:0A:00:00:00:00;1723939451;18/08/24;00:04:11;1.015;-0.023;0.085;-0.0073303827084600925;-0.004886921960860491;0.004886921960860491
01:00:0A:00:00:00:00;1723939452;18/08/24;00:04:12;1.015;-0.025;0.081;-0.010995574295520782;-0.019547687843441963;0.0024434609804302454
01:00:0A:00:00:00:00;1723939453;18/08/24;00:04:13;1.016;-0.023;0.076;-0.0073303827084600925;-0.0073303827084600925;0.0036651913542300463
01:00:0A:00:00:00:00;1723939454;18/08/24;00:04:14;1.016;-0.024;0.084;-0.00855211354792118;-0.006108652334660292;0.004886921960860491
01:00:0A:00:00:00:00;1723939455;18/08/24;00:04:15;1.015;-0.024;0.081;-0.010995574295520782;-0.021991148591041565;0.0012217304902151227
01:00:0A:00:00:00:00;1723939456;18/08/24;00:04:16;1.016;-0.024;0.078;-0.0073303827084600925;-0.006108652334660292;0.0036651913542300463
01:00:0A:00:00:00:00;1723939457;18/08/24;00:04:17;1.013;-0.025;0.084;-0.00855211354792118;-0.004886921960860491;0.004886921960860491
01:00:0A:00:00:00:00;1723939458;18/08/24;00:04:18;1.015;-0.024;0.079;-0.009773843921720982;-0.019547687843441963;0.0012217304902151227
01:00:0A:00:00:00:00;1723939459;18/08/24;00:04:19;1.015;-0.023;0.076;-0.006108652334660292;-0.004886921960860491;0.0036651913542300463
01:00:0A:00:00:00:00;1723939460;18/08/24;00:04:20;1.015;-0.025;0.083;-0.0073303827084600925;-0.009773843921720982;0.0036651913542300463
01:00:0A:00:00:00:00;1723939461;18/08/24;00:04:21;1.016;-0.025;0.08;-0.00855211354792118;-0.021991148591041565;-0.0012217304902151227
01:00:0A:00:00:00:00;1723939462;18/08/24;00:04:22;1.015;-0.023;0.077;-0.004886921960860491;-0.004886921960860491;0.0036651913542300463
01:00:0A:00:00:00:00;1723939463;18/08/24;00:04:23;1.016;-0.025;0.085;-0.006108652334660292;-0.00855211354792118;0.004886921960860491
01:00:0A:00:00:00:00;1723939464;18/08/24;00:04:24;1.016;-0.025;0.08;-0.006108652334660292;-0.018325956538319588;0.0012217304902151227
01:00:0A:00:00:00:00;1723939465;18/08/24;00:04:25;1.016;-0.023;0.078;-0.0036651913542300463;-0.0024434609804302454;0.006108652334660292
01:00:0A:00:00:00:00;1723939466;18/08/24;00:04:26;1.014;-0.026;0.083;-0.004886921960860491;-0.00855211354792118;0.004886921960860491
01:00:0A:00:00:00:00;1723939467;18/08/24;00:04:27;1.013;-0.024;0.079;-0.004886921960860491;-0.02076941914856434;-0.0012217304902151227
01:00:0A:00:00:00:00;1723939468;18/08/24;00:04:28;1.015;-0.022;0.078;-0.0024434609804302454;-0.0036651913542300463;0.006108652334660292
01:00:0A:00:00:00:00;1723939469;18/08/24;00:04:29;1.015;-0.027;0.085;-0.0036651913542300463;-0.00855211354792118;0.006108652334660292
01:00:0A:00:00:00:00;1723939470;18/08/24;00:04:30;1.015;-0.023;0.078;-0.004886921960860491;-0.018325956538319588;0.0
01:00:0A:00:00:00:00;1723939471;18/08/24;00:04:31;1.016;-0.022;0.078;-0.0024434609804302454;-0.0036651913542300463;0.006108652334660292
01:00:0A:00:00:00:00;1723939472;18/08/24;00:04:32;1.014;-0.026;0.085;-0.0036651913542300463;-0.010995574295520782;0.0036651913542300463
01:00:0A:00:00:00:00;1723939473;18/08/24;00:04:33;1.014;-0.023;0.079;-0.0036651913542300463;-0.018325956538319588;-0.0012217304902151227
01:00:0A:00:00:00:00;1723939474;18/08/24;00:04:34;1.015;-0.022;0.079;-0.0024434609804302454;-0.0024434609804302454;0.00855211354792118
01:00:0A:00:00:00:00;1723939475;18/08/24;00:04:35;1.015;-0.027;0.084;-0.0036651913542300463;-0.012217304669320583;0.0036651913542300463
01:00:0A:00:00:00:00;1723939476;18/08/24;00:04:36;1.016;-0.023;0.079;-0.004886921960860491;-0.019547687843441963;-0.0012217304902151227
01:00:0A:00:00:00:00;1723939477;18/08/24;00:04:37;1.015;-0.023;0.081;-0.0036651913542300463;-0.0024434609804302454;0.0073303827084600925
01:00:0A:00:00:00:00;1723939478;18/08/24;00:04:38;1.015;-0.027;0.085;-0.004886921960860491;-0.012217304669320583;0.0036651913542300463
01:00:0A:00:00:00:00;1723939479;18/08/24;00:04:39;1.015;-0.023;0.078;-0.004886921960860491;-0.015882495790719986;-0.0012217304902151227
01:00:0A:00:00:00:00;1723939480;18/08/24;00:04:40;1.014;-0.024;0.079;-0.004886921960860491;-0.0036651913542300463;0.00855211354792118
01:00:0A:00:00:00:00;1723939481;18/08/24;00:04:41;1.014;-0.027;0.084;-0.006108652334660292;-0.015882495790719986;0.0012217304902151227
01:00:0A:00:00:00:00;1723939482;18/08/24;00:04:42;1.015;-0.022;0.077;-0.004886921960860491;-0.018325956538319588;-0.0024434609804302454
01:00:0A:00:00:00:00;1723939483;18/08/24;00:04:43;1.016;-0.024;0.081;-0.004886921960860491;-0.0036651913542300463;0.0073303827084600925
01:00:0A:00:00:00:00;1723939484;18/08/24;00:04:44;1.015;-0.027;0.085;-0.006108652334660292;-0.014660765416920185;0.0012217304902151227
01:00:0A:00:00:00:00;1723939485;18/08/24;00:04:45;1.015;-0.022;0.078;-0.004886921960860491;-0.015882495790719986;0.0
01:00:0A:00:00:00:00;1723939486;18/08/24;00:04:46;1.014;-0.023;0.081;-0.004886921960860491;-0.0024434609804302454;0.009773843921720982
01:00:0A:00:00:00:00;1723939487;18/08/24;00:04:47;1.015;-0.028;0.084;-0.006108652334660292;-0.01710422709584236;0.0
01:00:0A:00:00:00:00;1723939488;18/08/24;00:04:48;1.015;-0.021;0.077;-0.006108652334660292;-0.01710422709584236;-0.0024434609804302454
01:00:0A:00:00:00:00;1723939489;18/08/24;00:04:49;1.016;-0.025;0.082;-0.004886921960860491;-0.0036651913542300463;0.00855211354792118
01:00:0A:00:00:00:00;1723939490;18/08/24;00:04:50;1.014;-0.027;0.085;-0.006108652334660292;-0.015882495790719986;0.0
01:00:0A:00:00:00:00;1723939491;18/08/24;00:04:51;1.016;-0.021;0.077;-0.006108652334660292;-0.013439035043120384;0.0
01:00:0A:00:00:00:00;1723939492;18/08/24;00:04:52;1.015;-0.024;0.081;-0.006108652334660292;-0.0036651913542300463;0.009773843921720982
01:00:0A:00:00:00:00;1723939493;18/08/24;00:04:53;1.015;-0.027;0.082;-0.006108652334660292;-0.018325956538319588;-0.0012217304902151227
01:00:0A:00:00:00:00;1723939494;18/08/24;00:04:54;1.015;-0.021;0.078;-0.006108652334660292;-0.014660765416920185;0.0
01:00:0A:00:00:00:00;1723939495;18/08/24;00:04:55;1.016;-0.025;0.081;-0.006108652334660292;-0.004886921960860491;0.009773843921720982
01:00:0A:00:00:00:00;1723939496;18/08/24;00:04:56;1.014;-0.028;0.083;-0.006108652334660292;-0.015882495790719986;-0.0012217304902151227
01:00:0A:00:00:00:00;1723939497;18/08/24;00:04:57;1.014;-0.022;0.077;-0.006108652334660292;-0.010995574295520782;0.0024434609804302454
01:00:0A:00:00:00:00;1723939498;18/08/24;00:04:58;1.014;-0.026;0.082;-0.006108652334660292;-0.0036651913542300463;0.010995574295520782
01:00:0A:00:00:00:00;1723939499;18/08/24;00:04:59;1.014;-0.025;0.082;-0.004886921960860491;-0.01710422709584236;-0.0024434609804302454
01:00:0A:00:00:00:00;1723939500;18/08/24;00:05:00;1.015;-0.021;0.077;-0.006108652334660292;-0.013439035043120384;0.0012217304902151227
01:00:0A:00:00:00:00;1723939501;18/08/24;00:05:01;1.015;-0.027;0.083;-0.006108652334660292;-0.006108652334660292;0.009773843921720982
01:00:0A:00:00:00:00;1723939502;18/08/24;00:05:02;1.015;-0.027;0.081;-0.006108652334660292;-0.01710422709584236;-0.0024434609804302454
01:00:0A:00:00:00:00;1723939503;18/08/24;00:05:03;1.016;-0.019;0.078;-0.006108652334660292;-0.012217304669320583;0.0012217304902151227
01:00:0A:00:00:00:00;1723939504;18/08/24;00:05:04;1.016;-0.026;0.082;-0.0073303827084600925;-0.006108652334660292;0.009773843921720982
01:00:0A:00:00:00:00;1723939505;18/08/24;00:05:05;1.015;-0.027;0.083;-0.0073303827084600925;-0.01710422709584236;-0.0036651913542300463
01:00:0A:00:00:00:00;1723939506;18/08/24;00:05:06;1.015;-0.02;0.079;-0.0073303827084600925;-0.009773843921720982;0.0036651913542300463
01:00:0A:00:00:00:00;1723939507;18/08/24;00:05:07;1.014;-0.027;0.082;-0.00855211354792118;-0.006108652334660292;0.009773843921720982
01:00:0A:00:00:00:00;1723939508;18/08/24;00:05:08;1.015;-0.025;0.081;-0.0073303827084600925;-0.01710422709584236;-0.006108652334660292
01:00:0A:00:00:00:00;1723939509;18/08/24;00:05:09;1.014;-0.02;0.078;-0.00855211354792118;-0.010995574295520782;0.0036651913542300463
01:00:0A:00:00:00:00;1723939510;18/08/24;00:05:10;1.014;-0.028;0.082;-0.009773843921720982;-0.0073303827084600925;0.0073303827084600925
01:00:0A:00:00:00:00;1723939511;18/08/24;00:05:11;1.015;-0.025;0.081;-0.00855211354792118;-0.01710422709584236;-0.006108652334660292
01:00:0A:00:00:00:00;1723939512;18/08/24;00:05:12;1.016;-0.021;0.079;-0.009773843921720982;-0.009773843921720982;0.004886921960860491
01:00:0A:00:00:00:00;1723939513;18/08/24;00:05:13;1.015;-0.027;0.082;-0.009773843921720982;-0.0073303827084600925;0.00855211354792118
01:00:0A:00:00:00:00;1723939514;18/08/24;00:05:14;1.016;-0.025;0.081;-0.00855211354792118;-0.01710422709584236;-0.006108652334660292
01:00:0A:00:00:00:00;1723939515;18/08/24;00:05:15;1.014;-0.019;0.079;-0.009773843921720982;-0.009773843921720982;0.004886921960860491
01:00:0A:00:00:00:00;1723939516;18/08/24;00:05:16;1.014;-0.028;0.082;-0.010995574295520782;-0.00855211354792118;0.006108652334660292
01:00:0A:00:00:00:00;1723939517;18/08/24;00:05:17;1.015;-0.024;0.081;-0.009773843921720982;-0.01710422709584236;-0.006108652334660292
01:00:0A:00:00:00:00;1723939518;18/08/24;00:05:18;1.016;-0.021;0.079;-0.010995574295520782;-0.00855211354792118;0.00855211354792118
01:00:0A:00:00:00:00;1723939519;18/08/24;00:05:19;1.015;-0.028;0.084;-0.010995574295520782;-0.00855211354792118;0.00855211354792118
01:00:0A:00:00:00:00;1723939520;18/08/24;00:05:20;1.015;-0.025;0.081;-0.009773843921720982;-0.015882495790719986;-0.0073303827084600925
01:00:0A:00:00:00:00;1723939521;18/08/24;00:05:21;1.015;-0.021;0.079;-0.012217304669320583;-0.009773843921720982;0.006108652334660292
01:00:0A:00:00:00:00;1723939522;18/08/24;00:05:22;1.016;-0.029;0.083;-0.010995574295520782;-0.009773843921720982;0.004886921960860491
01:00:0A:00:00:00:00;1723939523;18/08/24;00:05:23;1.015;-0.024;0.081;-0.009773843921720982;-0.015882495790719986;-0.006108652334660292
01:00:0A:00:00:00:00;1723939524;18/08/24;00:05:24;1.016;-0.022;0.081;-0.012217304669320583;-0.009773843921720982;0.00855211354792118
01:00:0A:00:00:00:00;1723939525;18/08/24;00:05:25;1.015;-0.029;0.083;-0.012217304669320583;-0.00855211354792118;0.006108652334660292
01:00:0A:00:00:00:00;1723939526;18/08/24;00:05:26;1.015;-0.022;0.081;-0.009773843921720982;-0.014660765416920185;-0.006108652334660292
01:00:0A:00:00:00:00;1723939527;18/08/24;00:05:27;1.014;-0.021;0.08;-0.013439035043120384;-0.009773843921720982;0.00855211354792118
01:00:0A:00:00:00:00;1723939528;18/08/24;00:05:28;1.015;-0.029;0.082;-0.012217304669320583;-0.010995574295520782;0.0024434609804302454
01:00:0A:00:00:00:00;1723939529;18/08/24;00:05:29;1.016;-0.023;0.081;-0.009773843921720982;-0.014660765416920185;-0.0073303827084600925
01:00:0A:00:00:00:00;1723939530;18/08/24;00:05:30;1.016;-0.022;0.08;-0.013439035043120384;-0.009773843921720982;0.00855211354792118
01:00:0A:00:00:00:00;1723939531;18/08/24;00:05:31;1.016;-0.029;0.082;-0.012217304669320583;-0.009773843921720982;0.0036651913542300463
01:00:0A:00:00:00:00;1723939532;18/08/24;00:05:32;1.016;-0.022;0.081;-0.009773843921720982;-0.013439035043120384;-0.0073303827084600925
01:00:0A:00:00:00:00;1723939533;18/08/24;00:05:33;1.015;-0.023;0.08;-0.013439035043120384;-0.009773843921720982;0.009773843921720982
01:00:0A:00:00:00:00;1723939534;18/08/24;00:05:34;1.015;-0.028;0.082;-0.010995574295520782;-0.010995574295520782;0.0024434609804302454
01:00:0A:00:00:00:00;1723939535;18/08/24;00:05:35;1.015;-0.02;0.08;-0.009773843921720982;-0.014660765416920185;-0.006108652334660292
01:00:0A:00:00:00:00;1723939536;18/08/24;00:05:36;1.016;-0.023;0.081;-0.012217304669320583;-0.010995574295520782;0.009773843921720982
01:00:0A:00:00:00:00;1723939537;18/08/24;00:05:37;1.015;-0.03;0.082;-0.009773843921720982;-0.010995574295520782;0.0
01:00:0A:00:00:00:00;1723939538;18/08/24;00:05:38;1.015;-0.022;0.081;-0.00855211354792118;-0.013439035043120384;-0.004886921960860491
01:00:0A:00:00:00:00;1723939539;18/08/24;00:05:39;1.015;-0.022;0.081;-0.012217304669320583;-0.010995574295520782;0.012217304669320583
01:00:0A:00:00:00:00;1723939540;18/08/24;00:05:40;1.014;-0.028;0.081;-0.009773843921720982;-0.010995574295520782;0.0012217304902151227
01:00:0A:00:00:00:00;1723939541;18/08/24;00:05:41;1.014;-0.021;0.081;-0.00855211354792118;-0.012217304669320583;-0.004886921960860491
01:00:0A:00:00:00:00;1723939542;18/08/24;00:05:42;1.016;-0.023;0.081;-0.012217304669320583;-0.010995574295520782;0.010995574295520782
01:00:0A:00:00:00:00;1723939543;18/08/24;00:05:43;1.015;-0.03;0.08;-0.00855211354792118;-0.009773843921720982;0.0
01:00:0A:00:00:00:00;1723939544;18/08/24;00:05:44;1.016;-0.021;0.081;-0.0073303827084600925;-0.012217304669320583;-0.0036651913542300463
01:00:0A:00:00:00:00;1723939545;18/08/24;00:05:45;1.015;-0.024;0.081;-0.012217304669320583;-0.010995574295520782;0.012217304669320583
01:00:0A:00:00:00:00;1723939546;18/08/24;00:05:46;1.014;-0.029;0.081;-0.0073303827084600925;-0.009773843921720982;0.0012217304902151227
01:00:0A:00:00:00:00;1723939547;18/08/24;00:05:47;1.016;-0.02;0.081;-0.0073303827084600925;-0.012217304669320583;-0.0024434609804302454
01:00:0A:00:00:00:00;1723939548;18/08/24;00:05:48;1.016;-0.024;0.08;-0.010995574295520782;-0.010995574295520782;0.009773843921720982
01:00:0A:00:00:00:00;1723939549;18/08/24;00:05:49;1.015;-0.029;0.081;-0.0073303827084600925;-0.009773843921720982;-0.0024434609804302454
01:00:0A:00:00:00:00;1723939550;18/08/24;00:05:50;1.015;-0.021;0.081;-0.0073303827084600925;-0.010995574295520782;-0.0024434609804302454
01:00:0A:00:00:00:00;1723939551;18/08/24;00:05:51;1.014;-0.026;0.081;-0.012217304669320583;-0.012217304669320583;0.013439035043120384
01:00:0A:00:00:00:00;1723939552;18/08/24;00:05:52;1.016;-0.029;0.081;-0.0073303827084600925;-0.009773843921720982;0.0
01:00:0A:00:00:00:00;1723939553;18/08/24;00:05:53;1.015;-0.021;0.082;-0.0073303827084600925;-0.012217304669320583;-0.0012217304902151227
01:00:0A:00:00:00:00;1723939554;18/08/24;00:05:54;1.015;-0.024;0.081;-0.010995574295520782;-0.012217304669320583;0.010995574295520782
01:00:0A:00:00:00:00;1723939555;18/08/24;00:05:55;1.016;-0.027;0.081;-0.0073303827084600925;-0.00855211354792118;-0.0024434609804302454
01:00:0A:00:00:00:00;1723939556;18/08/24;00:05:56;1.015;-0.021;0.081;-0.00855211354792118;-0.010995574295520782;-0.0012217304902151227
01:00:0A:00:00:00:00;1723939557;18/08/24;00:05:57;1.015;-0.025;0.08;-0.012217304669320583;-0.013439035043120384;0.010995574295520782
01:00:0A:00:00:00:00;1723939558;18/08/24;00:05:58;1.015;-0.028;0.081;-0.0073303827084600925;-0.00855211354792118;-0.0024434609804302454
01:00:0A:00:00:00:00;1723939559;18/08/24;00:05:59;1.015;-0.02;0.081;-0.00855211354792118;-0.012217304669320583;-0.0012217304902151227
01:00:0A:00:00:00:00;1723939560;18/08/24;00:06:00;1.014;-0.026;0.081;-0.012217304669320583;-0.013439035043120384;0.009773843921720982
01:00:0A:00:00:00:00;1723939561;18/08/24;00:06:01;1.015;-0.029;0.081;-0.0073303827084600925;-0.00855211354792118;-0.0024434609804302454
01:00:0A:00:00:00:00;1723939562;18/08/24;00:06:02;1.016;-0.021;0.082;-0.009773843921720982;-0.012217304669320583;0.0
01:00:0A:00:00:00:00;1723939563;18/08/24;00:06:03;1.015;-0.026;0.081;-0.012217304669320583;-0.013439035043120384;0.009773843921720982
01:00:0A:00:00:00:00;1723939564;18/08/24;00:06:04;1.016;-0.027;0.081;-0.0073303827084600925;-0.0073303827084600925;-0.0024434609804302454
01:00:0A:00:00:00:00;1723939565;18/08/24;00:06:05;1.016;-0.021;0.082;-0.009773843921720982;-0.010995574295520782;-0.0012217304902151227
01:00:0A:00:00:00:00;1723939566;18/08/24;00:06:06;1.015;-0.026;0.08;-0.013439035043120384;-0.014660765416920185;0.009773843921720982
01:00:0A:00:00:00:00;1723939567;18/08/24;00:06:07;1.015;-0.027;0.081;-0.0073303827084600925;-0.00855211354792118;-0.0012217304902151227
01:00:0A:00:00:00:00;1723939568;18/08/24;00:06:08;1.015;-0.02;0.079;0.0073303827084600925;-0.009773843921720982;0.0012217304902151227
01:00:0A:00:00:00:00;1723939569;18/08/24;00:06:09;1.016;-0.025;0.081;-0.0073303827084600925;-0.012217304669320583;0.0073303827084600925
01:00:0A:00:00:00:00;1723939570;18/08/24;00:06:10;1.015;-0.027;0.081;-0.004886921960860491;-0.009773843921720982;0.0
01:00:0A:00:00:00:00;1723939571;18/08/24;00:06:11;1.015;-0.022;0.081;-0.004886921960860491;-0.010995574295520782;0.0012217304902151227
01:00:0A:00:00:00:00;1723939572;18/08/24;00:06:12;1.016;-0.025;0.079;-0.0073303827084600925;-0.013439035043120384;0.00855211354792118
01:00:0A:00:00:00:00;1723939573;18/08/24;00:06:13;1.014;-0.027;0.081;-0.004886921960860491;-0.009773843921720982;0.0012217304902151227
01:00:0A:00:00:00:00;1723939574;18/08/24;00:06:14;1.015;-0.022;0.081;-0.006108652334660292;-0.012217304669320583;0.0012217304902151227
01:00:0A:00:00:00:00;1723939575;18/08/24;00:06:15;1.015;-0.025;0.081;-0.00855211354792118;-0.013439035043120384;0.0073303827084600925
01:00:0A:00:00:00:00;1723939576;18/08/24;00:06:16;1.016;-0.026;0.081;-0.004886921960860491;-0.00855211354792118;0.0
01:00:0A:00:00:00:00;1723939577;18/08/24;00:06:17;1.015;-0.023;0.081;-0.006108652334660292;-0.010995574295520782;0.0
01:00:0A:00:00:00:00;1723939578;18/08/24;00:06:18;1.016;-0.025;0.081;-0.00855211354792118;-0.013439035043120384;0.0073303827084600925
01:00:0A:00:00:00:00;1723939579;18/08/24;00:06:19;1.014;-0.027;0.079;-0.006108652334660292;-0.009773843921720982;0.0012217304902151227
01:00:0A:00:00:00:00;1723939580;18/08/24;00:06:20;1.015;-0.022;0.083;-0.0073303827084600925;-0.012217304669320583;0.0024434609804302454
01:00:0A:00:00:00:00;1723939581;18/08/24;00:06:21;1.015;-0.026;0.08;-0.00855211354792118;-0.013439035043120384;0.006108652334660292
01:00:0A:00:00:00:00;1723939582;18/08/24;00:06:22;1.015;-0.026;0.081;-0.004886921960860491;-0.0073303827084600925;-0.0012217304902151227
01:00:0A:00:00:00:00;1723939583;18/08/24;00:06:23;1.015;-0.023;0.081;-0.0073303827084600925;-0.012217304669320583;0.0024434609804302454
01:00:0A:00:00:00:00;1723939584;18/08/24;00:06:24;1.016;-0.026;0.08;-0.00855211354792118;-0.014660765416920185;0.0073303827084600925
01:00:0A:00:00:00:00;1723939585;18/08/24;00:06:25;1.016;-0.025;0.081;-0.006108652334660292;-0.0073303827084600925;0.0
01:00:0A:00:00:00:00;1723939586;18/08/24;00:06:26;1.015;-0.022;0.082;-0.0073303827084600925;-0.012217304669320583;0.0036651913542300463
01:00:0A:00:00:00:00;1723939587;18/08/24;00:06:27;1.014;-0.026;0.079;-0.00855211354792118;-0.013439035043120384;0.006108652334660292
01:00:0A:00:00:00:00;1723939588;18/08/24;00:06:28;1.015;-0.025;0.08;-0.006108652334660292;-0.0073303827084600925;-0.0012217304902151227
01:00:0A:00:00:00:00;1723939589;18/08/24;00:06:29;1.015;-0.023;0.083;-0.00855211354792118;-0.013439035043120384;0.0036651913542300463
01:00:0A:00:00:00:00;1723939590;18/08/24;00:06:30;1.016;-0.026;0.078;-0.00855211354792118;-0.013439035043120384;0.004886921960860491
01:00:0A:00:00:00:00;1723939591;18/08/24;00:06:31;1.016;-0.025;0.081;-0.006108652334660292;-0.0073303827084600925;-0.0012217304902151227
01:00:0A:00:00:00:00;1723939592;18/08/24;00:06:32;1.015;-0.023;0.083;-0.00855211354792118;-0.013439035043120384;0.004886921960860491
01:00:0A:00:00:00:00;1723939593;18/08/24;00:06:33;1.014;-0.027;0.079;-0.00855211354792118;-0.013439035043120384;0.006108652334660292
01:00:0A:00:00:00:00;1723939594;18/08/24;00:06:34;1.015;-0.024;0.081;-0.006108652334660292;-0.0073303827084600925;0.0
01:00:0A:00:00:00:00;1723939595;18/08/24;00:06:35;1.015;-0.023;0.082;-0.00855211354792118;-0.014660765416920185;0.004886921960860491
01:00:0A:00:00:00:00;1723939596;18/08/24;00:06:36;1.016;-0.027;0.079;-0.00855211354792118;-0.013439035043120384;0.0036651913542300463
01:00:0A:00:00:00:00;1723939597;18/08/24;00:06:37;1.015;-0.023;0.082;-0.004886921960860491;-0.006108652334660292;-0.0012217304902151227
01:00:0A:00:00:00:00;1723939598;18/08/24;00:06:38;1.015;-0.023;0.082;-0.00855211354792118;-0.013439035043120384;0.004886921960860491
01:00:0A:00:00:00:00;1723939599;18/08/24;00:06:39;1.016;-0.026;0.078;-0.00855211354792118;-0.013439035043120384;0.004886921960860491
01:00:0A:00:00:00:00;1723939600;18/08/24;00:06:40;1.015;-0.024;0.081;-0.006108652334660292;-0.0073303827084600925;0.0
01:00:0A:00:00:00:00;1723939597;18/08/24;00:06:37;1.015;-0.023;0.082;-0.00855211354792118;-0.015882495790719986;0.006108652334660292
01:00:0A:00:00:00:00;1723939598;18/08/24;00:06:38;1.015;-0.026;0.08;-0.0073303827084600925;-0.012217304669320583;0.0036651913542300463
01:00:0A:00:00:00:00;1723939599;18/08/24;00:06:39;1.015;-0.024;0.081;-0.004886921960860491;-0.006108652334660292;0.0
01:00:0A:00:00:00:00;1723939600;18/08/24;00:06:40;1.014;-0.023;0.082;-0.00855211354792118;-0.014660765416920185;0.006108652334660292
01:00:0A:00:00:00:00;1723939601;18/08/24;00:06:41;1.015;-0.027;0.079;-0.006108652334660292;-0.010995574295520782;0.0036651913542300463
01:00:0A:00:00:00:00;1723939602;18/08/24;00:06:42;1.015;-0.024;0.081;-0.004886921960860491;-0.0073303827084600925;0.0
01:00:0A:00:00:00:00;1723939603;18/08/24;00:06:43;1.014;-0.024;0.081;-0.00855211354792118;-0.01710422709584236;0.006108652334660292
01:00:0A:00:00:00:00;1723939604;18/08/24;00:06:44;1.015;-0.027;0.08;-0.006108652334660292;-0.010995574295520782;0.0024434609804302454
01:00:0A:00:00:00:00;1723939605;18/08/24;00:06:45;1.014;-0.023;0.083;-0.004886921960860491;-0.006108652334660292;0.0
01:00:0A:00:00:00:00;1723939606;18/08/24;00:06:46;1.014;-0.024;0.082;-0.00855211354792118;-0.015882495790719986;0.006108652334660292
01:00:0A:00:00:00:00;1723939607;18/08/24;00:06:47;1.015;-0.027;0.078;-0.006108652334660292;-0.010995574295520782;0.0024434609804302454
01:00:0A:00:00:00:00;1723939608;18/08/24;00:06:48;1.015;-0.023;0.083;-0.004886921960860491;-0.00855211354792118;0.0012217304902151227
01:00:0A:00:00:00:00;1723939609;18/08/24;00:06:49;1.016;-0.024;0.081;-0.00855211354792118;-0.01710422709584236;0.006108652334660292
01:00:0A:00:00:00:00;1723939610;18/08/24;00:06:50;1.016;-0.026;0.079;-0.004886921960860491;-0.009773843921720982;0.0012217304902151227
01:00:0A:00:00:00:00;1723939611;18/08/24;00:06:51;1.015;-0.024;0.083;-0.004886921960860491;-0.0073303827084600925;0.0012217304902151227
01:00:0A:00:00:00:00;1723939612;18/08/24;00:06:52;1.016;-0.026;0.079;-0.0073303827084600925;-0.01710422709584236;0.006108652334660292
01:00:0A:00:00:00:00;1723939613;18/08/24;00:06:53;1.015;-0.027;0.077;-0.006108652334660292;-0.019547687843441963;0.0073303827084600925
01:00:0A:00:00:00:00;1723939614;18/08/24;00:06:54;1.009;-0.02;0.089;-0.006108652334660292;-0.02321287989616394;0.0073303827084600925
01:00:0A:00:00:00:00;1723939615;18/08/24;00:06:55;1.008;-0.02;0.091;-0.004886921960860491;-0.0012217304902151227;-0.0024434609804302454
01:00:0A:00:00:00:00;1723939616;18/08/24;00:06:56;1.018;-0.027;0.08;-0.0024434609804302454;0.015882495790719986;-0.0073303827084600925
01:00:0A:00:00:00:00;1723939617;18/08/24;00:06:57;1.021;-0.029;0.073;-0.0073303827084600925;-0.006108652334660292;0.0024434609804302454
01:00:0A:00:00:00:00;1723939618;18/08/24;00:06:58;1.027;-0.029;0.072;-0.012217304669320583;-0.040317103266716;0.015882495790719986
01:00:0A:00:00:00:00;1723939619;18/08/24;00:06:59;1.028;-0.028;0.089;-0.013439035043120384;-0.03420845419168472;0.018325956538319588
01:00:0A:00:00:00:00;1723939620;18/08/24;00:07:00;1.008;-0.028;0.101;-0.012217304669320583;0.0012217304902151227;0.009773843921720982
01:00:0A:00:00:00:00;1723939621;18/08/24;00:07:01;0.987;-0.017;0.089;-0.013439035043120384;-0.0012217304902151227;-0.02076941914856434
01:00:0A:00:00:00:00;1723939622;18/08/24;00:07:02;0.986;-0.016;0.081;-0.02076941914856434;0.014660765416920185;0.0024434609804302454
01:00:0A:00:00:00:00;1723939623;18/08/24;00:07:03;1.008;-0.026;0.086;-0.02932153083384037;-0.012217304669320583;-0.015882495790719986
01:00:0A:00:00:00:00;1723939624;18/08/24;00:07:04;1.046;-0.02;0.076;-0.0354301817715168;-0.05009094998240471;-0.019547687843441963
01:00:0A:00:00:00:00;1723939625;18/08/24;00:07:05;1.061;-0.018;0.04;-0.024434609338641167;-0.08796459436416626;0.012217304669320583
01:00:0A:00:00:00:00;1723939626;18/08/24;00:07:06;1.051;-0.044;0.052;0.018325956538319588;-0.012217304669320583;0.051312677562236786
01:00:0A:00:00:00:00;1723939627;18/08/24;00:07:07;0.981;0.001;0.133;0.02687807008624077;0.14416420459747314;-0.05497787147760391
01:00:0A:00:00:00:00;1723939628;18/08/24;00:07:08;0.949;-0.032;0.04;-0.013439035043120384;-0.09040805697441101;0.16982054710388184
01:00:0A:00:00:00:00;1723939629;18/08/24;00:07:09;0.973;-0.032;0.057;0.15027284622192383;0.15271630883216858;-0.14538592100143433
01:00:0A:00:00:00:00;1723939630;18/08/24;00:07:10;1.013;0.001;0.088;0.09285151958465576;-0.19058994948863983;0.14294245839118958
01:00:0A:00:00:00:00;1723939631;18/08/24;00:07:11;1.045;-0.153;0.025;0.22968533635139465;0.09529497474431992;-0.1368338167667389
01:00:0A:00:00:00:00;1723939632;18/08/24;00:07:12;1.034;0.031;0.198;0.16249015927314758;-0.05009094998240471;0.015882495790719986
01:00:0A:00:00:00:00;1723939633;18/08/24;00:07:13;1.015;-0.181;-0.012;0.1014036238193512;-0.1270599663257599;0.15515977144241333
01:00:0A:00:00:00:00;1723939634;18/08/24;00:07:14;0.998;0.038;0.133;0.22846359014511108;0.26511549949645996;-0.28466320037841797
01:00:0A:00:00:00:00;1723939635;18/08/24;00:07:15;0.993;-0.025;0.141;-0.018325956538319588;-0.11484266817569733;0.39095374941825867
01:00:0A:00:00:00:00;1723939636;18/08/24;00:07:16;0.994;-0.112;0.017;0.09162978082895279;-0.06963863223791122;-0.17104226350784302
01:00:0A:00:00:00:00;1723939637;18/08/24;00:07:17;1.0;0.045;0.046;0.12095131725072861;0.05742133408784866;-0.013439035043120384
01:00:0A:00:00:00:00;1723939638;18/08/24;00:07:18;1.011;-0.102;0.113;0.0659734457731247;-0.08796459436416626;0.17470745742321014
01:00:0A:00:00:00:00;1723939639;18/08/24;00:07:19;1.015;-0.153;0.102;0.16371189057826996;-0.07696902006864548;-0.17592918872833252
01:00:0A:00:00:00:00;1723939640;18/08/24;00:07:20;1.031;0.029;0.136;0.15027284622192383;0.0757472887635231;0.05253440886735916
01:00:0A:00:00:00:00;1723939641;18/08/24;00:07:21;1.015;-0.168;0.119;0.1466076523065567;-0.006108652334660292;0.17348572611808777
01:00:0A:00:00:00:00;1723939642;18/08/24;00:07:22;1.018;0.0;0.027;0.2577851116657257;-0.014660765416920185;-0.2015855312347412
01:00:0A:00:00:00:00;1723939643;18/08/24;00:07:23;0.98;-0.028;0.158;0.19303341209888458;0.23579397797584534;0.161268413066864
01:00:0A:00:00:00:00;1723939644;18/08/24;00:07:24;0.972;-0.091;0.114;0.0708603635430336;-0.24923302233219147;0.015882495790719986
01:00:0A:00:00:00:00;1723939645;18/08/24;00:07:25;0.991;-0.046;0.011;0.11850785464048386;0.0757472887635231;-0.16371189057826996
01:00:0A:00:00:00:00;1723939646;18/08/24;00:07:26;1.013;0.026;0.079;-0.021991148591041565;-0.036651913076639175;0.20402899384498596
01:00:0A:00:00:00:00;1723939647;18/08/24;00:07:27;1.036;-0.164;0.102;-0.0024434609804302454;-0.07208210229873657;0.0
01:00:0A:00:00:00:00;1723939648;18/08/24;00:07:28;1.049;0.028;0.012;0.04398229718208313;-0.1258382350206375;-0.09040805697441101
01:00:0A:00:00:00:00;1723939649;18/08/24;00:07:29;1.007;-0.113;0.009;0.18814648687839508;0.02076941914856434;-0.012217304669320583
01:00:0A:00:00:00:00;1723939650;18/08/24;00:07:30;0.968;0.14;0.091;0.313984751701355;0.24190263450145721;-0.3885102868080139
01:00:0A:00:00:00:00;1723939651;18/08/24;00:07:31;0.91;0.047;0.35;-0.0354301817715168;0.33108896017074585;1.0983357429504395
01:00:0A:00:00:00:00;1723939652;18/08/24;00:07:32;0.901;-0.404;-0.081;0.31642818450927734;-1.1630873680114746;-0.6585127115249634
01:00:0A:00:00:00:00;1723939653;18/08/24;00:07:33;0.928;0.077;-0.291;1.6725490093231201;0.42149701714515686;-0.6340781450271606
01:00:0A:00:00:00:00;1723939654;18/08/24;00:07:34;0.969;0.246;0.128;1.527163028717041;0.7538076639175415;-0.009773843921720982
01:00:0A:00:00:00:00;1723939655;18/08/24;00:07:35;0.996;-0.02;0.203;1.108109474182129;-0.09651670604944229;0.6389650106430054
01:00:0A:00:00:00:00;1723939656;18/08/24;00:07:36;0.961;-0.287;0.066;1.1349875926971436;-0.31642818450927734;0.15027284622192383
01:00:0A:00:00:00:00;1723939657;18/08/24;00:07:37;0.983;-0.198;0.081;1.2596040964126587;-0.5143485069274902;-0.34086278080940247
01:00:0A:00:00:00:00;1723939658;18/08/24;00:07:38;1.036;-0.169;0.032;1.3634511232376099;0.010995574295520782;-0.1661553531885147
01:00:0A:00:00:00:00;1723939659;18/08/24;00:07:39;1.053;0.084;0.124;1.1814132928848267;-0.17592918872833252;-0.0073303827084600925
01:00:0A:00:00:00:00;1723939660;18/08/24;00:07:40;1.016;-0.283;-0.005;1.2486084699630737;-0.34697145223617554;0.161268413066864
01:00:0A:00:00:00:00;1723939661;18/08/24;00:07:41;0.977;0.114;-0.116;1.4587461948394775;-0.28099802136421204;-0.7623597979545593
01:00:0A:00:00:00:00;1723939662;18/08/24;00:07:42;0.969;0.067;0.088;1.4440854787826538;0.5791001915931702;-0.03176499158143997
01:00:0A:00:00:00:00;1723939663;18/08/24;00:07:43;0.955;-0.124;0.12;1.260825753211975;-0.1918116807937622;0.37262779474258423
01:00:0A:00:00:00:00;1723939664;18/08/24;00:07:44;1.006;-0.009;0.002;1.3512338399887085;-0.27488934993743896;-0.34208452701568604
01:00:0A:00:00:00:00;1723939665;18/08/24;00:07:45;1.04;-0.064;-0.16;1.4477505683898926;0.6035348773002625;0.40683624148368835
01:00:0A:00:00:00:00;1723939666;18/08/24;00:07:46;0.872;0.332;0.514;0.9615018963813782;0.16859880089759827;0.720820963382721
01:00:0A:00:00:00:00;1723939667;18/08/24;00:07:47;0.988;-0.422;0.044;0.7562511563301086;-1.0348056554794312;0.5558874011039734
01:00:0A:00:00:00:00;1723939668;18/08/24;00:07:48;0.994;-0.214;-0.188;1.3720033168792725;-0.13316862285137177;-0.3029891550540924
01:00:0A:00:00:00:00;1723939669;18/08/24;00:07:49;0.961;0.04;0.204;1.4477505683898926;0.27611109614372253;-0.17959438264369965
01:00:0A:00:00:00:00;1723939670;18/08/24;00:07:50;0.983;0.122;0.03;1.0311404466629028;-0.13561207056045532;0.4605923891067505
01:00:0A:00:00:00:00;1723939671;18/08/24;00:07:51;1.016;-0.207;0.116;1.0629055500030518;-0.010995574295520782;0.04398229718208313
01:00:0A:00:00:00:00;1723939672;18/08/24;00:07:52;1.083;-0.018;0.05;0.9859364628791809;-0.09407324343919754;-0.025656338781118393
01:00:0A:00:00:00:00;1723939673;18/08/24;00:07:53;1.076;-0.085;0.048;0.959058403968811;0.04764748737215996;0.07452555745840073
01:00:0A:00:00:00:00;1723939674;18/08/24;00:07:54;0.97;0.025;0.158;0.9028588533401489;0.1966986060142517;-0.07452555745840073
01:00:0A:00:00:00:00;1723939675;18/08/24;00:07:55;0.926;-0.171;0.033;0.8234463334083557;-0.20647244155406952;0.32009339332580566
01:00:0A:00:00:00:00;1723939676;18/08/24;00:07:56;0.957;-0.008;-0.004;1.0726792812347412;-0.18814648687839508;-0.8136724829673767
01:00:0A:00:00:00:00;1723939677;18/08/24;00:07:57;1.013;-0.072;-0.085;1.0922271013259888;0.5925393104553223;0.5571090579032898
01:00:0A:00:00:00:00;1723939678;18/08/24;00:07:58;0.884;0.049;0.583;0.7709119319915771;-0.3481931686401367;-0.1661553531885147
01:00:0A:00:00:00:00;1723939679;18/08/24;00:07:59;1.088;-0.039;-0.112;0.4948008358478546;-0.18814648687839508;0.05742133408784866
01:00:0A:00:00:00:00;1723939680;18/08/24;00:08:00;1.068;-0.072;0.147;0.6035348773002625;0.31154125928878784;0.0012217304902151227
01:00:0A:00:00:00:00;1723939681;18/08/24;00:08:01;1.007;0.042;0.056;0.46547931432724;0.012217304669320583;0.12095131725072861
01:00:0A:00:00:00:00;1723939682;18/08/24;00:08:02;0.959;-0.039;0.181;0.33964109420776367;0.15027284622192383;0.1417207270860672
01:00:0A:00:00:00:00;1723939683;18/08/24;00:08:03;0.976;0.032;0.142;0.1514945775270462;-0.3237585723400116;0.10384709388017654
01:00:0A:00:00:00:00;1723939684;18/08/24;00:08:04;1.013;-0.07;0.043;0.13072516024112701;-0.06108652427792549;0.13561207056045532
01:00:0A:00:00:00:00;1723939685;18/08/24;00:08:05;1.027;-0.204;0.074;0.24190263450145721;-0.4141666293144226;-0.2638937830924988
01:00:0A:00:00:00:00;1723939686;18/08/24;00:08:06;1.021;0.03;-0.226;0.4813618063926697;0.161268413066864;-0.09773843735456467
01:00:0A:00:00:00:00;1723939687;18/08/24;00:08:07;0.981;0.052;0.406;0.37629297375679016;0.13561207056045532;-0.07696902006864548
01:00:0A:00:00:00:00;1723939688;18/08/24;00:08:08;1.045;-0.029;0.109;0.1368338167667389;-0.31031954288482666;-0.02687807008624077
01:00:0A:00:00:00:00;1723939689;18/08/24;00:08:09;0.997;0.032;-0.161;0.3543018400669098;0.2895500957965851;-0.27611109614372253
01:00:0A:00:00:00:00;1723939690;18/08/24;00:08:10;0.956;0.059;0.334;0.2883284091949463;0.616973876953125;0.1869247555732727
01:00:0A:00:00:00:00;1723939691;18/08/24;00:08:11;0.936;-0.126;0.367;-0.1722639948129654;-0.4447098970413208;0.5204571485519409
01:00:0A:00:00:00:00;1723939692;18/08/24;00:08:12;0.91;-0.338;-0.27;0.17959438264369965;-0.7489207983016968;-0.12950342893600464
01:00:0A:00:00:00:00;1723939693;18/08/24;00:08:13;0.996;-0.127;-0.228;0.8979718685150146;0.39706242084503174;-0.5021312236785889
01:00:0A:00:00:00:00;1723939694;18/08/24;00:08:14;0.995;0.187;0.112;0.8332201242446899;0.3017674386501312;0.09162978082895279
01:00:0A:00:00:00:00;1723939695;18/08/24;00:08:15;1.01;-0.179;0.152;0.6096435189247131;-0.030543262138962746;0.39217546582221985
01:00:0A:00:00:00:00;1723939696;18/08/24;00:08:16;1.017;-0.018;0.098;0.6621779203414917;-0.16249015927314758;-0.2028072476387024
01:00:0A:00:00:00:00;1723939697;18/08/24;00:08:17;0.976;0.08;-0.106;0.6682865619659424;-0.23457224667072296;-0.013439035043120384
01:00:0A:00:00:00:00;1723939698;18/08/24;00:08:18;0.989;0.003;0.12;0.7232644557952881;0.49724429845809937;0.06475171446800232
01:00:0A:00:00:00:00;1723939699;18/08/24;00:08:19;0.992;0.117;0.094;0.5045746564865112;-0.4080579876899719;-0.06352998316287994
01:00:0A:00:00:00:00;1723939700;18/08/24;00:08:20;1.046;-0.044;-0.052;0.4996877610683441;0.1514945775270462;0.2822197377681732
01:00:0A:00:00:00:00;1723939701;18/08/24;00:08:21;1.009;0.02;0.355;0.4153883755207062;0.1966986060142517;0.040317103266716
01:00:0A:00:00:00:00;1723939702;18/08/24;00:08:22;1.035;0.126;-0.002;0.19425514340400696;-0.23335053026676178;0.030543262138962746
01:00:0A:00:00:00:00;1723939703;18/08/24;00:08:23;0.962;-0.258;0.121;0.26633724570274353;0.2125810980796814;0.4300491213798523
01:00:0A:00:00:00:00;1723939704;18/08/24;00:08:24;0.963;-0.182;0.062;0.48380526900291443;-0.375071257352829;-0.47280970215797424
01:00:0A:00:00:00:00;1723939705;18/08/24;00:08:25;0.984;-0.079;-0.046;0.685390830039978;0.33719760179519653;-0.06352998316287994
01:00:0A:00:00:00:00;1723939706;18/08/24;00:08:26;1.041;0.005;0.224;0.6585127115249634;-0.021991148591041565;-0.25534167885780334
01:00:0A:00:00:00:00;1723939707;18/08/24;00:08:27;1.084;0.066;-0.108;0.5962044596672058;0.1368338167667389;0.06475171446800232
01:00:0A:00:00:00:00;1723939708;18/08/24;00:08:28;1.016;-0.259;0.354;0.5937609672546387;0.12217304855585098;0.17592918872833252
01:00:0A:00:00:00:00;1723939709;18/08/24;00:08:29;1.023;0.094;-0.272;0.5302309989929199;-0.27611109614372253;-0.07208210229873657
01:00:0A:00:00:00:00;1723939710;18/08/24;00:08:30;1.018;0.014;0.234;0.5485569834709167;0.588874101638794;0.08918632566928864
01:00:0A:00:00:00:00;1723939711;18/08/24;00:08:31;1.033;-0.009;-0.004;0.2883284091949463;-0.2480112910270691;0.13316862285137177
01:00:0A:00:00:00:00;1723939712;18/08/24;00:08:32;1.005;0.088;0.098;0.3237585723400116;0.22968533635139465;-0.29077184200286865
01:00:0A:00:00:00:00;1723939713;18/08/24;00:08:33;0.995;0.2;0.142;0.02687807008624077;-0.12339477241039276;-0.06108652427792549
01:00:0A:00:00:00:00;1723939714;18/08/24;00:08:34;1.032;-0.171;-0.009;-0.10506881773471832;0.05742133408784866;0.09285151958465576
01:00:0A:00:00:00:00;1723939715;18/08/24;00:08:35;1.009;-0.039;0.02;-0.09407324343919754;-0.08185594528913498;-0.1820378452539444
01:00:0A:00:00:00:00;1723939716;18/08/24;00:08:36;0.956;-0.082;0.07;-0.07208210229873657;0.16493360698223114;0.2028072476387024
01:00:0A:00:00:00:00;1723939717;18/08/24;00:08:37;0.9;-0.12;0.117;-0.05253440886735916;-0.19547687470912933;0.02076941914856434
01:00:0A:00:00:00:00;1723939718;18/08/24;00:08:38;0.925;-0.06;-0.131;0.16249015927314758;-0.34574973583221436;-0.2431243658065796
01:00:0A:00:00:00:00;1723939719;18/08/24;00:08:39;0.98;-0.048;-0.178;0.5473352670669556;0.7098253965377808;-0.11362093687057495
01:00:0A:00:00:00:00;1723939720;18/08/24;00:08:40;0.979;0.087;0.292;0.23945917189121246;-0.2431243658065796;0.2919935882091522
01:00:0A:00:00:00:00;1723939721;18/08/24;00:08:41;1.029;-0.247;0.048;0.18081611394882202;-0.25534167885780334;0.04153883829712868
01:00:0A:00:00:00:00;1723939722;18/08/24;00:08:42;1.021;0.108;0.098;0.29565879702568054;0.042760565876960754;-0.35063666105270386
01:00:0A:00:00:00:00;1723939723;18/08/24;00:08:43;0.986;-0.11;0.066;0.17348572611808777;0.040317103266716;0.48380526900291443
01:00:0A:00:00:00:00;1723939724;18/08/24;00:08:44;0.92;-0.017;0.112;0.3335324227809906;0.1673770695924759;-0.4105014204978943
01:00:0A:00:00:00:00;1723939725;18/08/24;00:08:45;0.915;-0.04;0.104;0.03176499158143997;-0.34574973583221436;0.5925393104553223
01:00:0A:00:00:00:00;1723939726;18/08/24;00:08:46;0.97;-0.133;0.122;0.25045475363731384;-0.009773843921720982;-0.8772024512290955
01:00:0A:00:00:00:00;1723939727;18/08/24;00:08:47;0.981;0.103;0.12;-0.06352998316287994;0.21502456068992615;1.1142181158065796
01:00:0A:00:00:00:00;1723939728;18/08/24;00:08:48;0.901;-0.37;0.264;0.08429940044879913;-0.2981022298336029;-0.5583308339118958
01:00:0A:00:00:00:00;1723939729;18/08/24;00:08:49;0.994;0.175;-0.034;-0.021991148591041565;-0.6096435189247131;-0.2174680233001709
01:00:0A:00:00:00:00;1723939730;18/08/24;00:08:50;1.027;-0.02;-0.081;0.09285151958465576;0.27000245451927185;0.42760565876960754
01:00:0A:00:00:00:00;1723939731;18/08/24;00:08:51;0.95;-0.108;0.325;0.2125810980796814;0.12217304855585098;-0.3274237811565399
01:00:0A:00:00:00:00;1723939732;18/08/24;00:08:52;0.979;0.105;0.02;0.09896016865968704;-0.3689626157283783;-0.313984751701355
01:00:0A:00:00:00:00;1723939733;18/08/24;00:08:53;0.976;-0.048;0.085;0.07452555745840073;0.35185837745666504;0.7648032903671265
01:00:0A:00:00:00:00;1723939734;18/08/24;00:08:54;0.951;-0.276;0.032;0.2993239760398865;-0.4349360466003418;-0.3701843321323395
01:00:0A:00:00:00:00;1723939735;18/08/24;00:08:55;0.982;0.172;-0.076;0.4801400899887085;0.38606682419776917;-0.2785545289516449
01:00:0A:00:00:00:00;1723939736;18/08/24;00:08:56;0.979;0.054;0.222;0.21868975460529327;0.18936821818351746;0.5925393104553223
01:00:0A:00:00:00:00;1723939737;18/08/24;00:08:57;0.971;-0.119;-0.091;0.294437050819397;-0.5558874011039734;0.04153883829712868
01:00:0A:00:00:00:00;1723939738;18/08/24;00:08:58;0.953;0.081;0.111;0.5742133259773254;0.5729915499687195;-0.25534167885780334
01:00:0A:00:00:00:00;1723939739;18/08/24;00:08:59;0.937;-0.074;0.11;0.322536826133728;-0.4141666293144226;0.6438519358634949
01:00:0A:00:00:00:00;1723939740;18/08/24;00:09:00;0.952;-0.058;0.015;0.7550294399261475;-0.051312677562236786;-0.5387831330299377
01:00:0A:00:00:00:00;1723939741;18/08/24;00:09:01;0.961;0.105;0.098;0.5962044596672058;0.11362093687057495;0.15027284622192383
01:00:0A:00:00:00:00;1723939742;18/08/24;00:09:02;1.0;-0.078;0.172;0.4288274049758911;-0.2321287840604782;0.24678954482078552
01:00:0A:00:00:00:00;1723939743;18/08/24;00:09:03;1.01;-0.128;0.064;0.5253441333770752;-0.1368338167667389;-0.2724458873271942
01:00:0A:00:00:00:00;1723939744;18/08/24;00:09:04;1.007;0.09;0.021;0.49846604466438293;0.10995574295520782;0.09896016865968704
01:00:0A:00:00:00:00;1723939745;18/08/24;00:09:05;1.014;-0.045;0.15;0.4080579876899719;0.14416420459747314;0.3591887652873993
01:00:0A:00:00:00:00;1723939746;18/08/24;00:09:06;1.043;-0.092;0.065;0.4105014204978943;-0.09651670604944229;0.009773843921720982
01:00:0A:00:00:00:00;1723939747;18/08/24;00:09:07;1.023;0.012;-0.113;0.46792274713516235;-0.16004669666290283;-0.08307767659425735
01:00:0A:00:00:00:00;1723939748;18/08/24;00:09:08;0.943;-0.042;0.174;0.44348815083503723;0.21868975460529327;0.12828169763088226
01:00:0A:00:00:00:00;1723939749;18/08/24;00:09:09;0.93;-0.013;0.009;0.2370157092809677;-0.740368664264679;0.16982054710388184
01:00:0A:00:00:00:00;1723939750;18/08/24;00:09:10;0.971;0.031;0.025;0.5644394755363464;0.8038986325263977;-0.3481931686401367
01:00:0A:00:00:00:00;1723939751;18/08/24;00:09:11;0.954;0.211;0.287;0.11239919811487198;-0.5204571485519409;0.2272418737411499
01:00:0A:00:00:00:00;1723939752;18/08/24;00:09:12;1.012;-0.118;-0.151;0.2528982162475586;0.13927726447582245;-0.3078760802745819
01:00:0A:00:00:00:00;1723939753;18/08/24;00:09:13;1.045;0.029;0.183;0.2883284091949463;0.09773843735456467;-0.1014036238193512
01:00:0A:00:00:00:00;1723939754;18/08/24;00:09:14;1.051;-0.036;0.109;0.15393804013729095;-0.09162978082895279;0.17104226350784302
01:00:0A:00:00:00:00;1723939755;18/08/24;00:09:15;1.051;-0.175;-0.049;0.30543261766433716;-0.03298672288656235;0.05375614017248154
01:00:0A:00:00:00:00;1723939756;18/08/24;00:09:16;1.06;0.107;0.12;0.42149701714515686;0.11362093687057495;0.04153883829712868
01:00:0A:00:00:00:00;1723939757;18/08/24;00:09:17;0.996;-0.159;0.285;0.6963863372802734;0.16859880089759827;0.3579670488834381
01:00:0A:00:00:00:00;1723939758;18/08/24;00:09:18;0.999;-0.015;-0.138;0.6426302194595337;-0.5497786998748779;-0.06963863223791122
01:00:0A:00:00:00:00;1723939759;18/08/24;00:09:19;0.959;0.012;0.111;0.8258897662162781;0.48380526900291443;-0.32009339332580566
01:00:0A:00:00:00:00;1723939760;18/08/24;00:09:20;0.965;0.03;0.174;0.44226640462875366;-0.32498031854629517;0.4593706727027893
01:00:0A:00:00:00:00;1723939761;18/08/24;00:09:21;0.997;-0.186;0.094;0.5742133259773254;-0.05375614017248154;-0.19792033731937408
01:00:0A:00:00:00:00;1723939762;18/08/24;00:09:22;1.026;0.129;0.029;0.5839871764183044;0.039095375686883926;-0.20402899384498596
01:00:0A:00:00:00:00;1723939763;18/08/24;00:09:23;1.011;-0.06;0.077;0.4911356568336487;0.10018189996480942;0.20402899384498596
01:00:0A:00:00:00:00;1723939764;18/08/24;00:09:24;0.968;-0.091;0.115;0.45204028487205505;-0.22113320231437683;-0.03787364438176155
01:00:0A:00:00:00:00;1723939765;18/08/24;00:09:25;0.989;-0.014;0.054;0.4899139106273651;-0.0073303827084600925;-0.0012217304902151227
01:00:0A:00:00:00:00;1723939766;18/08/24;00:09:26;1.029;0.029;0.108;0.4996877610683441;0.13316862285137177;-0.010995574295520782
01:00:0A:00:00:00:00;1723939767;18/08/24;00:09:27;1.034;-0.019;0.119;0.4202752709388733;-0.05742133408784866;-0.030543262138962746
01:00:0A:00:00:00:00;1723939768;18/08/24;00:09:28;1.007;-0.073;0.023;0.4202752709388733;-0.14782939851284027;-0.05253440886735916
01:00:0A:00:00:00:00;1723939769;18/08/24;00:09:29;0.98;-0.028;0.105;0.46670106053352356;0.04398229718208313;-0.08185594528913498
01:00:0A:00:00:00:00;1723939770;18/08/24;00:09:30;0.995;-0.001;0.114;0.35674530267715454;-0.13805554807186127;0.17348572611808777
01:00:0A:00:00:00:00;1723939771;18/08/24;00:09:31;1.043;-0.119;0.071;0.43249258399009705;-0.02687807008624077;-0.18325956165790558
01:00:0A:00:00:00:00;1723939772;18/08/24;00:09:32;1.063;0.077;0.065;0.3677408695220947;-0.03420845419168472;0.05253440886735916
01:00:0A:00:00:00:00;1723939773;18/08/24;00:09:33;1.04;-0.163;0.15;0.33108896017074585;0.045204028487205505;0.16982054710388184
01:00:0A:00:00:00:00;1723939774;18/08/24;00:09:34;1.027;0.041;0.052;0.3298672139644623;-0.1368338167667389;-0.1270599663257599
01:00:0A:00:00:00:00;1723939775;18/08/24;00:09:35;0.997;-0.036;0.105;0.3078760802745819;0.13316862285137177;0.12950342893600464
01:00:0A:00:00:00:00;1723939776;18/08/24;00:09:36;0.996;-0.047;0.142;0.24556782841682434;-0.17470745742321014;-0.036651913076639175
01:00:0A:00:00:00:00;1723939777;18/08/24;00:09:37;1.011;-0.031;0.049;0.25045475363731384;-0.039095375686883926;-0.018325956538319588
01:00:0A:00:00:00:00;1723939778;18/08/24;00:09:38;1.025;-0.061;0.098;0.2834414541721344;0.16371189057826996;0.019547687843441963
01:00:0A:00:00:00:00;1723939779;18/08/24;00:09:39;1.037;-0.057;0.135;0.22846359014511108;0.02932153083384037;-0.010995574295520782
01:00:0A:00:00:00:00;1723939780;18/08/24;00:09:40;1.04;-0.073;0.0;0.23579397797584534;-0.04764748737215996;0.01710422709584236
01:00:0A:00:00:00:00;1723939781;18/08/24;00:09:41;0.998;-0.031;0.192;0.2272418737411499;0.25534167885780334;0.02687807008624077
01:00:0A:00:00:00:00;1723939782;18/08/24;00:09:42;0.935;-0.082;0.033;0.13316862285137177;-0.3701843321323395;0.17959438264369965
01:00:0A:00:00:00:00;1723939783;18/08/24;00:09:43;0.911;0.019;0.132;0.3445279896259308;0.5082398653030396;-0.3237585723400116
01:00:0A:00:00:00:00;1723939784;18/08/24;00:09:44;0.957;-0.026;0.071;-0.013439035043120384;-0.7305948734283447;0.5583308339118958
01:00:0A:00:00:00:00;1723939785;18/08/24;00:09:45;0.958;-0.205;-0.122;0.47769662737846375;0.5974262356758118;-0.6243042349815369
01:00:0A:00:00:00:00;1723939786;18/08/24;00:09:46;0.958;0.196;0.154;0.13561207056045532;-0.3347541391849518;0.6010913848876953
01:00:0A:00:00:00:00;1723939787;18/08/24;00:09:47;1.028;-0.238;0.0;0.2638937830924988;-0.009773843921720982;-0.2687807083129883
01:00:0A:00:00:00:00;1723939788;18/08/24;00:09:48;1.055;0.136;0.12;0.19058994948863983;-0.09407324343919754;0.12339477241039276
01:00:0A:00:00:00:00;1723939789;18/08/24;00:09:49;1.054;-0.21;0.081;0.17470745742321014;0.07208210229873657;0.24556782841682434
01:00:0A:00:00:00:00;1723939790;18/08/24;00:09:50;1.034;0.102;0.084;0.21013763546943665;0.10506881773471832;-0.1673770695924759
01:00:0A:00:00:00:00;1723939791;18/08/24;00:09:51;0.998;-0.059;0.007;0.10262535512447357;0.06963863223791122;0.3286454975605011
01:00:0A:00:00:00:00;1723939792;18/08/24;00:09:52;0.99;-0.066;0.037;0.17837265133857727;-0.025656338781118393;-0.1368338167667389
01:00:0A:00:00:00:00;1723939793;18/08/24;00:09:53;0.991;0.049;0.038;0.11239919811487198;-0.21013763546943665;0.004886921960860491
01:00:0A:00:00:00:00;1723939794;18/08/24;00:09:54;0.998;-0.043;0.074;0.11728612333536148;-0.021991148591041565;0.17592918872833252
01:00:0A:00:00:00:00;1723939795;18/08/24;00:09:55;1.006;-0.05;0.17;0.17104226350784302;-0.06841690838336945;-0.18325956165790558
01:00:0A:00:00:00:00;1723939796;18/08/24;00:09:56;1.049;0.06;0.063;0.15027284622192383;0.05619959905743599;-0.1014036238193512
01:00:0A:00:00:00:00;1723939797;18/08/24;00:09:57;1.071;-0.118;0.09;0.16982054710388184;0.08796459436416626;-0.051312677562236786
01:00:0A:00:00:00:00;1723939798;18/08/24;00:09:58;1.059;-0.031;0.088;0.1514945775270462;0.0073303827084600925;-0.06475171446800232
01:00:0A:00:00:00:00;1723939799;18/08/24;00:09:59;0.995;-0.111;0.031;0.11972958594560623;-0.09529497474431992;0.26633724570274353
01:00:0A:00:00:00:00;1723939800;18/08/24;00:10:00;0.892;0.068;0.102;0.19425514340400696;0.12828169763088226;-0.3127630054950714
01:00:0A:00:00:00:00;1723939801;18/08/24;00:10:01;0.909;-0.067;0.046;0.1270599663257599;0.0354301817715168;0.013439035043120384
01:00:0A:00:00:00:00;1723939802;18/08/24;00:10:02;1.016;-0.034;0.067;0.6047565937042236;-0.080634206533432;-0.6010913848876953
01:00:0A:00:00:00:00;1723939803;18/08/24;00:10:03;1.042;0.13;-0.11;0.5082398653030396;0.5314527750015259;0.6817255616188049
01:00:0A:00:00:00:00;1723939804;18/08/24;00:10:04;0.854;-0.394;0.594;0.025656338781118393;-0.4862487316131592;-0.21380282938480377
01:00:0A:00:00:00:00;1723939805;18/08/24;00:10:05;1.061;0.23;-0.162;-0.21013763546943665;-0.30054569244384766;-0.30543261766433716
01:00:0A:00:00:00:00;1723939806;18/08/24;00:10:06;1.038;-0.234;0.2;-0.161268413066864;0.2541199326515198;0.41172316670417786
01:00:0A:00:00:00:00;1723939807;18/08/24;00:10:07;0.952;0.12;0.024;-0.09407324343919754;-0.2541199326515198;-0.5717698335647583
01:00:0A:00:00:00:00;1723939808;18/08/24;00:10:08;0.92;-0.152;0.097;-0.21380282938480377;0.16371189057826996;0.7562511563301086
01:00:0A:00:00:00:00;1723939809;18/08/24;00:10:09;0.944;-0.165;0.109;0.06963863223791122;-0.1722639948129654;-0.9260717034339905
01:00:0A:00:00:00:00;1723939810;18/08/24;00:10:10;0.963;0.135;0.034;-0.17592918872833252;0.05253440886735916;0.750142514705658
01:00:0A:00:00:00:00;1723939811;18/08/24;00:10:11;0.997;-0.271;0.088;-0.021991148591041565;0.036651913076639175;-0.14782939851284027
01:00:0A:00:00:00:00;1723939812;18/08/24;00:10:12;1.036;0.113;0.097;-0.00855211354792118;-0.08307767659425735;-0.15027284622192383
01:00:0A:00:00:00:00;1723939813;18/08/24;00:10:13;1.045;0.023;0.034;-0.07452555745840073;-0.02687807008624077;0.06719517707824707
01:00:0A:00:00:00:00;1723939814;18/08/24;00:10:14;1.0;-0.218;0.112;-0.0024434609804302454;0.08429940044879913;0.045204028487205505
01:00:0A:00:00:00:00;1723939815;18/08/24;00:10:15;1.009;-0.014;0.099;0.03298672288656235;-0.080634206533432;-0.2895500957965851
01:00:0A:00:00:00:00;1723939816;18/08/24;00:10:16;0.984;-0.068;0.054;-0.05742133408784866;0.03787364438176155;0.35063666105270386
01:00:0A:00:00:00:00;1723939817;18/08/24;00:10:17;0.967;-0.103;0.112;0.03176499158143997;0.08674286305904388;-0.030543262138962746
01:00:0A:00:00:00:00;1723939818;18/08/24;00:10:18;0.987;0.028;0.093;-0.006108652334660292;-0.10262535512447357;-0.03787364438176155
01:00:0A:00:00:00:00;1723939819;18/08/24;00:10:19;1.009;0.009;0.032;-0.019547687843441963;0.06841690838336945;0.14049901068210602
01:00:0A:00:00:00:00;1723939820;18/08/24;00:10:20;1.034;-0.09;0.111;0.028099799528717995;-0.06963863223791122;-0.17837265133857727
01:00:0A:00:00:00:00;1723939821;18/08/24;00:10:21;1.049;0.063;0.043;-0.012217304669320583;-0.09529497474431992;-0.080634206533432
01:00:0A:00:00:00:00;1723939822;18/08/24;00:10:22;1.039;-0.127;0.087;-0.012217304669320583;-0.01710422709584236;0.13072516024112701
01:00:0A:00:00:00:00;1723939823;18/08/24;00:10:23;0.995;-0.051;0.129;0.03420845419168472;0.025656338781118393;-0.04764748737215996
01:00:0A:00:00:00:00;1723939824;18/08/24;00:10:24;0.977;-0.013;0.088;-0.009773843921720982;-0.05619959905743599;0.09773843735456467
01:00:0A:00:00:00:00;1723939825;18/08/24;00:10:25;0.998;-0.053;0.095;0.04398229718208313;0.03420845419168472;-0.004886921960860491
01:00:0A:00:00:00:00;1723939826;18/08/24;00:10:26;1.027;-0.03;0.109;0.06719517707824707;-0.045204028487205505;-0.04153883829712868
01:00:0A:00:00:00:00;1723939827;18/08/24;00:10:27;1.063;-0.018;0.038;0.07696902006864548;0.019547687843441963;-0.0024434609804302454
01:00:0A:00:00:00:00;1723939828;18/08/24;00:10:28;1.057;-0.098;0.115;0.09773843735456467;0.05742133408784866;0.04764748737215996
01:00:0A:00:00:00:00;1723939829;18/08/24;00:10:29;1.011;-0.025;0.045;0.1014036238193512;-0.07452555745840073;-0.024434609338641167
01:00:0A:00:00:00:00;1723939830;18/08/24;00:10:30;0.956;-0.073;0.111;0.11972958594560623;0.1673770695924759;0.1661553531885147
01:00:0A:00:00:00:00;1723939831;18/08/24;00:10:31;0.944;-0.034;0.05;0.12461651116609573;-0.19058994948863983;-0.16249015927314758
01:00:0A:00:00:00:00;1723939832;18/08/24;00:10:32;1.003;-0.007;0.009;0.1576032191514969;0.27977627515792847;0.19914205372333527
01:00:0A:00:00:00:00;1723939833;18/08/24;00:10:33;1.014;-0.103;0.19;0.08674286305904388;-0.33719760179519653;-0.1368338167667389
01:00:0A:00:00:00:00;1723939834;18/08/24;00:10:34;1.048;0.044;-0.105;0.11484266817569733;-0.039095375686883926;0.02932153083384037
01:00:0A:00:00:00:00;1723939835;18/08/24;00:10:35;1.023;-0.071;0.214;0.12217304855585098;0.16004669666290283;0.10873401165008545
01:00:0A:00:00:00:00;1723939836;18/08/24;00:10:36;1.007;-0.023;0.083;0.02932153083384037;-0.27122414112091064;-0.036651913076639175
01:00:0A:00:00:00:00;1723939837;18/08/24;00:10:37;0.991;0.003;0.032;0.10018189996480942;0.07452555745840073;0.006108652334660292
01:00:0A:00:00:00:00;1723939838;18/08/24;00:10:38;0.988;-0.022;0.146;0.0757472887635231;0.04886921867728233;0.02687807008624077
01:00:0A:00:00:00:00;1723939839;18/08/24;00:10:39;1.016;-0.025;0.1;0.019547687843441963;-0.17348572611808777;-0.05375614017248154
01:00:0A:00:00:00:00;1723939840;18/08/24;00:10:40;1.047;-0.009;0.0;0.07819075137376785;0.06352998316287994;-0.03176499158143997
01:00:0A:00:00:00:00;1723939841;18/08/24;00:10:41;1.023;-0.046;0.171;0.07330382615327835;0.16249015927314758;0.021991148591041565
01:00:0A:00:00:00:00;1723939842;18/08/24;00:10:42;1.009;-0.065;0.03;0.018325956538319588;-0.1661553531885147;0.0024434609804302454
01:00:0A:00:00:00:00;1723939843;18/08/24;00:10:43;0.976;-0.042;0.044;0.09651670604944229;0.12339477241039276;0.00855211354792118
01:00:0A:00:00:00:00;1723939844;18/08/24;00:10:44;0.978;-0.024;0.111;0.0354301817715168;-0.08674286305904388;0.05864306166768074
01:00:0A:00:00:00:00;1723939845;18/08/24;00:10:45;1.012;-0.026;0.065;0.04398229718208313;-0.06475171446800232;-0.03298672288656235
01:00:0A:00:00:00:00;1723939846;18/08/24;00:10:46;1.023;-0.007;0.081;0.07941248267889023;0.06475171446800232;-0.04153883829712868
01:00:0A:00:00:00:00;1723939847;18/08/24;00:10:47;1.023;-0.025;0.128;0.04886921867728233;0.009773843921720982;-0.021991148591041565
01:00:0A:00:00:00:00;1723939848;18/08/24;00:10:48;1.026;-0.044;0.049;0.04886921867728233;0.010995574295520782;-0.012217304669320583
01:00:0A:00:00:00:00;1723939849;18/08/24;00:10:49;1.022;-0.027;0.052;0.07330382615327835;0.05253440886735916;-0.019547687843441963
01:00:0A:00:00:00:00;1723939850;18/08/24;00:10:50;1.006;-0.031;0.077;0.036651913076639175;-0.06841690838336945;0.051312677562236786
01:00:0A:00:00:00:00;1723939851;18/08/24;00:10:51;0.996;-0.047;0.053;0.03420845419168472;-0.11362093687057495;0.040317103266716
01:00:0A:00:00:00:00;1723939852;18/08/24;00:10:52;0.993;-0.031;0.084;0.07208210229873657;0.0073303827084600925;0.004886921960860491
01:00:0A:00:00:00:00;1723939853;18/08/24;00:10:53;0.997;-0.022;0.114;0.039095375686883926;-0.05619959905743599;0.05619959905743599
01:00:0A:00:00:00:00;1723939854;18/08/24;00:10:54;1.025;-0.033;0.076;0.05375614017248154;-0.0024434609804302454;-0.009773843921720982
01:00:0A:00:00:00:00;1723939855;18/08/24;00:10:55;1.038;-0.009;0.072;0.06719517707824707;0.03298672288656235;-0.039095375686883926
01:00:0A:00:00:00:00;1723939856;18/08/24;00:10:56;1.034;-0.03;0.088;0.040317103266716;-0.018325956538319588;-0.0036651913542300463
01:00:0A:00:00:00:00;1723939857;18/08/24;00:10:57;1.004;-0.053;0.063;0.03787364438176155;-0.05864306166768074;0.0036651913542300463
01:00:0A:00:00:00:00;1723939858;18/08/24;00:10:58;0.976;-0.04;0.098;0.06230825558304787;0.006108652334660292;-0.040317103266716
01:00:0A:00:00:00:00;1723939859;18/08/24;00:10:59;0.988;-0.05;0.104;0.02076941914856434;-0.08552113175392151;0.04764748737215996
01:00:0A:00:00:00:00;1723939860;18/08/24;00:11:00;1.025;-0.066;0.079;0.05742133408784866;0.042760565876960754;-0.02687807008624077
01:00:0A:00:00:00:00;1723939861;18/08/24;00:11:01;1.065;0.002;0.112;0.025656338781118393;0.0024434609804302454;0.04764748737215996
01:00:0A:00:00:00:00;1723939862;18/08/24;00:11:02;1.07;-0.074;0.044;0.02932153083384037;-0.0073303827084600925;0.06352998316287994
01:00:0A:00:00:00:00;1723939863;18/08/24;00:11:03;1.016;0.035;0.099;0.040317103266716;0.051312677562236786;-0.080634206533432
01:00:0A:00:00:00:00;1723939864;18/08/24;00:11:04;0.966;-0.057;0.047;-0.02076941914856434;-0.10873401165008545;0.16249015927314758
01:00:0A:00:00:00:00;1723939865;18/08/24;00:11:05;0.944;-0.019;0.078;0.08185594528913498;0.07330382615327835;-0.23945917189121246
01:00:0A:00:00:00:00;1723939866;18/08/24;00:11:06;1.004;0.024;0.115;-0.07330382615327835;-0.19303341209888458;0.2834414541721344
01:00:0A:00:00:00:00;1723939867;18/08/24;00:11:07;1.037;-0.141;0.02;0.12339477241039276;0.14416420459747314;-0.3433062732219696
01:00:0A:00:00:00:00;1723939868;18/08/24;00:11:08;1.042;0.234;0.177;-0.039095375686883926;-0.04764748737215996;0.040317103266716
01:00:0A:00:00:00:00;1723939869;18/08/24;00:11:09;1.027;-0.333;-0.053;0.014660765416920185;-0.10384709388017654;0.08185594528913498
01:00:0A:00:00:00:00;1723939870;18/08/24;00:11:10;1.018;0.17;0.134;0.14049901068210602;0.12217304855585098;-0.4642575681209564
01:00:0A:00:00:00:00;1723939871;18/08/24;00:11:11;1.007;-0.122;0.073;-0.09162978082895279;-0.09529497474431992;0.4508185386657715
01:00:0A:00:00:00:00;1723939872;18/08/24;00:11:12;0.966;-0.078;0.054;0.09896016865968704;0.0073303827084600925;-0.2590068578720093
01:00:0A:00:00:00:00;1723939873;18/08/24;00:11:13;0.977;0.042;0.093;0.03298672288656235;0.03176499158143997;0.10384709388017654
01:00:0A:00:00:00:00;1723939874;18/08/24;00:11:14;1.03;-0.073;0.104;-0.013439035043120384;-0.08552113175392151;0.0757472887635231
01:00:0A:00:00:00:00;1723939875;18/08/24;00:11:15;1.049;-0.06;0.075;-0.25045475363731384;0.11728612333536148;-0.08674286305904388
01:00:0A:00:00:00:00;1723939876;18/08/24;00:11:16;1.022;0.04;0.166;-0.2822197377681732;0.042760565876960754;-0.05497787147760391
01:00:0A:00:00:00:00;1723939877;18/08/24;00:11:17;0.986;-0.048;0.003;-0.3078760802745819;-0.21135938167572021;0.0757472887635231
01:00:0A:00:00:00:00;1723939878;18/08/24;00:11:18;0.961;-0.013;0.085;-0.1319468915462494;0.29565879702568054;-0.13439035415649414
01:00:0A:00:00:00:00;1723939879;18/08/24;00:11:19;0.976;-0.019;0.142;-0.2638937830924988;-0.2932153046131134;-0.040317103266716
01:00:0A:00:00:00:00;1723939880;18/08/24;00:11:20;1.016;-0.02;0.004;-0.1820378452539444;0.1514945775270462;-0.014660765416920185
01:00:0A:00:00:00:00;1723939881;18/08/24;00:11:21;1.055;-0.047;0.184;-0.21502456068992615;-0.07452555745840073;-0.006108652334660292
01:00:0A:00:00:00:00;1723939882;18/08/24;00:11:22;1.082;0.0;0.002;-0.1966986060142517;0.0024434609804302454;0.013439035043120384
01:00:0A:00:00:00:00;1723939883;18/08/24;00:11:23;1.049;-0.053;0.185;-0.18570303916931152;0.19914205372333527;0.06963863223791122
01:00:0A:00:00:00:00;1723939884;18/08/24;00:11:24;0.973;0.016;-0.021;-0.20402899384498596;-0.31642818450927734;-0.10262535512447357
01:00:0A:00:00:00:00;1723939885;18/08/24;00:11:25;0.917;-0.056;0.144;-0.14049901068210602;0.43249258399009705;0.20402899384498596
01:00:0A:00:00:00:00;1723939886;18/08/24;00:11:26;0.937;-0.024;0.097;-0.20891590416431427;-0.5681046843528748;-0.4899139106273651
01:00:0A:00:00:00:00;1723939887;18/08/24;00:11:27;0.994;-0.003;0.088;-0.4447098970413208;0.27977627515792847;0.5192354917526245
01:00:0A:00:00:00:00;1723939888;18/08/24;00:11:28;0.971;-0.372;0.159;-0.23945917189121246;-0.18814648687839508;-0.5925393104553223
01:00:0A:00:00:00:00;1723939889;18/08/24;00:11:29;1.0;0.326;0.025;-0.3017674386501312;-0.02321287989616394;0.16004669666290283
01:00:0A:00:00:00:00;1723939890;18/08/24;00:11:30;1.044;-0.266;0.083;-0.32498031854629517;-0.019547687843441963;0.3787364363670349
01:00:0A:00:00:00:00;1723939891;18/08/24;00:11:31;1.033;0.04;0.089;-0.14416420459747314;0.07330382615327835;-0.2822197377681732
01:00:0A:00:00:00:00;1723939892;18/08/24;00:11:32;0.957;-0.009;0.082;-0.251676470041275;-0.01710422709584236;0.19425514340400696
01:00:0A:00:00:00:00;1723939893;18/08/24;00:11:33;0.962;-0.046;0.05;-0.18570303916931152;-0.014660765416920185;-0.13439035415649414
01:00:0A:00:00:00:00;1723939894;18/08/24;00:11:34;1.015;0.012;0.067;-0.1966986060142517;0.004886921960860491;0.042760565876960754
01:00:0A:00:00:00:00;1723939895;18/08/24;00:11:35;1.066;-0.086;0.087;-0.19303341209888458;-0.06963863223791122;-0.05742133408784866
01:00:0A:00:00:00:00;1723939896;18/08/24;00:11:36;1.062;0.015;0.059;-0.18570303916931152;-0.051312677562236786;-0.019547687843441963
01:00:0A:00:00:00:00;1723939897;18/08/24;00:11:37;1.001;-0.075;0.117;-0.19914205372333527;0.06352998316287994;0.14538592100143433
01:00:0A:00:00:00:00;1723939898;18/08/24;00:11:38;0.965;-0.001;0.077;-0.16982054710388184;-0.0708603635430336;-0.15393804013729095
01:00:0A:00:00:00:00;1723939899;18/08/24;00:11:39;0.981;0.008;0.085;-0.21868975460529327;0.028099799528717995;0.19303341209888458
01:00:0A:00:00:00:00;1723939900;18/08/24;00:11:40;1.019;-0.083;0.098;-0.14782939851284027;-0.042760565876960754;-0.2480112910270691
01:00:0A:00:00:00:00;1723939901;18/08/24;00:11:41;1.067;0.117;0.064;-0.20402899384498596;0.018325956538319588;0.04398229718208313
01:00:0A:00:00:00:00;1723939902;18/08/24;00:11:42;1.054;-0.254;0.067;-0.18081611394882202;0.045204028487205505;0.1820378452539444
01:00:0A:00:00:00:00;1723939903;18/08/24;00:11:43;1.023;0.21;0.071;-0.13561207056045532;0.012217304669320583;-0.40194931626319885
01:00:0A:00:00:00:00;1723939904;18/08/24;00:11:44;0.96;-0.206;0.031;-0.2895500957965851;-0.13561207056045532;0.6939429044723511
01:00:0A:00:00:00:00;1723939905;18/08/24;00:11:45;0.949;0.076;0.118;-0.014660765416920185;0.14782939851284027;-0.6976081132888794
01:00:0A:00:00:00:00;1723939906;18/08/24;00:11:46;0.941;0.027;0.111;-0.3494149148464203;-0.3017674386501312;0.6157521605491638
01:00:0A:00:00:00:00;1723939907;18/08/24;00:11:47;0.977;-0.015;0.074;-0.10506881773471832;0.3836233615875244;-0.4911356568336487
01:00:0A:00:00:00:00;1723939908;18/08/24;00:11:48;0.985;0.139;0.28;-0.4605923891067505;-0.3127630054950714;0.37751471996307373
01:00:0A:00:00:00:00;1723939909;18/08/24;00:11:49;1.019;-0.165;-0.177;-0.3042108714580536;0.18936821818351746;-0.11850785464048386
01:00:0A:00:00:00:00;1723939910;18/08/24;00:11:50;1.029;0.081;0.264;-0.24556782841682434;0.22113320231437683;-0.10384709388017654
01:00:0A:00:00:00:00;1723939911;18/08/24;00:11:51;1.023;-0.089;0.07;-0.3848450779914856;-0.27977627515792847;0.025656338781118393
01:00:0A:00:00:00:00;1723939912;18/08/24;00:11:52;0.985;-0.015;0.011;-0.21380282938480377;0.12828169763088226;-0.13927726447582245
01:00:0A:00:00:00:00;1723939913;18/08/24;00:11:53;0.964;-0.08;0.111;-0.24434609711170197;0.05742133408784866;0.13561207056045532
01:00:0A:00:00:00:00;1723939914;18/08/24;00:11:54;0.994;-0.088;0.053;-0.20036379992961884;-0.1722639948129654;-0.251676470041275
01:00:0A:00:00:00:00;1723939915;18/08/24;00:11:55;1.035;0.084;0.023;-0.1966986060142517;0.03420845419168472;0.16004669666290283
01:00:0A:00:00:00:00;1723939916;18/08/24;00:11:56;1.033;-0.156;0.161;-0.17470745742321014;-0.019547687843441963;0.010995574295520782
01:00:0A:00:00:00:00;1723939917;18/08/24;00:11:57;1.04;0.02;0.043;-0.10751228034496307;-0.02321287989616394;-0.17959438264369965
01:00:0A:00:00:00:00;1723939918;18/08/24;00:11:58;1.019;0.0;0.085;-0.1319468915462494;0.09285151958465576;0.09529497474431992
01:00:0A:00:00:00:00;1723939919;18/08/24;00:11:59;0.998;-0.097;0.073;-0.11972958594560623;0.012217304669320583;0.04764748737215996
01:00:0A:00:00:00:00;1723939920;18/08/24;00:12:00;1.002;-0.015;0.044;-0.0659734457731247;-0.03787364438176155;-0.1576032191514969
01:00:0A:00:00:00:00;1723939921;18/08/24;00:12:01;1.0;0.008;0.079;-0.11972958594560623;-0.02076941914856434;0.1258382350206375
01:00:0A:00:00:00:00;1723939922;18/08/24;00:12:02;0.998;-0.083;0.089;-0.1014036238193512;-0.03176499158143997;0.006108652334660292
01:00:0A:00:00:00:00;1723939923;18/08/24;00:12:03;1.008;-0.016;0.08;-0.04764748737215996;0.02687807008624077;-0.12828169763088226
01:00:0A:00:00:00:00;1723939924;18/08/24;00:12:04;1.027;0.018;0.094;-0.10506881773471832;-0.0036651913542300463;0.07452555745840073
01:00:0A:00:00:00:00;1723939925;18/08/24;00:12:05;1.034;-0.101;0.071;-0.09162978082895279;-0.018325956538319588;0.02687807008624077
01:00:0A:00:00:00:00;1723939926;18/08/24;00:12:06;1.032;-0.009;0.07;-0.04886921867728233;0.0;-0.09285151958465576
01:00:0A:00:00:00:00;1723939927;18/08/24;00:12:07;1.016;-0.014;0.097;-0.09773843735456467;-0.0024434609804302454;0.05619959905743599
01:00:0A:00:00:00:00;1723939928;18/08/24;00:12:08;0.992;-0.057;0.065;-0.09529497474431992;-0.04398229718208313;0.02321287989616394
01:00:0A:00:00:00:00;1723939929;18/08/24;00:12:09;0.988;-0.024;0.069;-0.04764748737215996;0.012217304669320583;-0.08674286305904388
01:00:0A:00:00:00:00;1723939930;18/08/24;00:12:10;1.001;-0.005;0.097;-0.1014036238193512;-0.0708603635430336;0.06475171446800232
01:00:0A:00:00:00:00;1723939931;18/08/24;00:12:11;1.037;-0.067;0.062;-0.0708603635430336;-0.03420845419168472;-0.051312677562236786
01:00:0A:00:00:00:00;1723939932;18/08/24;00:12:12;1.047;-0.008;0.087;-0.05009094998240471;0.006108652334660292;-0.028099799528717995
01:00:0A:00:00:00:00;1723939933;18/08/24;00:12:13;1.038;-0.035;0.1;-0.07941248267889023;0.0012217304902151227;0.05619959905743599
01:00:0A:00:00:00:00;1723939934;18/08/24;00:12:14;1.017;-0.051;0.065;-0.06475171446800232;-0.018325956538319588;0.028099799528717995
01:00:0A:00:00:00:00;1723939935;18/08/24;00:12:15;0.988;-0.013;0.083;-0.042760565876960754;0.05497787147760391;-0.006108652334660292
01:00:0A:00:00:00:00;1723939936;18/08/24;00:12:16;0.985;-0.029;0.087;-0.080634206533432;-0.03787364438176155;0.07208210229873657
01:00:0A:00:00:00:00;1723939937;18/08/24;00:12:17;1.003;-0.025;0.058;-0.045204028487205505;-0.006108652334660292;-0.051312677562236786
01:00:0A:00:00:00:00;1723939938;18/08/24;00:12:18;1.031;-0.002;0.081;-0.04153883829712868;-0.018325956538319588;-0.04642575979232788
01:00:0A:00:00:00:00;1723939939;18/08/24;00:12:19;1.04;-0.038;0.099;-0.05864306166768074;-0.0354301817715168;-0.02076941914856434
01:00:0A:00:00:00:00;1723939940;18/08/24;00:12:20;1.037;-0.053;0.07;-0.039095375686883926;0.004886921960860491;-0.02932153083384037
01:00:0A:00:00:00:00;1723939941;18/08/24;00:12:21;1.016;-0.039;0.093;-0.036651913076639175;0.02932153083384037;-0.0024434609804302454
01:00:0A:00:00:00:00;1723939942;18/08/24;00:12:22;0.995;-0.053;0.085;-0.06352998316287994;-0.04153883829712868;0.05742133408784866
01:00:0A:00:00:00:00;1723939943;18/08/24;00:12:23;0.997;-0.04;0.073;-0.0354301817715168;-0.0036651913542300463;-0.013439035043120384
01:00:0A:00:00:00:00;1723939944;18/08/24;00:12:24;1.016;-0.008;0.095;-0.039095375686883926;-0.0024434609804302454;0.012217304669320583
01:00:0A:00:00:00:00;1723939945;18/08/24;00:12:25;1.028;-0.034;0.089;-0.04642575979232788;-0.014660765416920185;-0.00855211354792118
01:00:0A:00:00:00:00;1723939946;18/08/24;00:12:26;1.031;-0.034;0.069;-0.028099799528717995;0.013439035043120384;-0.042760565876960754
01:00:0A:00:00:00:00;1723939947;18/08/24;00:12:27;1.012;-0.04;0.08;-0.030543262138962746;0.00855211354792118;-0.0012217304902151227
01:00:0A:00:00:00:00;1723939948;18/08/24;00:12:28;1.002;-0.052;0.07;-0.042760565876960754;-0.036651913076639175;0.03176499158143997
01:00:0A:00:00:00:00;1723939949;18/08/24;00:12:29;1.005;-0.038;0.076;-0.025656338781118393;-0.012217304669320583;0.010995574295520782
01:00:0A:00:00:00:00;1723939950;18/08/24;00:12:30;1.016;-0.021;0.104;-0.03176499158143997;-0.00855211354792118;0.028099799528717995
01:00:0A:00:00:00:00;1723939951;18/08/24;00:12:31;1.028;-0.033;0.092;-0.02687807008624077;0.0;0.0073303827084600925
01:00:0A:00:00:00:00;1723939952;18/08/24;00:12:32;1.025;-0.024;0.078;-0.0073303827084600925;0.03298672288656235;-0.025656338781118393
01:00:0A:00:00:00:00;1723939953;18/08/24;00:12:33;1.008;-0.033;0.073;-0.010995574295520782;0.018325956538319588;-0.009773843921720982
01:00:0A:00:00:00:00;1723939954;18/08/24;00:12:34;0.998;-0.047;0.063;-0.014660765416920185;-0.019547687843441963;0.0036651913542300463
01:00:0A:00:00:00:00;1723939955;18/08/24;00:12:35;1.016;-0.041;0.07;-0.006108652334660292;-0.02321287989616394;0.018325956538319588
01:00:0A:00:00:00:00;1723939956;18/08/24;00:12:36;1.041;-0.024;0.097;-0.012217304669320583;-0.02321287989616394;0.04886921867728233
01:00:0A:00:00:00:00;1723939957;18/08/24;00:12:37;1.043;-0.024;0.081;-0.00855211354792118;-0.018325956538319588;0.028099799528717995
01:00:0A:00:00:00:00;1723939958;18/08/24;00:12:38;1.001;-0.012;0.084;0.0036651913542300463;0.01710422709584236;-0.018325956538319588
01:00:0A:00:00:00:00;1723939959;18/08/24;00:12:39;0.97;-0.028;0.086;-0.006108652334660292;0.013439035043120384;0.012217304669320583
01:00:0A:00:00:00:00;1723939960;18/08/24;00:12:40;0.976;-0.041;0.077;-0.0024434609804302454;-0.014660765416920185;-0.04153883829712868
01:00:0A:00:00:00:00;1723939961;18/08/24;00:12:41;1.008;-0.045;0.08;-0.00855211354792118;-0.01710422709584236;-0.006108652334660292
01:00:0A:00:00:00:00;1723939962;18/08/24;00:12:42;1.053;-0.046;0.09;-0.013439035043120384;-0.00855211354792118;0.02932153083384037
01:00:0A:00:00:00:00;1723939963;18/08/24;00:12:43;1.059;-0.026;0.084;-0.013439035043120384;0.009773843921720982;0.04642575979232788
01:00:0A:00:00:00:00;1723939964;18/08/24;00:12:44;1.03;-0.018;0.071;-0.00855211354792118;0.009773843921720982;0.02321287989616394
01:00:0A:00:00:00:00;1723939965;18/08/24;00:12:45;0.983;-0.018;0.069;-0.006108652334660292;-0.025656338781118393;-0.015882495790719986
01:00:0A:00:00:00:00;1723939966;18/08/24;00:12:46;0.976;-0.023;0.068;-0.006108652334660292;-0.01710422709584236;-0.02076941914856434
01:00:0A:00:00:00:00;1723939967;18/08/24;00:12:47;1.008;-0.038;0.081;-0.004886921960860491;-0.02321287989616394;-0.01710422709584236
01:00:0A:00:00:00:00;1723939968;18/08/24;00:12:48;1.034;-0.039;0.085;-0.006108652334660292;-0.0354301817715168;-0.013439035043120384
01:00:0A:00:00:00:00;1723939969;18/08/24;00:12:49;1.044;-0.026;0.08;-0.006108652334660292;-0.015882495790719986;0.01710422709584236
01:00:0A:00:00:00:00;1723939970;18/08/24;00:12:50;1.026;-0.034;0.093;-0.006108652334660292;0.0012217304902151227;0.02076941914856434
01:00:0A:00:00:00:00;1723939971;18/08/24;00:12:51;0.99;-0.023;0.079;-0.004886921960860491;-0.019547687843441963;-0.015882495790719986
01:00:0A:00:00:00:00;1723939972;18/08/24;00:12:52;0.977;-0.023;0.077;-0.0036651913542300463;-0.018325956538319588;-0.006108652334660292
01:00:0A:00:00:00:00;1723939973;18/08/24;00:12:53;0.997;-0.031;0.085;-0.0024434609804302454;-0.02076941914856434;-0.02321287989616394
01:00:0A:00:00:00:00;1723939974;18/08/24;00:12:54;1.036;-0.035;0.084;-0.0036651913542300463;-0.019547687843441963;-0.010995574295520782
01:00:0A:00:00:00:00;1723939975;18/08/24;00:12:55;1.045;-0.038;0.085;-0.0024434609804302454;0.00855211354792118;0.02932153083384037
01:00:0A:00:00:00:00;1723939976;18/08/24;00:12:56;1.026;-0.03;0.076;0.0012217304902151227;0.0012217304902151227;0.019547687843441963
01:00:0A:00:00:00:00;1723939977;18/08/24;00:12:57;1.007;-0.021;0.071;0.0012217304902151227;-0.013439035043120384;0.012217304669320583
01:00:0A:00:00:00:00;1723939978;18/08/24;00:12:58;0.991;-0.021;0.074;0.004886921960860491;-0.03420845419168472;-0.02321287989616394
01:00:0A:00:00:00:00;1723939979;18/08/24;00:12:59;0.997;-0.028;0.078;0.0036651913542300463;-0.039095375686883926;-0.024434609338641167
01:00:0A:00:00:00:00;1723939980;18/08/24;00:13:00;1.013;-0.041;0.094;0.0036651913542300463;-0.02076941914856434;-0.01710422709584236
01:00:0A:00:00:00:00;1723939981;18/08/24;00:13:01;1.023;-0.038;0.089;0.0036651913542300463;-0.015882495790719986;0.0012217304902151227
01:00:0A:00:00:00:00;1723939982;18/08/24;00:13:02;1.027;-0.034;0.087;0.0036651913542300463;0.02687807008624077;0.028099799528717995
01:00:0A:00:00:00:00;1723939983;18/08/24;00:13:03;1.012;-0.031;0.074;0.0036651913542300463;0.014660765416920185;0.02932153083384037
01:00:0A:00:00:00:00;1723939984;18/08/24;00:13:04;1.004;-0.026;0.072;0.004886921960860491;-0.0024434609804302454;0.010995574295520782
01:00:0A:00:00:00:00;1723939985;18/08/24;00:13:05;1.006;-0.03;0.071;0.004886921960860491;-0.014660765416920185;-0.0012217304902151227
01:00:0A:00:00:00:00;1723939986;18/08/24;00:13:06;1.016;-0.034;0.08;0.004886921960860491;-0.03298672288656235;-0.010995574295520782
01:00:0A:00:00:00:00;1723939987;18/08/24;00:13:07;1.036;-0.036;0.087;0.0024434609804302454;-0.01710422709584236;0.006108652334660292
01:00:0A:00:00:00:00;1723939988;18/08/24;00:13:08;1.038;-0.033;0.086;0.0024434609804302454;0.0036651913542300463;0.006108652334660292
01:00:0A:00:00:00:00;1723939989;18/08/24;00:13:09;1.021;-0.034;0.082;0.0024434609804302454;0.00855211354792118;0.024434609338641167
01:00:0A:00:00:00:00;1723939990;18/08/24;00:13:10;1.011;-0.029;0.08;0.0024434609804302454;0.0036651913542300463;0.02687807008624077
01:00:0A:00:00:00:00;1723939991;18/08/24;00:13:11;0.998;-0.024;0.08;-0.0012217304902151227;-0.006108652334660292;0.025656338781118393
01:00:0A:00:00:00:00;1723939992;18/08/24;00:13:12;1.001;-0.028;0.084;-0.0012217304902151227;-0.015882495790719986;0.006108652334660292
01:00:0A:00:00:00:00;1723939993;18/08/24;00:13:13;1.003;-0.027;0.085;0.0012217304902151227;-0.012217304669320583;-0.013439035043120384
01:00:0A:00:00:00:00;1723939994;18/08/24;00:13:14;1.013;-0.026;0.084;-0.0024434609804302454;-0.004886921960860491;-0.0073303827084600925
01:00:0A:00:00:00:00;1723939995;18/08/24;00:13:15;1.018;-0.036;0.08;-0.0036651913542300463;-0.0024434609804302454;0.0012217304902151227
01:00:0A:00:00:00:00;1723939996;18/08/24;00:13:16;1.028;-0.039;0.079;-0.004886921960860491;-0.012217304669320583;0.00855211354792118
01:00:0A:00:00:00:00;1723939997;18/08/24;00:13:17;1.029;-0.033;0.078;-0.00855211354792118;-0.014660765416920185;0.01710422709584236
01:00:0A:00:00:00:00;1723939998;18/08/24;00:13:18;1.022;-0.033;0.08;-0.012217304669320583;-0.014660765416920185;0.03420845419168472
01:00:0A:00:00:00:00;1723939999;18/08/24;00:13:19;1.016;-0.025;0.081;-0.010995574295520782;-0.019547687843441963;0.012217304669320583
01:00:0A:00:00:00:00;1723940000;18/08/24;00:13:20;1.001;-0.022;0.081;-0.010995574295520782;-0.013439035043120384;0.004886921960860491
01:00:0A:00:00:00:00;1723940001;18/08/24;00:13:21;1.0;-0.034;0.081;-0.00855211354792118;-0.006108652334660292;-0.0024434609804302454
01:00:0A:00:00:00:00;1723940002;18/08/24;00:13:22;1.007;-0.036;0.083;-0.006108652334660292;-0.013439035043120384;-0.015882495790719986
01:00:0A:00:00:00:00;1723940003;18/08/24;00:13:23;1.023;-0.036;0.082;-0.010995574295520782;-0.010995574295520782;0.0
01:00:0A:00:00:00:00;1723940004;18/08/24;00:13:24;1.03;-0.04;0.082;-0.010995574295520782;-0.0036651913542300463;0.00855211354792118
01:00:0A:00:00:00:00;1723940005;18/08/24;00:13:25;1.031;-0.036;0.083;-0.012217304669320583;-0.00855211354792118;0.019547687843441963
01:00:0A:00:00:00:00;1723940006;18/08/24;00:13:26;1.024;-0.026;0.076;-0.015882495790719986;-0.012217304669320583;0.024434609338641167
01:00:0A:00:00:00:00;1723940007;18/08/24;00:13:27;1.005;-0.024;0.08;-0.015882495790719986;-0.014660765416920185;0.02076941914856434
01:00:0A:00:00:00:00;1723940008;18/08/24;00:13:28;1.0;-0.021;0.081;-0.015882495790719986;-0.021991148591041565;-0.0012217304902151227
01:00:0A:00:00:00:00;1723940009;18/08/24;00:13:29;0.998;-0.022;0.082;-0.01710422709584236;-0.02076941914856434;-0.013439035043120384
01:00:0A:00:00:00:00;1723940010;18/08/24;00:13:30;1.011;-0.034;0.086;-0.015882495790719986;-0.0073303827084600925;-0.014660765416920185
01:00:0A:00:00:00:00;1723940011;18/08/24;00:13:31;1.022;-0.04;0.088;-0.015882495790719986;-0.019547687843441963;-0.019547687843441963
01:00:0A:00:00:00:00;1723940012;18/08/24;00:13:32;1.033;-0.036;0.085;-0.019547687843441963;0.0012217304902151227;0.006108652334660292
01:00:0A:00:00:00:00;1723940013;18/08/24;00:13:33;1.032;-0.04;0.082;-0.02076941914856434;0.00855211354792118;0.02687807008624077
01:00:0A:00:00:00:00;1723940014;18/08/24;00:13:34;1.016;-0.029;0.082;-0.019547687843441963;-0.0012217304902151227;0.018325956538319588
01:00:0A:00:00:00:00;1723940015;18/08/24;00:13:35;1.006;-0.019;0.079;-0.019547687843441963;-0.00855211354792118;0.010995574295520782
01:00:0A:00:00:00:00;1723940016;18/08/24;00:13:36;1.001;-0.021;0.077;-0.015882495790719986;-0.012217304669320583;-0.014660765416920185
01:00:0A:00:00:00:00;1723940017;18/08/24;00:13:37;1.006;-0.026;0.079;-0.014660765416920185;-0.012217304669320583;-0.021991148591041565
01:00:0A:00:00:00:00;1723940018;18/08/24;00:13:38;1.016;-0.032;0.078;-0.01710422709584236;-0.014660765416920185;-0.0073303827084600925
01:00:0A:00:00:00:00;1723940019;18/08/24;00:13:39;1.019;-0.038;0.08;-0.01710422709584236;-0.014660765416920185;0.006108652334660292
01:00:0A:00:00:00:00;1723940020;18/08/24;00:13:40;1.016;-0.034;0.081;-0.01710422709584236;-0.014660765416920185;0.00855211354792118
01:00:0A:00:00:00:00;1723940021;18/08/24;00:13:41;1.016;-0.03;0.081;-0.018325956538319588;-0.009773843921720982;0.012217304669320583
01:00:0A:00:00:00:00;1723940022;18/08/24;00:13:42;1.017;-0.033;0.081;-0.01710422709584236;-0.010995574295520782;0.0024434609804302454
01:00:0A:00:00:00:00;1723940023;18/08/24;00:13:43;1.028;-0.027;0.084;-0.01710422709584236;-0.009773843921720982;0.0012217304902151227
01:00:0A:00:00:00:00;1723940024;18/08/24;00:13:44;1.032;-0.035;0.084;-0.01710422709584236;-0.0012217304902151227;0.012217304669320583
01:00:0A:00:00:00:00;1723940025;18/08/24;00:13:45;1.019;-0.035;0.086;-0.01710422709584236;0.004886921960860491;0.009773843921720982
01:00:0A:00:00:00:00;1723940026;18/08/24;00:13:46;1.004;-0.025;0.081;-0.01710422709584236;0.006108652334660292;0.0036651913542300463
01:00:0A:00:00:00:00;1723940027;18/08/24;00:13:47;0.985;-0.028;0.074;-0.01710422709584236;-0.0036651913542300463;-0.0024434609804302454
01:00:0A:00:00:00:00;1723940028;18/08/24;00:13:48;1.003;-0.028;0.075;-0.01710422709584236;-0.021991148591041565;-0.028099799528717995
01:00:0A:00:00:00:00;1723940029;18/08/24;00:13:49;1.023;-0.028;0.077;-0.02321287989616394;-0.03420845419168472;-0.014660765416920185
01:00:0A:00:00:00:00;1723940030;18/08/24;00:13:50;1.044;-0.038;0.084;-0.02687807008624077;-0.018325956538319588;0.013439035043120384
01:00:0A:00:00:00:00;1723940031;18/08/24;00:13:51;1.04;-0.033;0.09;-0.02687807008624077;-0.00855211354792118;0.015882495790719986
01:00:0A:00:00:00:00;1723940032;18/08/24;00:13:52;1.012;-0.028;0.088;-0.02932153083384037;0.0073303827084600925;0.024434609338641167
01:00:0A:00:00:00:00;1723940033;18/08/24;00:13:53;0.999;-0.026;0.08;-0.030543262138962746;0.0073303827084600925;0.015882495790719986
01:00:0A:00:00:00:00;1723940034;18/08/24;00:13:54;0.99;-0.026;0.074;-0.028099799528717995;-0.006108652334660292;-0.009773843921720982
01:00:0A:00:00:00:00;1723940035;18/08/24;00:13:55;1.001;-0.024;0.073;-0.02932153083384037;-0.01710422709584236;-0.019547687843441963
01:00:0A:00:00:00:00;1723940036;18/08/24;00:13:56;1.022;-0.035;0.081;-0.03176499158143997;-0.0354301817715168;-0.021991148591041565
01:00:0A:00:00:00:00;1723940037;18/08/24;00:13:57;1.036;-0.04;0.087;-0.03298672288656235;-0.01710422709584236;0.0073303827084600925
01:00:0A:00:00:00:00;1723940038;18/08/24;00:13:58;1.03;-0.036;0.088;-0.03298672288656235;-0.0073303827084600925;0.018325956538319588
01:00:0A:00:00:00:00;1723940039;18/08/24;00:13:59;1.014;-0.029;0.085;-0.03420845419168472;0.004886921960860491;0.030543262138962746
01:00:0A:00:00:00:00;1723940040;18/08/24;00:14:00;1.01;-0.021;0.079;-0.03420845419168472;-0.0012217304902151227;0.018325956538319588
01:00:0A:00:00:00:00;1723940041;18/08/24;00:14:01;1.005;-0.018;0.073;-0.03298672288656235;-0.015882495790719986;-0.0036651913542300463
01:00:0A:00:00:00:00;1723940042;18/08/24;00:14:02;1.005;-0.022;0.073;-0.03298672288656235;-0.024434609338641167;-0.009773843921720982
01:00:0A:00:00:00:00;1723940043;18/08/24;00:14:03;1.005;-0.027;0.078;-0.03176499158143997;-0.02932153083384037;-0.025656338781118393
01:00:0A:00:00:00:00;1723940044;18/08/24;00:14:04;1.005;-0.028;0.081;-0.03298672288656235;-0.02687807008624077;-0.019547687843441963
01:00:0A:00:00:00:00;1723940045;18/08/24;00:14:05;1.016;-0.04;0.088;-0.03298672288656235;-0.006108652334660292;-0.010995574295520782
01:00:0A:00:00:00:00;1723940046;18/08/24;00:14:06;1.029;-0.04;0.086;-0.03420845419168472;0.0024434609804302454;0.0073303827084600925
01:00:0A:00:00:00:00;1723940047;18/08/24;00:14:07;1.032;-0.035;0.084;-0.03787364438176155;0.0024434609804302454;0.015882495790719986
01:00:0A:00:00:00:00;1723940048;18/08/24;00:14:08;1.025;-0.035;0.078;-0.036651913076639175;-0.004886921960860491;0.018325956538319588
01:00:0A:00:00:00:00;1723940049;18/08/24;00:14:09;1.016;-0.029;0.078;-0.0354301817715168;-0.013439035043120384;0.00855211354792118
01:00:0A:00:00:00:00;1723940050;18/08/24;00:14:10;1.003;-0.028;0.084;-0.03787364438176155;-0.01710422709584236;0.009773843921720982
01:00:0A:00:00:00:00;1723940051;18/08/24;00:14:11;1.0;-0.028;0.082;-0.03787364438176155;-0.02076941914856434;-0.0012217304902151227
01:00:0A:00:00:00:00;1723940052;18/08/24;00:14:12;1.007;-0.027;0.082;-0.03298672288656235;-0.010995574295520782;-0.013439035043120384
01:00:0A:00:00:00:00;1723940053;18/08/24;00:14:13;1.016;-0.03;0.084;-0.0354301817715168;-0.0073303827084600925;-0.004886921960860491
01:00:0A:00:00:00:00;1723940054;18/08/24;00:14:14;1.03;-0.035;0.081;-0.036651913076639175;-0.0073303827084600925;0.006108652334660292
01:00:0A:00:00:00:00;1723940055;18/08/24;00:14:15;1.026;-0.033;0.079;-0.03420845419168472;-0.004886921960860491;0.010995574295520782
01:00:0A:00:00:00:00;1723940056;18/08/24;00:14:16;1.017;-0.03;0.081;-0.036651913076639175;-0.014660765416920185;0.015882495790719986
01:00:0A:00:00:00:00;1723940057;18/08/24;00:14:17;1.007;-0.03;0.081;-0.036651913076639175;-0.018325956538319588;0.012217304669320583
01:00:0A:00:00:00:00;1723940058;18/08/24;00:14:18;1.006;-0.026;0.081;-0.03298672288656235;-0.0073303827084600925;0.004886921960860491
01:00:0A:00:00:00:00;1723940059;18/08/24;00:14:19;1.009;-0.025;0.085;-0.03298672288656235;-0.0024434609804302454;0.0036651913542300463
01:00:0A:00:00:00:00;1723940060;18/08/24;00:14:20;1.014;-0.03;0.081;-0.03176499158143997;-0.0073303827084600925;-0.004886921960860491
01:00:0A:00:00:00:00;1723940061;18/08/24;00:14:21;1.022;-0.029;0.074;-0.030543262138962746;-0.006108652334660292;-0.0012217304902151227
01:00:0A:00:00:00:00;1723940062;18/08/24;00:14:22;1.022;-0.029;0.075;-0.03176499158143997;-0.0012217304902151227;0.004886921960860491
01:00:0A:00:00:00:00;1723940063;18/08/24;00:14:23;1.015;-0.031;0.074;-0.03298672288656235;-0.019547687843441963;0.009773843921720982
01:00:0A:00:00:00:00;1723940064;18/08/24;00:14:24;1.006;-0.028;0.077;-0.030543262138962746;-0.024434609338641167;0.0024434609804302454
01:00:0A:00:00:00:00;1723940065;18/08/24;00:14:25;1.003;-0.029;0.078;-0.030543262138962746;-0.028099799528717995;0.0012217304902151227
01:00:0A:00:00:00:00;1723940066;18/08/24;00:14:26;1.006;-0.034;0.079;-0.028099799528717995;-0.028099799528717995;-0.006108652334660292
01:00:0A:00:00:00:00;1723940067;18/08/24;00:14:27;1.013;-0.032;0.082;-0.02321287989616394;-0.018325956538319588;-0.0073303827084600925
01:00:0A:00:00:00:00;1723940068;18/08/24;00:14:28;1.026;-0.034;0.087;-0.024434609338641167;-0.018325956538319588;0.0024434609804302454
01:00:0A:00:00:00:00;1723940069;18/08/24;00:14:29;1.031;-0.035;0.083;-0.021991148591041565;-0.00855211354792118;0.004886921960860491
01:00:0A:00:00:00:00;1723940070;18/08/24;00:14:30;1.022;-0.034;0.083;-0.019547687843441963;0.0012217304902151227;0.004886921960860491
01:00:0A:00:00:00:00;1723940071;18/08/24;00:14:31;1.012;-0.032;0.082;-0.019547687843441963;-0.006108652334660292;0.0036651913542300463
01:00:0A:00:00:00:00;1723940072;18/08/24;00:14:32;1.0;-0.031;0.075;-0.01710422709584236;-0.00855211354792118;-0.0012217304902151227
01:00:0A:00:00:00:00;1723940073;18/08/24;00:14:33;1.008;-0.031;0.075;-0.014660765416920185;-0.015882495790719986;-0.0012217304902151227
01:00:0A:00:00:00:00;1723940074;18/08/24;00:14:34;1.017;-0.032;0.08;-0.01710422709584236;-0.024434609338641167;0.004886921960860491
01:00:0A:00:00:00:00;1723940075;18/08/24;00:14:35;1.028;-0.032;0.08;-0.014660765416920185;-0.021991148591041565;0.0024434609804302454
01:00:0A:00:00:00:00;1723940076;18/08/24;00:14:36;1.025;-0.027;0.084;-0.013439035043120384;-0.010995574295520782;0.0012217304902151227
01:00:0A:00:00:00:00;1723940077;18/08/24;00:14:37;1.012;-0.029;0.082;-0.014660765416920185;-0.01710422709584236;0.0036651913542300463
01:00:0A:00:00:00:00;1723940078;18/08/24;00:14:38;1.005;-0.033;0.081;-0.013439035043120384;-0.018325956538319588;-0.0012217304902151227
01:00:0A:00:00:00:00;1723940079;18/08/24;00:14:39;1.005;-0.03;0.08;-0.012217304669320583;-0.013439035043120384;-0.0012217304902151227
01:00:0A:00:00:00:00;1723940080;18/08/24;00:14:40;1.013;-0.03;0.077;-0.014660765416920185;-0.021991148591041565;0.0024434609804302454
01:00:0A:00:00:00:00;1723940081;18/08/24;00:14:41;1.029;-0.033;0.082;-0.013439035043120384;-0.014660765416920185;0.0073303827084600925
01:00:0A:00:00:00:00;1723940082;18/08/24;00:14:42;1.025;-0.027;0.083;-0.012217304669320583;-0.006108652334660292;0.010995574295520782
01:00:0A:00:00:00:00;1723940083;18/08/24;00:14:43;1.014;-0.027;0.081;-0.013439035043120384;-0.004886921960860491;0.009773843921720982
01:00:0A:00:00:00:00;1723940084;18/08/24;00:14:44;0.996;-0.03;0.077;-0.012217304669320583;-0.012217304669320583;-0.0036651913542300463
01:00:0A:00:00:00:00;1723940085;18/08/24;00:14:45;0.995;-0.034;0.078;-0.009773843921720982;-0.019547687843441963;-0.010995574295520782
01:00:0A:00:00:00:00;1723940086;18/08/24;00:14:46;1.018;-0.04;0.083;-0.010995574295520782;-0.028099799528717995;-0.0073303827084600925
01:00:0A:00:00:00:00;1723940087;18/08/24;00:14:47;1.034;-0.038;0.085;-0.010995574295520782;-0.02687807008624077;0.0036651913542300463
01:00:0A:00:00:00:00;1723940088;18/08/24;00:14:48;1.039;-0.03;0.087;-0.010995574295520782;-0.006108652334660292;0.019547687843441963
01:00:0A:00:00:00:00;1723940089;18/08/24;00:14:49;1.022;-0.03;0.088;-0.00855211354792118;0.0073303827084600925;0.01710422709584236
01:00:0A:00:00:00:00;1723940090;18/08/24;00:14:50;0.994;-0.026;0.082;-0.006108652334660292;-0.0012217304902151227;-0.0036651913542300463
01:00:0A:00:00:00:00;1723940091;18/08/24;00:14:51;0.984;-0.03;0.081;-0.006108652334660292;0.0012217304902151227;-0.0036651913542300463
01:00:0A:00:00:00:00;1723940092;18/08/24;00:14:52;0.998;-0.034;0.077;-0.00855211354792118;-0.02076941914856434;-0.00855211354792118
01:00:0A:00:00:00:00;1723940093;18/08/24;00:14:53;1.031;-0.036;0.08;-0.00855211354792118;-0.019547687843441963;0.0012217304902151227
01:00:0A:00:00:00:00;1723940094;18/08/24;00:14:54;1.038;-0.035;0.085;-0.00855211354792118;-0.012217304669320583;0.01710422709584236
01:00:0A:00:00:00:00;1723940095;18/08/24;00:14:55;1.03;-0.029;0.085;-0.0073303827084600925;0.0;0.013439035043120384
01:00:0A:00:00:00:00;1723940096;18/08/24;00:14:56;1.014;-0.027;0.078;-0.0036651913542300463;0.0;0.00855211354792118
01:00:0A:00:00:00:00;1723940097;18/08/24;00:14:57;0.996;-0.029;0.077;-0.0012217304902151227;-0.004886921960860491;-0.00855211354792118
01:00:0A:00:00:00:00;1723940098;18/08/24;00:14:58;0.993;-0.036;0.079;-0.0012217304902151227;-0.01710422709584236;-0.006108652334660292
01:00:0A:00:00:00:00;1723940099;18/08/24;00:14:59;1.01;-0.037;0.078;0.0;-0.024434609338641167;-0.004886921960860491
01:00:0A:00:00:00:00;1723940100;18/08/24;00:15:00;1.022;-0.038;0.081;0.0012217304902151227;-0.021991148591041565;0.004886921960860491
01:00:0A:00:00:00:00;1723940101;18/08/24;00:15:01;1.033;-0.033;0.086;0.0012217304902151227;-0.012217304669320583;0.019547687843441963
01:00:0A:00:00:00:00;1723940102;18/08/24;00:15:02;1.022;-0.027;0.083;0.004886921960860491;-0.0024434609804302454;0.009773843921720982
01:00:0A:00:00:00:00;1723940103;18/08/24;00:15:03;1.011;-0.026;0.081;0.0073303827084600925;0.0073303827084600925;0.0
01:00:0A:00:00:00:00;1723940104;18/08/24;00:15:04;1.001;-0.031;0.073;0.00855211354792118;-0.00855211354792118;-0.0024434609804302454
01:00:0A:00:00:00:00;1723940105;18/08/24;00:15:05;1.0;-0.034;0.073;0.010995574295520782;-0.015882495790719986;-0.006108652334660292
01:00:0A:00:00:00:00;1723940106;18/08/24;00:15:06;1.011;-0.033;0.078;0.010995574295520782;-0.02321287989616394;-0.006108652334660292
01:00:0A:00:00:00:00;1723940107;18/08/24;00:15:07;1.016;-0.035;0.082;0.00855211354792118;-0.02076941914856434;0.004886921960860491
01:00:0A:00:00:00:00;1723940108;18/08/24;00:15:08;1.027;-0.035;0.083;0.010995574295520782;-0.00855211354792118;0.013439035043120384
