Source;Epoch timestamp (UTC);Date;Time (UTC);Accel X (G);Accel Y (G);Accel Z (G);Gyro X (rad/s);Gyro Y (rad/s);Gyro Z (rad/s)
01:00:0A:00:00:00:00;1727135994;23/09/24;23:59:54;1.006;0.001;0.171;0.009773843921720982;-0.010995574295520782;0.0036651913542300463
01:00:0A:00:00:00:00;1727135995;23/09/24;23:59:55;1.005;0.0;0.172;0.009773843921720982;-0.010995574295520782;0.0036651913542300463
01:00:0A:00:00:00:00;1727135996;23/09/24;23:59:56;1.006;0.001;0.171;0.009773843921720982;-0.010995574295520782;0.0036651913542300463
01:00:0A:00:00:00:00;1727135997;23/09/24;23:59:57;1.007;0.0;0.171;0.009773843921720982;-0.010995574295520782;0.0036651913542300463
01:00:0A:00:00:00:00;1727135998;23/09/24;23:59:58;1.006;0.0;0.171;0.009773843921720982;-0.010995574295520782;0.0036651913542300463
01:00:0A:00:00:00:00;1727135999;23/09/24;23:59:59;1.006;0.0;0.172;0.010995574295520782;-0.010995574295520782;0.0036651913542300463
01:00:0A:00:00:00:00;1727136000;24/09/24;00:00:00;1.006;0.001;0.172;0.009773843921720982;-0.010995574295520782;0.0036651913542300463
01:00:0A:00:00:00:00;1727136001;24/09/24;00:00:01;1.007;0.001;0.171;0.009773843921720982;-0.010995574295520782;0.0036651913542300463
01:00:0A:00:00:00:00;1727136002;24/09/24;00:00:02;1.006;0.0;0.172;0.009773843921720982;-0.010995574295520782;0.004886921960860491
01:00:0A:00:00:00:00;1727136003;24/09/24;00:00:03;1.005;0.0;0.171;0.009773843921720982;-0.010995574295520782;0.0036651913542300463
01:00:0A:00:00:00:00;1727136004;24/09/24;00:00:04;1.007;0.0;0.17;0.009773843921720982;-0.010995574295520782;0.0036651913542300463
01:00:0A:00:00:00:00;1727136005;24/09/24;00:00:05;1.006;0.001;0.172;0.009773843921720982;-0.010995574295520782;0.0036651913542300463
01:00:0A:00:00:00:00;1727136006;24/09/24;00:00:06;1.006;0.001;0.171;0.009773843921720982;-0.010995574295520782;0.0036651913542300463
01:00:0A:00:00:00:00;1727136007;24/09/24;00:00:07;1.007;0.002;0.172;0.00855211354792118;-0.010995574295520782;0.0036651913542300463
01:00:0A:00:00:00:00;1727136008;24/09/24;00:00:08;1.006;0.0;0.171;0.009773843921720982;-0.010995574295520782;0.0036651913542300463
01:00:0A:00:00:00:00;1727136009;24/09/24;00:00:09;1.006;0.002;0.172;0.009773843921720982;-0.010995574295520782;0.0036651913542300463
01:00:0A:00:00:00:00;1727136010;24/09/24;00:00:10;1.006;0.0;0.171;0.009773843921720982;-0.010995574295520782;0.0036651913542300463
01:00:0A:00:00:00:00;1727136011;24/09/24;00:00:11;1.007;0.0;0.172;0.009773843921720982;-0.010995574295520782;0.0036651913542300463
01:00:0A:00:00:00:00;1727136012;24/09/24;00:00:12;1.006;0.0;0.171;0.00855211354792118;-0.010995574295520782;0.0036651913542300463
01:00:0A:00:00:00:00;1727136013;24/09/24;00:00:13;1.006;0.001;0.171;0.00855211354792118;-0.010995574295520782;0.0036651913542300463
01:00:0A:00:00:00:00;1727136014;24/09/24;00:00:14;1.006;0.001;0.172;0.009773843921720982;-0.010995574295520782;0.0036651913542300463
01:00:0A:00:00:00:00;1727136015;24/09/24;00:00:15;1.006;0.001;0.172;0.00855211354792118;-0.010995574295520782;0.0036651913542300463
01:00:0A:00:00:00:00;1727136016;24/09/24;00:00:16;1.006;0.0;0.172;0.009773843921720982;-0.010995574295520782;0.0036651913542300463
01:00:0A:00:00:00:00;1727136017;24/09/24;00:00:17;1.006;0.0;0.171;0.009773843921720982;-0.010995574295520782;0.0036651913542300463
01:00:0A:00:00:00:00;1727136018;24/09/24;00:00:18;1.006;0.002;0.172;0.009773843921720982;-0.010995574295520782;0.0036651913542300463
01:00:0A:00:00:00:00;1727136019;24/09/24;00:00:19;1.007;0.002;0.171;0.009773843921720982;-0.010995574295520782;0.0036651913542300463
01:00:0A:00:00:00:00;1727136020;24/09/24;00:00:20;1.006;0.0;0.172;0.009773843921720982;-0.010995574295520782;0.0036651913542300463
01:00:0A:00:00:00:00;1727136021;24/09/24;00:00:21;1.006;0.001;0.173;0.009773843921720982;-0.010995574295520782;0.0036651913542300463
01:00:0A:00:00:00:00;1727136022;24/09/24;00:00:22;1.006;0.001;0.17;0.009773843921720982;-0.010995574295520782;0.0036651913542300463
01:00:0A:00:00:00:00;1727136023;24/09/24;00:00:23;1.005;0.001;0.172;0.009773843921720982;-0.010995574295520782;0.0036651913542300463
01:00:0A:00:00:00:00;1727136024;24/09/24;00:00:24;1.005;0.0;0.172;0.009773843921720982;-0.010995574295520782;0.0036651913542300463
01:00:0A:00:00:00:00;1727136025;24/09/24;00:00:25;1.007;0.0;0.172;0.009773843921720982;-0.010995574295520782;0.0036651913542300463
01:00:0A:00:00:00:00;1727136026;24/09/24;00:00:26;1.007;0.001;0.171;0.009773843921720982;-0.010995574295520782;0.0036651913542300463
01:00:0A:00:00:00:00;1727136027;24/09/24;00:00:27;1.005;0.001;0.171;0.009773843921720982;-0.010995574295520782;0.0036651913542300463
01:00:0A:00:00:00:00;1727136028;24/09/24;00:00:28;1.006;0.002;0.171;0.009773843921720982;-0.010995574295520782;0.0036651913542300463
01:00:0A:00:00:00:00;1727136029;24/09/24;00:00:29;1.006;0.001;0.171;0.009773843921720982;-0.010995574295520782;0.0036651913542300463
01:00:0A:00:00:00:00;1727136030;24/09/24;00:00:30;1.006;0.001;0.172;0.009773843921720982;-0.010995574295520782;0.0036651913542300463
01:00:0A:00:00:00:00;1727136031;24/09/24;00:00:31;1.005;0.001;0.171;0.009773843921720982;-0.010995574295520782;0.0036651913542300463
01:00:0A:00:00:00:00;1727136032;24/09/24;00:00:32;1.007;0.001;0.17;0.009773843921720982;-0.010995574295520782;0.0036651913542300463
01:00:0A:00:00:00:00;1727136033;24/09/24;00:00:33;1.006;0.0;0.172;0.009773843921720982;-0.010995574295520782;0.0036651913542300463
01:00:0A:00:00:00:00;1727136034;24/09/24;00:00:34;1.007;0.0;0.172;0.009773843921720982;-0.010995574295520782;0.0036651913542300463
01:00:0A:00:00:00:00;1727136035;24/09/24;00:00:35;1.007;0.001;0.171;0.009773843921720982;-0.010995574295520782;0.0036651913542300463
01:00:0A:00:00:00:00;1727136036;24/09/24;00:00:36;1.069;0.007;0.165;0.04398229718208313;-0.3628539443016052;-0.14049901068210602
01:00:0A:00:00:00:00;1727136037;24/09/24;00:00:37;0.726;0.245;-0.678;0.3323107063770294;0.2993239760398865;-0.2773328125476837
01:00:0A:00:00:00:00;1727136038;24/09/24;00:00:38;0.642;0.847;0.125;-2.476447820663452;-0.8283332586288452;-1.6077972650527954
01:00:0A:00:00:00:00;1727136039;24/09/24;00:00:39;0.799;-0.344;0.577;-1.5796974897384644;-1.3390165567398071;-1.0396926403045654
01:00:0A:00:00:00:00;1727136040;24/09/24;00:00:40;0.701;0.529;0.373;-1.3194688558578491;0.7269296050071716;-0.6145303845405579
01:00:0A:00:00:00:00;1727136041;24/09/24;00:00:41;0.736;0.459;-0.416;0.9663888216018677;0.6475171446800232;2.2626447677612305
01:00:0A:00:00:00:00;1727136042;24/09/24;00:00:42;0.9;-0.167;0.118;0.9089674949645996;-0.21135938167572021;-0.5400049090385437
01:00:0A:00:00:00:00;1727136043;24/09/24;00:00:43;0.643;0.524;-0.106;-0.7110471129417419;0.06963863223791122;1.3939944505691528
01:00:0A:00:00:00:00;1727136044;24/09/24;00:00:44;0.956;-0.29;0.346;-0.8087855577468872;0.21013763546943665;1.0897835493087769
01:00:0A:00:00:00:00;1727136045;24/09/24;00:00:45;0.699;-0.505;0.003;0.0708603635430336;-0.2638937830924988;-2.0390682220458984
01:00:0A:00:00:00:00;1727136046;24/09/24;00:00:46;0.901;-0.009;0.053;0.09896016865968704;0.6878342032432556;0.045204028487205505
01:00:0A:00:00:00:00;1727136047;24/09/24;00:00:47;0.752;0.236;-0.223;-1.017701506614685;1.1557570695877075;1.026253581047058
01:00:0A:00:00:00:00;1727136048;24/09/24;00:00:48;0.784;-0.202;-0.729;-0.5827654600143433;-0.1722639948129654;0.9285151362419128
01:00:0A:00:00:00:00;1727136049;24/09/24;00:00:49;0.686;-0.072;0.85;-0.3017674386501312;0.5241223573684692;-0.8002334833145142
01:00:0A:00:00:00:00;1727136050;24/09/24;00:00:50;1.033;-0.399;0.071;-0.588874101638794;-1.8008307218551636;0.6401867866516113
01:00:0A:00:00:00:00;1727136051;24/09/24;00:00:51;1.244;0.112;0.323;0.8588765263557434;-0.19547687470912933;-0.6670648455619812
01:00:0A:00:00:00:00;1727136052;24/09/24;00:00:52;0.964;0.158;0.021;1.0690141916275024;1.9437731504440308;-0.46547931432724
01:00:0A:00:00:00:00;1727136053;24/09/24;00:00:53;0.993;-0.198;0.0;1.078787922859192;-1.0848965644836426;0.8210028409957886
01:00:0A:00:00:00:00;1727136054;24/09/24;00:00:54;0.753;0.563;-0.122;-4.227187633514404;0.05864306166768074;-1.9266690015792847
01:00:0A:00:00:00:00;1727136055;24/09/24;00:00:55;1.022;-0.054;-0.174;-2.915048837661743;-0.48380526900291443;-1.3805553913116455
01:00:0A:00:00:00:00;1727136056;24/09/24;00:00:56;0.909;-0.284;0.331;-2.6584856510162354;-0.036651913076639175;0.23335053026676178
01:00:0A:00:00:00:00;1727136057;24/09/24;00:00:57;0.809;0.046;-0.333;-3.152064800262451;-2.8099799156188965;0.09651670604944229
01:00:0A:00:00:00:00;1727136058;24/09/24;00:00:58;0.7;0.451;0.297;-2.0036380290985107;-1.0702358484268188;-1.2803735733032227
01:00:0A:00:00:00:00;1727136059;24/09/24;00:00:59;0.926;-0.083;0.069;-1.93766450881958;-0.6255260109901428;-0.4593706727027893
01:00:0A:00:00:00:00;1727136060;24/09/24;00:01:00;0.901;0.228;0.161;-1.4721851348876953;0.4813618063926697;0.27977627515792847
01:00:0A:00:00:00:00;1727136061;24/09/24;00:01:01;0.934;-0.334;0.03;-1.0995573997497559;-1.067792534828186;-0.13927726447582245
01:00:0A:00:00:00:00;1727136062;24/09/24;00:01:02;0.666;0.178;-0.809;-1.929112434387207;-0.8356636166572571;0.12339477241039276
01:00:0A:00:00:00:00;1727136063;24/09/24;00:01:03;0.775;0.543;-0.099;-1.1887438297271729;-0.18325956165790558;0.587652325630188
01:00:0A:00:00:00:00;1727136064;24/09/24;00:01:04;0.964;-0.169;0.04;-0.9676105380058289;-0.5803219676017761;0.9761626720428467
01:00:0A:00:00:00:00;1727136065;24/09/24;00:01:05;0.915;-0.033;-0.221;-0.5082398653030396;0.5705481767654419;-0.40194931626319885
01:00:0A:00:00:00:00;1727136066;24/09/24;00:01:06;0.971;0.103;0.29;-0.4190535545349121;0.06230825558304787;0.05497787147760391
01:00:0A:00:00:00:00;1727136067;24/09/24;00:01:07;0.441;-0.371;-0.42;1.1349875926971436;1.1496483087539673;0.18448130786418915
01:00:0A:00:00:00:00;1727136068;24/09/24;00:01:08;0.812;0.302;-0.076;0.2223549485206604;-2.635272741317749;-1.7751742601394653
01:00:0A:00:00:00:00;1727136069;24/09/24;00:01:09;0.841;0.29;-0.478;-0.7855727076530457;-0.6707300543785095;0.5827654600143433
01:00:0A:00:00:00:00;1727136070;24/09/24;00:01:10;0.923;-0.412;0.176;-0.27977627515792847;1.137431025505066;0.3384193480014801
01:00:0A:00:00:00:00;1727136071;24/09/24;00:01:11;0.847;-0.23;0.514;-0.9993755221366882;-0.0012217304902151227;-0.9761626720428467
01:00:0A:00:00:00:00;1727136072;24/09/24;00:01:12;0.914;0.382;0.313;-0.9663888216018677;-0.445931613445282;-0.6658430695533752
01:00:0A:00:00:00:00;1727136073;24/09/24;00:01:13;0.954;0.199;0.372;-1.0506882667541504;-0.4593706727027893;0.2431243658065796
01:00:0A:00:00:00:00;1727136074;24/09/24;00:01:14;1.023;0.057;-0.123;-0.6976081132888794;-0.1869247555732727;-0.2528982162475586
01:00:0A:00:00:00:00;1727136075;24/09/24;00:01:15;0.958;-0.105;0.425;-0.587652325630188;0.6585127115249634;0.3433062732219696
01:00:0A:00:00:00:00;1727136076;24/09/24;00:01:16;0.817;0.309;0.506;-0.41661006212234497;0.13927726447582245;-1.2327260971069336
01:00:0A:00:00:00:00;1727136077;24/09/24;00:01:17;0.9;0.42;0.314;-0.4593706727027893;-0.31154125928878784;-0.34086278080940247
01:00:0A:00:00:00:00;1727136078;24/09/24;00:01:18;0.918;-0.141;0.338;-0.5363396406173706;-0.010995574295520782;0.294437050819397
01:00:0A:00:00:00:00;1727136079;24/09/24;00:01:19;0.827;-0.143;0.662;-0.6475171446800232;-0.2773328125476837;-0.3738495111465454
01:00:0A:00:00:00:00;1727136080;24/09/24;00:01:20;0.946;-0.507;-0.009;-0.5436700582504272;-0.513126790523529;-0.05009094998240471
01:00:0A:00:00:00:00;1727136081;24/09/24;00:01:21;0.983;0.29;-0.129;-0.3066543638706207;0.5436700582504272;-0.2015855312347412
01:00:0A:00:00:00:00;1727136082;24/09/24;00:01:22;0.983;-0.092;0.366;-0.3689626157283783;-0.18081611394882202;0.4349360466003418
01:00:0A:00:00:00:00;1727136083;24/09/24;00:01:23;1.026;-0.126;0.008;-0.10751228034496307;-0.3127630054950714;-0.33964109420776367
01:00:0A:00:00:00:00;1727136084;24/09/24;00:01:24;0.993;0.05;0.256;-0.11362093687057495;0.2919935882091522;0.0354301817715168
01:00:0A:00:00:00:00;1727136085;24/09/24;00:01:25;0.927;-0.214;0.174;-0.1417207270860672;-0.22113320231437683;0.4691444933414459
01:00:0A:00:00:00:00;1727136086;24/09/24;00:01:26;0.94;0.103;0.089;0.13927726447582245;0.0073303827084600925;-0.6976081132888794
01:00:0A:00:00:00:00;1727136087;24/09/24;00:01:27;0.932;0.001;0.243;-0.13439035415649414;0.0708603635430336;0.8552113175392151
01:00:0A:00:00:00:00;1727136088;24/09/24;00:01:28;0.935;-0.201;0.206;0.2895500957965851;-0.2687807083129883;-1.0311404466629028
01:00:0A:00:00:00:00;1727136089;24/09/24;00:01:29;0.952;0.307;-0.02;-0.08918632566928864;0.3066543638706207;0.6194173693656921
01:00:0A:00:00:00:00;1727136090;24/09/24;00:01:30;0.981;-0.342;0.23;-0.0354301817715168;0.7293730974197388;-0.10262535512447357
01:00:0A:00:00:00:00;1727136091;24/09/24;00:01:31;0.974;-0.119;0.299;0.01710422709584236;-0.7061601877212524;-0.12339477241039276
01:00:0A:00:00:00:00;1727136092;24/09/24;00:01:32;0.586;-0.025;-0.883;-1.9718729257583618;0.36651912331581116;-0.7318165302276611
01:00:0A:00:00:00:00;1727136093;24/09/24;00:01:33;0.733;0.063;-0.551;-0.4251621961593628;1.1948524713516235;-0.20891590416431427
01:00:0A:00:00:00:00;1727136094;24/09/24;00:01:34;0.901;0.206;0.142;-0.41661006212234497;0.8576548099517822;0.626747727394104
01:00:0A:00:00:00:00;1727136095;24/09/24;00:01:35;0.979;-0.003;0.05;-0.1160643920302391;-0.7806857824325562;-0.5644394755363464
01:00:0A:00:00:00:00;1727136096;24/09/24;00:01:36;0.956;0.317;-0.141;-0.14782939851284027;0.598647952079773;0.3176499307155609
01:00:0A:00:00:00:00;1727136097;24/09/24;00:01:37;0.988;-0.182;0.359;-0.05742133408784866;-0.06352998316287994;0.14049901068210602
01:00:0A:00:00:00:00;1727136098;24/09/24;00:01:38;1.036;0.128;-0.07;0.07696902006864548;-0.3995058536529541;-0.2565633952617645
01:00:0A:00:00:00:00;1727136099;24/09/24;00:01:39;0.943;0.021;0.317;0.02076941914856434;0.5045746564865112;0.13316862285137177
01:00:0A:00:00:00:00;1727136100;24/09/24;00:01:40;0.942;-0.139;0.097;0.12095131725072861;-0.6866125464439392;-0.07452555745840073
01:00:0A:00:00:00:00;1727136101;24/09/24;00:01:41;0.974;-0.051;0.151;0.26145032048225403;0.778242290019989;-0.10384709388017654
01:00:0A:00:00:00:00;1727136102;24/09/24;00:01:42;0.736;-0.101;0.669;0.2370157092809677;-0.3933972120285034;0.02932153083384037
01:00:0A:00:00:00:00;1727136103;24/09/24;00:01:43;0.716;0.138;0.669;0.20647244155406952;0.009773843921720982;-0.14294245839118958
01:00:0A:00:00:00:00;1727136104;24/09/24;00:01:44;0.931;0.09;0.357;-1.3634511232376099;-0.06108652427792549;-0.20402899384498596
01:00:0A:00:00:00:00;1727136105;24/09/24;00:01:45;0.955;0.302;0.21;-1.8167132139205933;-0.4105014204978943;-0.5045746564865112
01:00:0A:00:00:00:00;1727136106;24/09/24;00:01:46;0.469;-0.705;0.009;-2.568077325820923;-0.5412266254425049;-1.1655309200286865
01:00:0A:00:00:00:00;1727136107;24/09/24;00:01:47;0.966;0.16;0.391;-1.4587461948394775;1.2913691997528076;-0.014660765416920185
01:00:0A:00:00:00:00;1727136108;24/09/24;00:01:48;0.975;0.081;0.523;-0.6230825185775757;-0.19425514340400696;-0.6719517707824707
01:00:0A:00:00:00:00;1727136109;24/09/24;00:01:49;0.862;0.571;0.288;-1.0299187898635864;-0.2028072476387024;-0.03176499158143997
01:00:0A:00:00:00:00;1727136110;24/09/24;00:01:50;0.947;-0.474;-0.043;-0.7611380815505981;-0.3848450779914856;-0.2736676335334778
01:00:0A:00:00:00:00;1727136111;24/09/24;00:01:51;0.861;0.016;-0.349;-2.713463306427002;-1.3096951246261597;-0.03787364438176155
01:00:0A:00:00:00:00;1727136112;24/09/24;00:01:52;0.609;0.642;0.483;-1.5063936710357666;0.46792274713516235;-0.05619959905743599
01:00:0A:00:00:00:00;1727136113;24/09/24;00:01:53;0.949;-0.149;0.333;-1.0506882667541504;-0.9077457189559937;-0.21624629199504852
01:00:0A:00:00:00:00;1727136114;24/09/24;00:01:54;0.95;0.11;0.165;-0.7538076639175415;0.22602014243602753;-0.01710422709584236
01:00:0A:00:00:00:00;1727136115;24/09/24;00:01:55;0.97;-0.041;0.245;-0.6255260109901428;-0.29688048362731934;-0.15882496535778046
01:00:0A:00:00:00:00;1727136116;24/09/24;00:01:56;0.974;0.154;0.159;-0.5546656250953674;-0.26633724570274353;-0.018325956538319588
01:00:0A:00:00:00:00;1727136117;24/09/24;00:01:57;1.038;0.064;0.016;-0.2724458873271942;-0.004886921960860491;-0.4960225820541382
01:00:0A:00:00:00:00;1727136118;24/09/24;00:01:58;0.861;0.366;0.356;-0.588874101638794;0.3787364363670349;0.040317103266716
01:00:0A:00:00:00:00;1727136119;24/09/24;00:01:59;1.002;-0.11;0.124;-0.5913175940513611;-1.164309024810791;-0.10018189996480942
01:00:0A:00:00:00:00;1727136120;24/09/24;00:02:00;0.96;0.242;-0.083;-0.46547931432724;0.5082398653030396;-0.2993239760398865
01:00:0A:00:00:00:00;1727136121;24/09/24;00:02:01;0.922;-0.13;0.349;-0.5595525503158569;-0.32009339332580566;0.5424482822418213
01:00:0A:00:00:00:00;1727136122;24/09/24;00:02:02;0.965;-0.073;-0.033;-0.040317103266716;0.14782939851284027;-1.1447614431381226
01:00:0A:00:00:00:00;1727136123;24/09/24;00:02:03;0.973;0.007;0.152;-0.3078760802745819;-0.5937609672546387;1.5210543870925903
01:00:0A:00:00:00:00;1727136124;24/09/24;00:02:04;0.987;-0.073;0.081;-0.20647244155406952;0.29077184200286865;-0.6817255616188049
01:00:0A:00:00:00:00;1727136125;24/09/24;00:02:05;0.948;0.025;0.128;-0.45204028487205505;-0.10384709388017654;0.2174680233001709
01:00:0A:00:00:00:00;1727136126;24/09/24;00:02:06;0.976;-0.189;0.346;-1.067792534828186;-0.29565879702568054;1.038470983505249
01:00:0A:00:00:00:00;1727136127;24/09/24;00:02:07;1.04;-0.242;-0.048;-0.4691444933414459;-0.039095375686883926;-0.030543262138962746
01:00:0A:00:00:00:00;1727136128;24/09/24;00:02:08;0.775;-0.473;-0.11;-0.5839871764183044;-1.469741702079773;2.191784381866455
01:00:0A:00:00:00:00;1727136129;24/09/24;00:02:09;0.804;0.701;-0.258;-0.22968533635139465;-1.056796908378601;-1.7397441864013672
01:00:0A:00:00:00:00;1727136130;24/09/24;00:02:10;0.869;0.518;-0.281;-0.911410927772522;0.3017674386501312;0.862541675567627
01:00:0A:00:00:00:00;1727136131;24/09/24;00:02:11;0.923;-0.419;0.33;-0.7892378568649292;0.4948008358478546;-0.0708603635430336
01:00:0A:00:00:00:00;1727136132;24/09/24;00:02:12;1.022;-0.093;0.432;-0.49724429845809937;-0.3176499307155609;-0.9969320893287659
01:00:0A:00:00:00:00;1727136133;24/09/24;00:02:13;0.832;0.637;-0.083;-0.7709119319915771;0.18814648687839508;0.161268413066864
01:00:0A:00:00:00:00;1727136134;24/09/24;00:02:14;0.989;-0.386;0.122;-0.9187413454055786;0.17959438264369965;0.5729915499687195
01:00:0A:00:00:00:00;1727136135;24/09/24;00:02:15;0.947;-0.352;0.048;-0.44348815083503723;0.8930849432945251;-1.3866640329360962
01:00:0A:00:00:00:00;1727136136;24/09/24;00:02:16;0.788;0.347;0.418;-0.911410927772522;-0.3090977966785431;-0.16249015927314758
01:00:0A:00:00:00:00;1727136137;24/09/24;00:02:17;1.013;-0.248;-0.149;-1.0934487581253052;-0.6939429044723511;0.014660765416920185
01:00:0A:00:00:00:00;1727136138;24/09/24;00:02:18;0.998;-0.026;0.033;-2.585181713104248;0.587652325630188;0.5485569834709167
01:00:0A:00:00:00:00;1727136139;24/09/24;00:02:19;0.773;-0.183;0.443;-0.42271876335144043;0.02687807008624077;-1.9413297176361084
01:00:0A:00:00:00:00;1727136140;24/09/24;00:02:20;0.94;0.1;0.088;-0.6682865619659424;-1.145983099937439;-0.14782939851284027
01:00:0A:00:00:00:00;1727136141;24/09/24;00:02:21;0.888;0.193;-0.01;-0.8038986325263977;0.7305948734283447;0.7220427393913269
01:00:0A:00:00:00:00;1727136142;24/09/24;00:02:22;0.964;-0.12;0.002;-0.4447098970413208;-0.1160643920302391;-0.20402899384498596
01:00:0A:00:00:00:00;1727136143;24/09/24;00:02:23;1.005;0.083;0.111;-0.35185837745666504;0.35185837745666504;-0.0073303827084600925
01:00:0A:00:00:00:00;1727136144;24/09/24;00:02:24;0.876;0.018;0.65;-0.4642575681209564;-0.16249015927314758;-0.11972958594560623
01:00:0A:00:00:00:00;1727136145;24/09/24;00:02:25;0.967;0.198;-0.451;-1.6358970403671265;-0.6499606370925903;0.7745770812034607
01:00:0A:00:00:00:00;1727136146;24/09/24;00:02:26;0.961;-0.418;-0.116;-1.207069754600525;0.6206390857696533;0.10873401165008545
01:00:0A:00:00:00:00;1727136147;24/09/24;00:02:27;0.992;-0.249;0.129;-0.8564330339431763;0.1722639948129654;-0.004886921960860491
01:00:0A:00:00:00:00;1727136148;24/09/24;00:02:28;1.033;-0.03;0.1;-0.4642575681209564;0.43249258399009705;-0.23945917189121246
01:00:0A:00:00:00:00;1727136149;24/09/24;00:02:29;1.036;0.13;0.152;-0.4141666293144226;-0.3042108714580536;-0.16982054710388184
01:00:0A:00:00:00:00;1727136150;24/09/24;00:02:30;1.019;0.191;-0.001;-0.42638394236564636;-0.16004669666290283;0.1514945775270462
01:00:0A:00:00:00:00;1727136151;24/09/24;00:02:31;1.021;-0.155;0.134;-0.2822197377681732;0.12950342893600464;-0.08552113175392151
01:00:0A:00:00:00:00;1727136152;24/09/24;00:02:32;1.016;0.294;0.164;-0.26511549949645996;-0.05864306166768074;-0.6230825185775757
01:00:0A:00:00:00:00;1727136153;24/09/24;00:02:33;1.038;-0.106;0.067;-0.37140607833862305;-0.251676470041275;0.3543018400669098
01:00:0A:00:00:00:00;1727136154;24/09/24;00:02:34;0.93;0.085;0.339;-0.2724458873271942;0.6108652353286743;-0.36163222789764404
01:00:0A:00:00:00:00;1727136155;24/09/24;00:02:35;0.9;-0.149;-0.099;-0.3677408695220947;-1.0775662660598755;0.17470745742321014
01:00:0A:00:00:00:00;1727136156;24/09/24;00:02:36;0.875;0.154;0.452;-0.09285151958465576;1.1032226085662842;-0.3543018400669098
01:00:0A:00:00:00:00;1727136157;24/09/24;00:02:37;0.867;-0.007;0.563;-0.4080579876899719;-0.5742133259773254;-0.014660765416920185
01:00:0A:00:00:00:00;1727136158;24/09/24;00:02:38;0.994;-0.028;-0.116;-0.45204028487205505;-0.5803219676017761;0.2919935882091522
01:00:0A:00:00:00:00;1727136159;24/09/24;00:02:39;0.894;-0.368;-0.375;-0.4495967924594879;-0.2076941877603531;0.33719760179519653
01:00:0A:00:00:00:00;1727136160;24/09/24;00:02:40;0.998;-0.093;0.333;0.11972958594560623;0.7770205736160278;-0.5412266254425049
01:00:0A:00:00:00:00;1727136161;24/09/24;00:02:41;0.916;0.188;0.441;-0.27000245451927185;-0.5412266254425049;0.13561207056045532
01:00:0A:00:00:00:00;1727136162;24/09/24;00:02:42;0.997;-0.13;-0.145;-0.1417207270860672;-0.27122414112091064;0.26511549949645996
01:00:0A:00:00:00:00;1727136163;24/09/24;00:02:43;1.004;-0.052;0.104;0.4996877610683441;0.3799581527709961;-0.22479839622974396
01:00:0A:00:00:00:00;1727136164;24/09/24;00:02:44;0.967;0.141;0.254;0.2883284091949463;-0.036651913076639175;0.03787364438176155
01:00:0A:00:00:00:00;1727136165;24/09/24;00:02:45;0.981;-0.129;0.111;0.18081611394882202;-0.3066543638706207;0.08307767659425735
01:00:0A:00:00:00:00;1727136166;24/09/24;00:02:46;1.016;-0.037;0.178;0.33719760179519653;0.07330382615327835;-0.2272418737411499
01:00:0A:00:00:00:00;1727136167;24/09/24;00:02:47;1.039;0.056;0.325;0.7452555894851685;0.019547687843441963;0.2174680233001709
01:00:0A:00:00:00:00;1727136168;24/09/24;00:02:48;1.078;-0.225;0.164;0.7220427393913269;-0.06719517707824707;-0.04886921867728233
01:00:0A:00:00:00:00;1727136169;24/09/24;00:02:49;1.014;0.349;-0.122;0.6585127115249634;-0.21502456068992615;-0.2834414541721344
01:00:0A:00:00:00:00;1727136170;24/09/24;00:02:50;0.854;-0.241;0.579;0.4251621961593628;0.6658430695533752;0.5607742667198181
01:00:0A:00:00:00:00;1727136171;24/09/24;00:02:51;1.011;0.027;0.037;0.39095374941825867;-0.9663888216018677;-0.02076941914856434
01:00:0A:00:00:00:00;1727136172;24/09/24;00:02:52;0.986;0.037;0.141;0.45814892649650574;0.4862487316131592;-0.0073303827084600925
01:00:0A:00:00:00:00;1727136173;24/09/24;00:02:53;0.938;0.023;0.225;0.29565879702568054;-0.1368338167667389;0.15027284622192383
01:00:0A:00:00:00:00;1727136174;24/09/24;00:02:54;0.998;-0.069;0.122;0.251676470041275;-0.2125810980796814;0.09407324343919754
01:00:0A:00:00:00:00;1727136175;24/09/24;00:02:55;1.036;-0.047;0.091;0.35063666105270386;0.14294245839118958;-0.07819075137376785
01:00:0A:00:00:00:00;1727136176;24/09/24;00:02:56;1.02;0.143;0.268;0.2015855312347412;-0.15271630883216858;0.1918116807937622
01:00:0A:00:00:00:00;1727136177;24/09/24;00:02:57;1.048;-0.194;0.087;0.26145032048225403;0.012217304669320583;0.05864306166768074
01:00:0A:00:00:00:00;1727136178;24/09/24;00:02:58;1.024;0.153;0.217;0.30054569244384766;0.07696902006864548;-0.23090705275535583
01:00:0A:00:00:00:00;1727136179;24/09/24;00:02:59;1.043;-0.077;0.144;0.1514945775270462;-0.042760565876960754;0.21624629199504852
01:00:0A:00:00:00:00;1727136180;24/09/24;00:03:00;1.007;-0.062;0.168;0.23335053026676178;0.018325956538319588;-0.0757472887635231
01:00:0A:00:00:00:00;1727136181;24/09/24;00:03:01;0.993;0.057;0.139;0.1771509200334549;-0.07696902006864548;-0.012217304669320583
01:00:0A:00:00:00:00;1727136182;24/09/24;00:03:02;0.968;-0.042;0.173;0.1062905490398407;0.05375614017248154;0.22479839622974396
01:00:0A:00:00:00:00;1727136183;24/09/24;00:03:03;0.952;-0.009;0.143;0.16859880089759827;-0.21868975460529327;-0.15515977144241333
01:00:0A:00:00:00:00;1727136184;24/09/24;00:03:04;0.954;0.002;0.136;0.10262535512447357;0.10018189996480942;0.1514945775270462
01:00:0A:00:00:00:00;1727136185;24/09/24;00:03:05;0.992;-0.124;0.167;-0.6890559792518616;-0.22113320231437683;-0.028099799528717995
01:00:0A:00:00:00:00;1727136186;24/09/24;00:03:06;1.034;0.014;0.1;-0.39095374941825867;0.46547931432724;-0.18325956165790558
01:00:0A:00:00:00:00;1727136187;24/09/24;00:03:07;0.958;-0.002;0.504;-0.47769662737846375;-0.3384193480014801;0.040317103266716
01:00:0A:00:00:00:00;1727136188;24/09/24;00:03:08;1.028;0.106;-0.16;-0.32009339332580566;0.18081611394882202;-0.02076941914856434
01:00:0A:00:00:00:00;1727136189;24/09/24;00:03:09;1.009;-0.076;0.341;-0.2638937830924988;0.28466320037841797;0.12217304855585098
01:00:0A:00:00:00:00;1727136190;24/09/24;00:03:10;1.039;-0.054;0.162;-0.1966986060142517;-0.1918116807937622;-0.17837265133857727
01:00:0A:00:00:00:00;1727136191;24/09/24;00:03:11;1.01;0.136;0.108;-0.2076941877603531;0.04642575979232788;-0.024434609338641167
01:00:0A:00:00:00:00;1727136192;24/09/24;00:03:12;0.992;-0.095;0.215;-0.25534167885780334;0.06230825558304787;0.26145032048225403
01:00:0A:00:00:00:00;1727136193;24/09/24;00:03:13;1.001;-0.003;0.127;-0.0659734457731247;-0.02321287989616394;-0.31031954288482666
01:00:0A:00:00:00:00;1727136194;24/09/24;00:03:14;0.982;0.072;0.151;-0.14416420459747314;0.02321287989616394;0.03298672288656235
01:00:0A:00:00:00:00;1727136195;24/09/24;00:03:15;0.993;-0.096;0.162;-0.15882496535778046;-0.14049901068210602;0.09407324343919754
01:00:0A:00:00:00:00;1727136196;24/09/24;00:03:16;1.014;-0.031;0.154;-0.036651913076639175;0.04764748737215996;-0.1673770695924759
01:00:0A:00:00:00:00;1727136197;24/09/24;00:03:17;0.992;0.059;0.233;-0.11362093687057495;0.07208210229873657;0.07330382615327835
01:00:0A:00:00:00:00;1727136198;24/09/24;00:03:18;0.986;-0.05;0.138;-0.12461651116609573;-0.09040805697441101;0.08674286305904388
01:00:0A:00:00:00:00;1727136199;24/09/24;00:03:19;0.985;0.017;0.128;-0.006108652334660292;0.15027284622192383;-0.1771509200334549
01:00:0A:00:00:00:00;1727136200;24/09/24;00:03:20;1.029;0.068;0.22;-0.12950342893600464;-0.22357667982578278;0.1514945775270462
01:00:0A:00:00:00:00;1727136201;24/09/24;00:03:21;1.082;-0.17;0.016;-0.00855211354792118;0.05619959905743599;-0.07819075137376785
01:00:0A:00:00:00:00;1727136202;24/09/24;00:03:22;0.983;0.229;0.397;-0.08185594528913498;0.1576032191514969;-0.16371189057826996
01:00:0A:00:00:00:00;1727136203;24/09/24;00:03:23;0.997;-0.177;-0.092;-0.17837265133857727;-0.5632177591323853;0.4031710624694824
01:00:0A:00:00:00:00;1727136204;24/09/24;00:03:24;0.98;0.024;0.277;0.11728612333536148;0.5375614166259766;-0.39095374941825867
01:00:0A:00:00:00:00;1727136205;24/09/24;00:03:25;0.96;0.074;0.272;-0.18081611394882202;-0.2480112910270691;0.19914205372333527
01:00:0A:00:00:00:00;1727136206;24/09/24;00:03:26;0.991;-0.059;-0.033;-0.10995574295520782;-0.09040805697441101;0.09040805697441101
01:00:0A:00:00:00:00;1727136207;24/09/24;00:03:27;0.993;0.004;0.152;0.03420845419168472;0.3017674386501312;-0.20036379992961884
01:00:0A:00:00:00:00;1727136208;24/09/24;00:03:28;0.971;0.04;0.252;-0.10995574295520782;-0.2993239760398865;0.03298672288656235
01:00:0A:00:00:00:00;1727136209;24/09/24;00:03:29;1.009;-0.069;0.065;-0.09773843735456467;-0.07696902006864548;0.006108652334660292
01:00:0A:00:00:00:00;1727136210;24/09/24;00:03:30;1.021;-0.026;0.164;-0.019547687843441963;0.20525071024894714;-0.04153883829712868
01:00:0A:00:00:00:00;1727136211;24/09/24;00:03:31;0.99;0.043;0.233;-0.07452555745840073;-0.22113320231437683;-0.09285151958465576
01:00:0A:00:00:00:00;1727136212;24/09/24;00:03:32;1.02;0.019;0.046;-0.11362093687057495;-0.08429940044879913;0.04642575979232788
01:00:0A:00:00:00:00;1727136213;24/09/24;00:03:33;1.01;-0.03;0.13;-0.024434609338641167;0.06841690838336945;-0.08918632566928864
01:00:0A:00:00:00:00;1727136214;24/09/24;00:03:34;1.003;-0.004;0.211;-0.06230825558304787;0.025656338781118393;0.03176499158143997
01:00:0A:00:00:00:00;1727136215;24/09/24;00:03:35;1.016;-0.022;0.147;-0.08918632566928864;-0.08918632566928864;0.07330382615327835
01:00:0A:00:00:00:00;1727136216;24/09/24;00:03:36;1.005;0.018;0.126;-0.045204028487205505;0.036651913076639175;-0.0354301817715168
01:00:0A:00:00:00:00;1727136217;24/09/24;00:03:37;0.993;0.0;0.196;-0.05864306166768074;-0.00855211354792118;-0.025656338781118393
01:00:0A:00:00:00:00;1727136218;24/09/24;00:03:38;1.0;-0.034;0.149;-0.0708603635430336;-0.06230825558304787;-0.0036651913542300463
01:00:0A:00:00:00:00;1727136219;24/09/24;00:03:39;0.998;-0.003;0.154;-0.05375614017248154;0.040317103266716;-0.004886921960860491
01:00:0A:00:00:00:00;1727136220;24/09/24;00:03:40;1.0;-0.002;0.185;-0.0708603635430336;-0.03787364438176155;0.014660765416920185
01:00:0A:00:00:00:00;1727136221;24/09/24;00:03:41;1.003;-0.005;0.147;-0.06352998316287994;-0.06352998316287994;-0.015882495790719986
01:00:0A:00:00:00:00;1727136222;24/09/24;00:03:42;0.993;0.0;0.164;-0.04764748737215996;0.03298672288656235;-0.039095375686883926
01:00:0A:00:00:00:00;1727136223;24/09/24;00:03:43;0.993;-0.021;0.179;-0.06230825558304787;-0.045204028487205505;-0.013439035043120384
01:00:0A:00:00:00:00;1727136224;24/09/24;00:03:44;1.012;-0.027;0.149;-0.05009094998240471;-0.01710422709584236;-0.02932153083384037
01:00:0A:00:00:00:00;1727136225;24/09/24;00:03:45;1.031;0.001;0.164;-0.05253440886735916;0.014660765416920185;0.00855211354792118
01:00:0A:00:00:00:00;1727136226;24/09/24;00:03:46;1.035;-0.023;0.182;-0.05375614017248154;-0.009773843921720982;0.0024434609804302454
01:00:0A:00:00:00:00;1727136227;24/09/24;00:03:47;1.033;-0.004;0.153;-0.04642575979232788;-0.01710422709584236;-0.006108652334660292
01:00:0A:00:00:00:00;1727136228;24/09/24;00:03:48;0.987;-0.012;0.181;-0.04886921867728233;0.06108652427792549;0.0073303827084600925
01:00:0A:00:00:00:00;1727136229;24/09/24;00:03:49;0.97;-0.004;0.157;-0.05497787147760391;-0.04886921867728233;-0.018325956538319588
01:00:0A:00:00:00:00;1727136230;24/09/24;00:03:50;0.964;0.011;0.152;-0.06230825558304787;-0.0024434609804302454;-0.0024434609804302454
01:00:0A:00:00:00:00;1727136231;24/09/24;00:03:51;0.987;0.005;0.168;-0.07330382615327835;-0.07330382615327835;-0.01710422709584236
01:00:0A:00:00:00:00;1727136232;24/09/24;00:03:52;1.034;-0.01;0.162;-0.0708603635430336;-0.013439035043120384;-0.04398229718208313
01:00:0A:00:00:00:00;1727136233;24/09/24;00:03:53;1.045;0.0;0.186;-0.08552113175392151;-0.02076941914856434;-0.012217304669320583
01:00:0A:00:00:00:00;1727136234;24/09/24;00:03:54;1.039;-0.018;0.157;-0.08918632566928864;-0.00855211354792118;0.02321287989616394
01:00:0A:00:00:00:00;1727136235;24/09/24;00:03:55;0.995;0.0;0.161;-0.07819075137376785;0.018325956538319588;-0.010995574295520782
01:00:0A:00:00:00:00;1727136236;24/09/24;00:03:56;0.984;-0.003;0.162;-0.09162978082895279;-0.03298672288656235;0.01710422709584236
01:00:0A:00:00:00:00;1727136237;24/09/24;00:03:57;0.987;-0.012;0.156;-0.07330382615327835;0.0024434609804302454;-0.02932153083384037
01:00:0A:00:00:00:00;1727136238;24/09/24;00:03:58;1.002;-0.01;0.166;-0.07696902006864548;-0.024434609338641167;-0.015882495790719986
01:00:0A:00:00:00:00;1727136239;24/09/24;00:03:59;1.022;-0.012;0.169;-0.08307767659425735;-0.03176499158143997;0.0
01:00:0A:00:00:00:00;1727136240;24/09/24;00:04:00;1.016;-0.007;0.16;-0.07819075137376785;-0.018325956538319588;-0.0012217304902151227
01:00:0A:00:00:00:00;1727136241;24/09/24;00:04:01;1.01;-0.011;0.179;-0.07819075137376785;-0.025656338781118393;-0.012217304669320583
01:00:0A:00:00:00:00;1727136242;24/09/24;00:04:02;1.004;-0.011;0.172;-0.08429940044879913;-0.028099799528717995;0.0024434609804302454
01:00:0A:00:00:00:00;1727136243;24/09/24;00:04:03;1.003;-0.016;0.171;-0.080634206533432;0.02321287989616394;0.0
01:00:0A:00:00:00:00;1727136244;24/09/24;00:04:04;1.009;-0.006;0.168;-0.08307767659425735;0.0036651913542300463;-0.0036651913542300463
01:00:0A:00:00:00:00;1727136245;24/09/24;00:04:05;1.014;-0.007;0.159;-0.08796459436416626;-0.02076941914856434;0.0
01:00:0A:00:00:00:00;1727136246;24/09/24;00:04:06;1.012;-0.011;0.16;-0.08552113175392151;-0.014660765416920185;-0.012217304669320583
01:00:0A:00:00:00:00;1727136247;24/09/24;00:04:07;1.01;-0.005;0.184;-0.08918632566928864;-0.019547687843441963;-0.01710422709584236
01:00:0A:00:00:00:00;1727136248;24/09/24;00:04:08;1.011;-0.016;0.153;-0.09407324343919754;-0.014660765416920185;0.004886921960860491
01:00:0A:00:00:00:00;1727136249;24/09/24;00:04:09;1.007;-0.007;0.164;-0.09407324343919754;-0.006108652334660292;0.006108652334660292
01:00:0A:00:00:00:00;1727136250;24/09/24;00:04:10;0.995;0.0;0.16;-0.09162978082895279;-0.024434609338641167;-0.019547687843441963
01:00:0A:00:00:00:00;1727136251;24/09/24;00:04:11;0.992;-0.013;0.156;-0.08918632566928864;-0.03176499158143997;-0.02076941914856434
01:00:0A:00:00:00:00;1727136252;24/09/24;00:04:12;0.999;-0.017;0.173;-0.08674286305904388;0.0012217304902151227;-0.014660765416920185
01:00:0A:00:00:00:00;1727136253;24/09/24;00:04:13;1.015;-0.008;0.172;-0.09040805697441101;-0.015882495790719986;-0.006108652334660292
01:00:0A:00:00:00:00;1727136254;24/09/24;00:04:14;1.021;-0.001;0.165;-0.08552113175392151;-0.00855211354792118;-0.0073303827084600925
01:00:0A:00:00:00:00;1727136255;24/09/24;00:04:15;1.007;-0.012;0.161;-0.07452555745840073;0.006108652334660292;-0.028099799528717995
01:00:0A:00:00:00:00;1727136256;24/09/24;00:04:16;0.994;-0.016;0.16;-0.07452555745840073;-0.009773843921720982;-0.024434609338641167
01:00:0A:00:00:00:00;1727136257;24/09/24;00:04:17;1.0;-0.026;0.162;-0.07696902006864548;-0.015882495790719986;0.004886921960860491
01:00:0A:00:00:00:00;1727136258;24/09/24;00:04:18;1.02;-0.019;0.172;-0.06963863223791122;-0.02932153083384037;-0.0012217304902151227
01:00:0A:00:00:00:00;1727136259;24/09/24;00:04:19;1.032;-0.005;0.175;-0.06841690838336945;-0.009773843921720982;0.0036651913542300463
01:00:0A:00:00:00:00;1727136260;24/09/24;00:04:20;0.999;-0.007;0.16;-0.06475171446800232;0.0;-0.0012217304902151227
01:00:0A:00:00:00:00;1727136261;24/09/24;00:04:21;0.973;-0.014;0.156;-0.05742133408784866;0.0073303827084600925;-0.009773843921720982
01:00:0A:00:00:00:00;1727136262;24/09/24;00:04:22;0.979;-0.002;0.16;-0.05253440886735916;-0.015882495790719986;-0.030543262138962746
01:00:0A:00:00:00:00;1727136263;24/09/24;00:04:23;1.01;-0.005;0.162;-0.05497787147760391;-0.03420845419168472;-0.02932153083384037
01:00:0A:00:00:00:00;1727136264;24/09/24;00:04:24;1.034;-0.017;0.169;-0.05864306166768074;-0.01710422709584236;-0.0024434609804302454
01:00:0A:00:00:00:00;1727136265;24/09/24;00:04:25;1.024;-0.011;0.171;-0.05742133408784866;-0.0036651913542300463;0.00855211354792118
01:00:0A:00:00:00:00;1727136266;24/09/24;00:04:26;1.003;-0.001;0.17;-0.05619959905743599;-0.00855211354792118;0.0
01:00:0A:00:00:00:00;1727136267;24/09/24;00:04:27;0.999;-0.005;0.162;-0.05009094998240471;-0.00855211354792118;-0.010995574295520782
01:00:0A:00:00:00:00;1727136268;24/09/24;00:04:28;1.004;-0.013;0.165;-0.04398229718208313;0.0036651913542300463;-0.02321287989616394
01:00:0A:00:00:00:00;1727136269;24/09/24;00:04:29;1.003;-0.017;0.157;-0.04642575979232788;-0.013439035043120384;0.0036651913542300463
01:00:0A:00:00:00:00;1727136270;24/09/24;00:04:30;1.002;-0.009;0.157;-0.045204028487205505;-0.03176499158143997;0.0036651913542300463
01:00:0A:00:00:00:00;1727136271;24/09/24;00:04:31;1.004;-0.008;0.169;-0.04153883829712868;0.0;-0.0012217304902151227
01:00:0A:00:00:00:00;1727136272;24/09/24;00:04:32;1.006;-0.008;0.163;-0.039095375686883926;-0.0036651913542300463;-0.006108652334660292
01:00:0A:00:00:00:00;1727136273;24/09/24;00:04:33;1.011;-0.014;0.155;-0.040317103266716;-0.018325956538319588;0.0024434609804302454
01:00:0A:00:00:00:00;1727136274;24/09/24;00:04:34;1.009;-0.005;0.165;-0.040317103266716;-0.02687807008624077;0.004886921960860491
01:00:0A:00:00:00:00;1727136275;24/09/24;00:04:35;1.007;-0.005;0.171;-0.03787364438176155;-0.01710422709584236;-0.0036651913542300463
01:00:0A:00:00:00:00;1727136276;24/09/24;00:04:36;1.011;-0.004;0.174;-0.0354301817715168;0.014660765416920185;-0.0012217304902151227
01:00:0A:00:00:00:00;1727136277;24/09/24;00:04:37;1.01;-0.008;0.156;-0.03176499158143997;0.00855211354792118;-0.014660765416920185
01:00:0A:00:00:00:00;1727136278;24/09/24;00:04:38;1.007;-0.01;0.155;-0.03420845419168472;-0.02321287989616394;0.0024434609804302454
01:00:0A:00:00:00:00;1727136279;24/09/24;00:04:39;1.004;-0.006;0.159;-0.03298672288656235;-0.040317103266716;-0.0036651913542300463
01:00:0A:00:00:00:00;1727136280;24/09/24;00:04:40;1.009;-0.059;0.157;0.17837265133857727;0.012217304669320583;0.06230825558304787
01:00:0A:00:00:00:00;1727136281;24/09/24;00:04:41;1.008;-0.021;0.178;0.36651912331581116;0.010995574295520782;0.025656338781118393
01:00:0A:00:00:00:00;1727136282;24/09/24;00:04:42;1.007;-0.004;0.146;0.3347541391849518;-0.04398229718208313;-0.0012217304902151227
01:00:0A:00:00:00:00;1727136283;24/09/24;00:04:43;1.005;-0.018;0.158;0.29688048362731934;0.04642575979232788;0.0757472887635231
01:00:0A:00:00:00:00;1727136284;24/09/24;00:04:44;1.004;-0.01;0.179;0.27000245451927185;-0.02932153083384037;0.05375614017248154
01:00:0A:00:00:00:00;1727136285;24/09/24;00:04:45;1.008;-0.005;0.143;0.251676470041275;-0.0354301817715168;0.04398229718208313
01:00:0A:00:00:00:00;1727136286;24/09/24;00:04:46;1.009;-0.009;0.161;0.251676470041275;0.02687807008624077;0.01710422709584236
01:00:0A:00:00:00:00;1727136287;24/09/24;00:04:47;1.008;-0.006;0.179;0.21868975460529327;-0.0354301817715168;0.042760565876960754
01:00:0A:00:00:00:00;1727136288;24/09/24;00:04:48;1.012;-0.019;0.153;0.20891590416431427;-0.0036651913542300463;0.04886921867728233
01:00:0A:00:00:00:00;1727136289;24/09/24;00:04:49;1.01;-0.006;0.161;0.21135938167572021;0.01710422709584236;0.014660765416920185
01:00:0A:00:00:00:00;1727136290;24/09/24;00:04:50;1.01;0.001;0.162;0.18448130786418915;-0.0354301817715168;0.03787364438176155
01:00:0A:00:00:00:00;1727136291;24/09/24;00:04:51;1.008;-0.022;0.164;0.1771509200334549;-0.02076941914856434;0.036651913076639175
01:00:0A:00:00:00:00;1727136292;24/09/24;00:04:52;1.005;-0.003;0.172;0.1771509200334549;0.0024434609804302454;0.006108652334660292
01:00:0A:00:00:00:00;1727136293;24/09/24;00:04:53;1.003;-0.003;0.162;0.15515977144241333;0.0012217304902151227;0.040317103266716
01:00:0A:00:00:00:00;1727136294;24/09/24;00:04:54;0.999;-0.018;0.158;0.1514945775270462;0.0;0.02321287989616394
01:00:0A:00:00:00:00;1727136295;24/09/24;00:04:55;1.001;-0.003;0.161;0.14905111491680145;-0.02076941914856434;-0.0024434609804302454
01:00:0A:00:00:00:00;1727136296;24/09/24;00:04:56;1.01;-0.003;0.161;0.12828169763088226;-0.012217304669320583;0.042760565876960754
01:00:0A:00:00:00:00;1727136297;24/09/24;00:04:57;1.011;-0.016;0.171;0.12950342893600464;-0.0073303827084600925;0.009773843921720982
01:00:0A:00:00:00:00;1727136298;24/09/24;00:04:58;1.015;-0.004;0.16;0.12461651116609573;-0.015882495790719986;0.0012217304902151227
01:00:0A:00:00:00:00;1727136299;24/09/24;00:04:59;1.011;-0.01;0.162;0.10873401165008545;-0.0024434609804302454;0.036651913076639175
01:00:0A:00:00:00:00;1727136300;24/09/24;00:05:00;1.01;-0.016;0.165;0.10873401165008545;-0.00855211354792118;0.015882495790719986
01:00:0A:00:00:00:00;1727136301;24/09/24;00:05:01;1.013;-0.002;0.156;0.10384709388017654;-0.00855211354792118;0.015882495790719986
01:00:0A:00:00:00:00;1727136302;24/09/24;00:05:02;1.011;-0.01;0.162;0.09773843735456467;-0.0024434609804302454;0.028099799528717995
01:00:0A:00:00:00:00;1727136303;24/09/24;00:05:03;1.007;-0.009;0.163;0.09773843735456467;-0.018325956538319588;0.009773843921720982
01:00:0A:00:00:00:00;1727136304;24/09/24;00:05:04;0.998;-0.005;0.158;0.09407324343919754;-0.006108652334660292;0.013439035043120384
01:00:0A:00:00:00:00;1727136305;24/09/24;00:05:05;0.997;-0.009;0.16;0.09162978082895279;-0.0012217304902151227;0.01710422709584236
01:00:0A:00:00:00:00;1727136306;24/09/24;00:05:06;0.998;-0.009;0.162;0.09040805697441101;-0.02076941914856434;0.0036651913542300463
01:00:0A:00:00:00:00;1727136307;24/09/24;00:05:07;1.013;-0.007;0.16;0.08552113175392151;-0.02076941914856434;0.00855211354792118
01:00:0A:00:00:00:00;1727136308;24/09/24;00:05:08;1.016;-0.012;0.166;0.08185594528913498;-0.012217304669320583;0.018325956538319588
01:00:0A:00:00:00:00;1727136309;24/09/24;00:05:09;1.019;-0.009;0.168;0.07941248267889023;-0.010995574295520782;0.012217304669320583
01:00:0A:00:00:00:00;1727136310;24/09/24;00:05:10;1.016;-0.011;0.162;0.0757472887635231;-0.0012217304902151227;0.015882495790719986
01:00:0A:00:00:00:00;1727136311;24/09/24;00:05:11;1.006;-0.01;0.162;0.07452555745840073;0.004886921960860491;0.018325956538319588
01:00:0A:00:00:00:00;1727136312;24/09/24;00:05:12;1.003;-0.011;0.16;0.06963863223791122;-0.018325956538319588;0.015882495790719986
01:00:0A:00:00:00:00;1727136313;24/09/24;00:05:13;0.998;-0.009;0.158;0.06841690838336945;-0.013439035043120384;0.015882495790719986
01:00:0A:00:00:00:00;1727136314;24/09/24;00:05:14;1.004;-0.007;0.163;0.06719517707824707;-0.0036651913542300463;0.009773843921720982
01:00:0A:00:00:00:00;1727136315;24/09/24;00:05:15;1.007;-0.009;0.161;0.06352998316287994;-0.019547687843441963;0.0024434609804302454
01:00:0A:00:00:00:00;1727136316;24/09/24;00:05:16;1.012;-0.011;0.162;0.06108652427792549;-0.00855211354792118;0.009773843921720982
01:00:0A:00:00:00:00;1727136317;24/09/24;00:05:17;1.013;-0.01;0.163;0.05619959905743599;-0.006108652334660292;0.015882495790719986
01:00:0A:00:00:00:00;1727136318;24/09/24;00:05:18;1.009;-0.01;0.161;0.05497787147760391;-0.010995574295520782;0.009773843921720982
01:00:0A:00:00:00:00;1727136319;24/09/24;00:05:19;1.011;-0.008;0.159;0.05375614017248154;-0.009773843921720982;0.010995574295520782
01:00:0A:00:00:00:00;1727136320;24/09/24;00:05:20;1.006;-0.01;0.165;0.05253440886735916;-0.013439035043120384;0.00855211354792118
01:00:0A:00:00:00:00;1727136321;24/09/24;00:05:21;1.002;-0.009;0.165;0.05009094998240471;-0.010995574295520782;0.0073303827084600925
01:00:0A:00:00:00:00;1727136322;24/09/24;00:05:22;1.005;-0.011;0.163;0.04886921867728233;0.0036651913542300463;0.010995574295520782
01:00:0A:00:00:00:00;1727136323;24/09/24;00:05:23;1.008;-0.01;0.158;0.04764748737215996;-0.00855211354792118;0.0073303827084600925
01:00:0A:00:00:00:00;1727136324;24/09/24;00:05:24;1.008;-0.006;0.158;0.045204028487205505;-0.021991148591041565;0.004886921960860491
01:00:0A:00:00:00:00;1727136325;24/09/24;00:05:25;1.008;-0.012;0.162;0.04398229718208313;-0.02076941914856434;0.009773843921720982
01:00:0A:00:00:00:00;1727136326;24/09/24;00:05:26;1.009;-0.007;0.168;0.042760565876960754;-0.010995574295520782;0.010995574295520782
01:00:0A:00:00:00:00;1727136327;24/09/24;00:05:27;1.011;-0.011;0.163;0.04153883829712868;-0.004886921960860491;0.010995574295520782
01:00:0A:00:00:00:00;1727136328;24/09/24;00:05:28;1.01;-0.01;0.161;0.04153883829712868;-0.0024434609804302454;0.013439035043120384
01:00:0A:00:00:00:00;1727136329;24/09/24;00:05:29;1.01;-0.006;0.162;0.042760565876960754;-0.018325956538319588;0.006108652334660292
01:00:0A:00:00:00:00;1727136330;24/09/24;00:05:30;1.005;-0.013;0.164;0.04153883829712868;-0.01710422709584236;0.010995574295520782
01:00:0A:00:00:00:00;1727136331;24/09/24;00:05:31;1.004;-0.007;0.164;0.04398229718208313;-0.004886921960860491;0.00855211354792118
01:00:0A:00:00:00:00;1727136332;24/09/24;00:05:32;1.005;-0.01;0.161;0.04398229718208313;-0.004886921960860491;0.0073303827084600925
01:00:0A:00:00:00:00;1727136333;24/09/24;00:05:33;1.009;-0.01;0.158;0.04398229718208313;-0.018325956538319588;0.00855211354792118
01:00:0A:00:00:00:00;1727136334;24/09/24;00:05:34;1.011;-0.009;0.163;0.045204028487205505;-0.02076941914856434;0.0073303827084600925
01:00:0A:00:00:00:00;1727136335;24/09/24;00:05:35;1.012;-0.01;0.166;0.04398229718208313;-0.014660765416920185;0.013439035043120384
01:00:0A:00:00:00:00;1727136336;24/09/24;00:05:36;1.009;-0.008;0.164;0.04764748737215996;0.0036651913542300463;0.004886921960860491
01:00:0A:00:00:00:00;1727136337;24/09/24;00:05:37;1.007;-0.014;0.157;0.04642575979232788;0.0;0.009773843921720982
01:00:0A:00:00:00:00;1727136338;24/09/24;00:05:38;1.004;-0.008;0.157;0.04642575979232788;-0.018325956538319588;0.006108652334660292
01:00:0A:00:00:00:00;1727136339;24/09/24;00:05:39;1.005;-0.012;0.162;0.04398229718208313;-0.028099799528717995;0.012217304669320583
01:00:0A:00:00:00:00;1727136340;24/09/24;00:05:40;1.004;-0.008;0.167;0.04398229718208313;-0.013439035043120384;0.010995574295520782
01:00:0A:00:00:00:00;1727136341;24/09/24;00:05:41;1.009;-0.008;0.163;0.04642575979232788;-0.0012217304902151227;-0.0024434609804302454
01:00:0A:00:00:00:00;1727136342;24/09/24;00:05:42;1.011;-0.014;0.16;0.04153883829712868;-0.0036651913542300463;0.009773843921720982
01:00:0A:00:00:00:00;1727136343;24/09/24;00:05:43;1.009;-0.009;0.159;0.040317103266716;-0.019547687843441963;0.0073303827084600925
01:00:0A:00:00:00:00;1727136344;24/09/24;00:05:44;1.011;-0.009;0.164;0.039095375686883926;-0.018325956538319588;0.0073303827084600925
01:00:0A:00:00:00:00;1727136345;24/09/24;00:05:45;1.008;-0.009;0.166;0.0354301817715168;-0.0073303827084600925;0.010995574295520782
01:00:0A:00:00:00:00;1727136346;24/09/24;00:05:46;1.006;-0.009;0.164;0.0354301817715168;0.0012217304902151227;0.006108652334660292
01:00:0A:00:00:00:00;1727136347;24/09/24;00:05:47;1.004;-0.01;0.16;0.03176499158143997;-0.009773843921720982;0.0073303827084600925
01:00:0A:00:00:00:00;1727136348;24/09/24;00:05:48;1.006;-0.009;0.161;0.030543262138962746;-0.018325956538319588;0.0024434609804302454
01:00:0A:00:00:00:00;1727136349;24/09/24;00:05:49;1.009;-0.009;0.165;0.025656338781118393;-0.015882495790719986;0.009773843921720982
01:00:0A:00:00:00:00;1727136350;24/09/24;00:05:50;1.009;-0.008;0.165;0.025656338781118393;-0.006108652334660292;0.0024434609804302454
01:00:0A:00:00:00:00;1727136351;24/09/24;00:05:51;1.009;-0.011;0.161;0.02076941914856434;-0.00855211354792118;0.004886921960860491
01:00:0A:00:00:00:00;1727136352;24/09/24;00:05:52;1.007;-0.007;0.162;0.018325956538319588;-0.010995574295520782;0.006108652334660292
01:00:0A:00:00:00:00;1727136353;24/09/24;00:05:53;1.009;-0.009;0.163;0.014660765416920185;-0.01710422709584236;0.004886921960860491
01:00:0A:00:00:00:00;1727136354;24/09/24;00:05:54;1.009;-0.007;0.165;0.012217304669320583;-0.0073303827084600925;0.0073303827084600925
01:00:0A:00:00:00:00;1727136355;24/09/24;00:05:55;1.004;-0.008;0.163;0.010995574295520782;-0.0073303827084600925;0.0012217304902151227
01:00:0A:00:00:00:00;1727136356;24/09/24;00:05:56;1.004;-0.009;0.161;0.009773843921720982;-0.0073303827084600925;0.0012217304902151227
01:00:0A:00:00:00:00;1727136357;24/09/24;00:05:57;1.006;-0.008;0.162;0.0073303827084600925;-0.018325956538319588;0.0036651913542300463
01:00:0A:00:00:00:00;1727136358;24/09/24;00:05:58;1.011;-0.006;0.165;0.006108652334660292;-0.012217304669320583;0.0024434609804302454
01:00:0A:00:00:00:00;1727136359;24/09/24;00:05:59;1.012;-0.008;0.165;0.0036651913542300463;-0.0073303827084600925;0.004886921960860491
01:00:0A:00:00:00:00;1727136360;24/09/24;00:06:00;1.009;-0.009;0.16;0.06108652427792549;-0.02076941914856434;0.015882495790719986
01:00:0A:00:00:00:00;1727136361;24/09/24;00:06:01;1.006;-0.016;0.142;0.2125810980796814;-0.02687807008624077;0.03298672288656235
01:00:0A:00:00:00:00;1727136362;24/09/24;00:06:02;1.01;-0.018;0.135;0.5143485069274902;-0.021991148591041565;0.06108652427792549
01:00:0A:00:00:00:00;1727136363;24/09/24;00:06:03;1.013;-0.014;0.152;0.6255260109901428;0.040317103266716;0.05253440886735916
01:00:0A:00:00:00:00;1727136364;24/09/24;00:06:04;1.007;0.016;0.176;0.5656611919403076;0.004886921960860491;0.09040805697441101
01:00:0A:00:00:00:00;1727136365;24/09/24;00:06:05;1.005;-0.032;0.168;0.5204571485519409;-0.009773843921720982;0.12339477241039276
01:00:0A:00:00:00:00;1727136366;24/09/24;00:06:06;1.003;-0.015;0.16;0.5265658497810364;-0.03298672288656235;0.024434609338641167
01:00:0A:00:00:00:00;1727136367;24/09/24;00:06:07;1.006;0.005;0.149;0.4948008358478546;0.018325956538319588;0.08185594528913498
01:00:0A:00:00:00:00;1727136368;24/09/24;00:06:08;1.007;-0.013;0.185;0.4703662395477295;0.00855211354792118;0.08185594528913498
01:00:0A:00:00:00:00;1727136369;24/09/24;00:06:09;1.011;-0.011;0.16;0.4508185386657715;-0.04886921867728233;0.06352998316287994
01:00:0A:00:00:00:00;1727136370;24/09/24;00:06:10;1.011;-0.014;0.148;0.4495967924594879;0.012217304669320583;0.051312677562236786
01:00:0A:00:00:00:00;1727136371;24/09/24;00:06:11;1.005;0.003;0.175;0.42638394236564636;0.0036651913542300463;0.059864792972803116
01:00:0A:00:00:00:00;1727136372;24/09/24;00:06:12;1.008;-0.015;0.162;0.3995058536529541;-0.02321287989616394;0.08674286305904388
01:00:0A:00:00:00:00;1727136373;24/09/24;00:06:13;1.007;-0.018;0.161;0.4056144952774048;-0.004886921960860491;0.036651913076639175
01:00:0A:00:00:00:00;1727136374;24/09/24;00:06:14;1.008;0.004;0.16;0.38728854060173035;-0.006108652334660292;0.05253440886735916
01:00:0A:00:00:00:00;1727136375;24/09/24;00:06:15;1.008;-0.015;0.167;0.36651912331581116;0.0012217304902151227;0.080634206533432
01:00:0A:00:00:00:00;1727136376;24/09/24;00:06:16;1.007;-0.014;0.166;0.36529743671417236;-0.025656338781118393;0.03298672288656235
01:00:0A:00:00:00:00;1727136377;24/09/24;00:06:17;1.009;-0.004;0.153;0.35185837745666504;-0.0073303827084600925;0.051312677562236786
01:00:0A:00:00:00:00;1727136378;24/09/24;00:06:18;1.008;-0.012;0.172;0.34086278080940247;0.009773843921720982;0.05375614017248154
01:00:0A:00:00:00:00;1727136379;24/09/24;00:06:19;1.007;-0.01;0.166;0.32498031854629517;-0.030543262138962746;0.05253440886735916
01:00:0A:00:00:00:00;1727136380;24/09/24;00:06:20;1.009;-0.011;0.155;0.322536826133728;0.0012217304902151227;0.042760565876960754
01:00:0A:00:00:00:00;1727136381;24/09/24;00:06:21;1.006;-0.005;0.17;0.3127630054950714;0.0012217304902151227;0.040317103266716
01:00:0A:00:00:00:00;1727136382;24/09/24;00:06:22;1.008;-0.008;0.164;0.294437050819397;-0.025656338781118393;0.05742133408784866
01:00:0A:00:00:00:00;1727136383;24/09/24;00:06:23;1.007;-0.017;0.162;0.294437050819397;-0.0012217304902151227;0.0354301817715168
01:00:0A:00:00:00:00;1727136384;24/09/24;00:06:24;1.008;-0.002;0.163;0.28588491678237915;-0.0036651913542300463;0.03298672288656235
01:00:0A:00:00:00:00;1727136385;24/09/24;00:06:25;1.007;-0.011;0.162;0.27000245451927185;-0.012217304669320583;0.05375614017248154
01:00:0A:00:00:00:00;1727136386;24/09/24;00:06:26;1.008;-0.015;0.164;0.2687807083129883;-0.009773843921720982;0.03420845419168472
01:00:0A:00:00:00:00;1727136387;24/09/24;00:06:27;1.01;-0.003;0.161;0.2590068578720093;-0.010995574295520782;0.039095375686883926
01:00:0A:00:00:00:00;1727136388;24/09/24;00:06:28;1.006;-0.01;0.165;0.24923302233219147;-0.0036651913542300463;0.04764748737215996
01:00:0A:00:00:00:00;1727136389;24/09/24;00:06:29;1.008;-0.011;0.164;0.2480112910270691;-0.014660765416920185;0.021991148591041565
01:00:0A:00:00:00:00;1727136390;24/09/24;00:06:30;1.007;-0.007;0.161;0.2382374405860901;-0.00855211354792118;0.036651913076639175
01:00:0A:00:00:00:00;1727136391;24/09/24;00:06:31;1.007;-0.012;0.166;0.23090705275535583;0.0;0.039095375686883926
01:00:0A:00:00:00:00;1727136392;24/09/24;00:06:32;1.008;-0.009;0.163;0.22357667982578278;-0.015882495790719986;0.0354301817715168
01:00:0A:00:00:00:00;1727136393;24/09/24;00:06:33;1.008;-0.007;0.16;0.21991148591041565;-0.009773843921720982;0.030543262138962746
01:00:0A:00:00:00:00;1727136394;24/09/24;00:06:34;1.006;-0.01;0.168;0.21380282938480377;-0.0073303827084600925;0.030543262138962746
01:00:0A:00:00:00:00;1727136395;24/09/24;00:06:35;1.007;-0.007;0.164;0.20647244155406952;-0.019547687843441963;0.03176499158143997
01:00:0A:00:00:00:00;1727136396;24/09/24;00:06:36;1.009;-0.011;0.162;0.2028072476387024;-0.0012217304902151227;0.02932153083384037
01:00:0A:00:00:00:00;1727136397;24/09/24;00:06:37;1.007;-0.005;0.164;0.1966986060142517;-0.006108652334660292;0.028099799528717995
01:00:0A:00:00:00:00;1727136398;24/09/24;00:06:38;1.008;-0.009;0.162;0.19058994948863983;-0.01710422709584236;0.03298672288656235
01:00:0A:00:00:00:00;1727136399;24/09/24;00:06:39;1.007;-0.01;0.162;0.18814648687839508;-0.00855211354792118;0.030543262138962746
01:00:0A:00:00:00:00;1727136400;24/09/24;00:06:40;1.008;-0.003;0.163;0.18570303916931152;-0.00855211354792118;0.024434609338641167
01:00:0A:00:00:00:00;1727136401;24/09/24;00:06:41;1.007;-0.01;0.163;0.17837265133857727;-0.010995574295520782;0.02932153083384037
01:00:0A:00:00:00:00;1727136402;24/09/24;00:06:42;1.007;-0.012;0.161;0.17959438264369965;-0.0073303827084600925;0.02321287989616394
01:00:0A:00:00:00:00;1727136403;24/09/24;00:06:43;1.007;-0.008;0.163;0.1722639948129654;-0.012217304669320583;0.030543262138962746
01:00:0A:00:00:00:00;1727136404;24/09/24;00:06:44;1.007;-0.01;0.162;0.16982054710388184;-0.00855211354792118;0.030543262138962746
01:00:0A:00:00:00:00;1727136405;24/09/24;00:06:45;1.007;-0.008;0.162;0.16859880089759827;-0.009773843921720982;0.02076941914856434
01:00:0A:00:00:00:00;1727136406;24/09/24;00:06:46;1.008;-0.008;0.163;0.16493360698223114;-0.009773843921720982;0.021991148591041565
01:00:0A:00:00:00:00;1727136407;24/09/24;00:06:47;1.008;-0.013;0.163;0.16004669666290283;-0.009773843921720982;0.030543262138962746
01:00:0A:00:00:00:00;1727136408;24/09/24;00:06:48;1.007;-0.008;0.163;0.15882496535778046;-0.0073303827084600925;0.02321287989616394
01:00:0A:00:00:00:00;1727136409;24/09/24;00:06:49;1.01;-0.008;0.16;0.15393804013729095;-0.010995574295520782;0.02687807008624077
01:00:0A:00:00:00:00;1727136410;24/09/24;00:06:50;1.009;-0.009;0.162;0.15271630883216858;-0.012217304669320583;0.021991148591041565
01:00:0A:00:00:00:00;1727136411;24/09/24;00:06:51;1.008;-0.009;0.164;0.15027284622192383;-0.012217304669320583;0.02076941914856434
01:00:0A:00:00:00:00;1727136412;24/09/24;00:06:52;1.006;-0.01;0.163;0.14538592100143433;-0.0073303827084600925;0.025656338781118393
01:00:0A:00:00:00:00;1727136413;24/09/24;00:06:53;1.008;-0.008;0.164;0.14294245839118958;-0.004886921960860491;0.02321287989616394
01:00:0A:00:00:00:00;1727136414;24/09/24;00:06:54;1.006;-0.011;0.161;0.13927726447582245;-0.013439035043120384;0.02076941914856434
01:00:0A:00:00:00:00;1727136415;24/09/24;00:06:55;1.007;-0.008;0.162;0.1368338167667389;-0.010995574295520782;0.021991148591041565
01:00:0A:00:00:00:00;1727136416;24/09/24;00:06:56;1.009;-0.009;0.165;0.13316862285137177;-0.009773843921720982;0.02076941914856434
01:00:0A:00:00:00:00;1727136417;24/09/24;00:06:57;1.008;-0.009;0.162;0.12950342893600464;-0.00855211354792118;0.019547687843441963
01:00:0A:00:00:00:00;1727136418;24/09/24;00:06:58;1.008;-0.008;0.162;0.12461651116609573;-0.00855211354792118;0.019547687843441963
01:00:0A:00:00:00:00;1727136419;24/09/24;00:06:59;1.007;-0.01;0.164;0.11972958594560623;-0.010995574295520782;0.02076941914856434
01:00:0A:00:00:00:00;1727136420;24/09/24;00:07:00;1.008;-0.008;0.162;0.11484266817569733;-0.013439035043120384;0.018325956538319588
01:00:0A:00:00:00:00;1727136421;24/09/24;00:07:01;1.007;-0.009;0.164;0.11239919811487198;-0.006108652334660292;0.018325956538319588
01:00:0A:00:00:00:00;1727136422;24/09/24;00:07:02;1.007;-0.009;0.163;0.10873401165008545;-0.010995574295520782;0.015882495790719986
01:00:0A:00:00:00:00;1727136423;24/09/24;00:07:03;1.007;-0.011;0.162;0.10506881773471832;-0.009773843921720982;0.015882495790719986
01:00:0A:00:00:00:00;1727136424;24/09/24;00:07:04;1.006;-0.01;0.164;0.1014036238193512;-0.010995574295520782;0.018325956538319588
01:00:0A:00:00:00:00;1727136425;24/09/24;00:07:05;1.008;-0.007;0.164;0.09896016865968704;-0.010995574295520782;0.014660765416920185
01:00:0A:00:00:00:00;1727136426;24/09/24;00:07:06;1.007;-0.009;0.163;0.09651670604944229;-0.00855211354792118;0.01710422709584236
01:00:0A:00:00:00:00;1727136427;24/09/24;00:07:07;1.007;-0.008;0.163;0.09529497474431992;-0.009773843921720982;0.013439035043120384
01:00:0A:00:00:00:00;1727136428;24/09/24;00:07:08;1.008;-0.01;0.162;0.09285151958465576;-0.010995574295520782;0.015882495790719986
01:00:0A:00:00:00:00;1727136429;24/09/24;00:07:09;1.007;-0.01;0.163;0.09040805697441101;-0.010995574295520782;0.015882495790719986
01:00:0A:00:00:00:00;1727136430;24/09/24;00:07:10;1.009;-0.009;0.163;0.08918632566928864;-0.010995574295520782;0.014660765416920185
01:00:0A:00:00:00:00;1727136431;24/09/24;00:07:11;1.007;-0.009;0.164;0.08796459436416626;-0.009773843921720982;0.013439035043120384
01:00:0A:00:00:00:00;1727136432;24/09/24;00:07:12;1.007;-0.011;0.162;0.08674286305904388;-0.010995574295520782;0.014660765416920185
01:00:0A:00:00:00:00;1727136433;24/09/24;00:07:13;1.007;-0.008;0.162;0.08552113175392151;-0.00855211354792118;0.013439035043120384
01:00:0A:00:00:00:00;1727136434;24/09/24;00:07:14;1.008;-0.008;0.162;0.08307767659425735;-0.010995574295520782;0.014660765416920185
01:00:0A:00:00:00:00;1727136435;24/09/24;00:07:15;1.008;-0.009;0.162;0.08307767659425735;-0.010995574295520782;0.013439035043120384
01:00:0A:00:00:00:00;1727136436;24/09/24;00:07:16;1.007;-0.009;0.163;0.080634206533432;-0.010995574295520782;0.013439035043120384
01:00:0A:00:00:00:00;1727136437;24/09/24;00:07:17;1.009;-0.009;0.163;0.07819075137376785;-0.010995574295520782;0.013439035043120384
01:00:0A:00:00:00:00;1727136438;24/09/24;00:07:18;1.008;-0.01;0.163;0.0757472887635231;-0.00855211354792118;0.013439035043120384
01:00:0A:00:00:00:00;1727136439;24/09/24;00:07:19;1.007;-0.009;0.162;0.07330382615327835;-0.010995574295520782;0.012217304669320583
01:00:0A:00:00:00:00;1727136440;24/09/24;00:07:20;1.008;-0.009;0.162;0.0708603635430336;-0.009773843921720982;0.012217304669320583
01:00:0A:00:00:00:00;1727136441;24/09/24;00:07:21;1.007;-0.009;0.164;0.06963863223791122;-0.010995574295520782;0.012217304669320583
01:00:0A:00:00:00:00;1727136442;24/09/24;00:07:22;1.008;-0.009;0.163;0.06719517707824707;-0.010995574295520782;0.013439035043120384
01:00:0A:00:00:00:00;1727136443;24/09/24;00:07:23;1.008;-0.009;0.163;0.06475171446800232;-0.010995574295520782;0.010995574295520782
01:00:0A:00:00:00:00;1727136444;24/09/24;00:07:24;1.008;-0.009;0.163;0.06352998316287994;-0.009773843921720982;0.010995574295520782
01:00:0A:00:00:00:00;1727136445;24/09/24;00:07:25;1.008;-0.009;0.163;0.06230825558304787;-0.010995574295520782;0.010995574295520782
01:00:0A:00:00:00:00;1727136446;24/09/24;00:07:26;1.007;-0.009;0.163;0.05864306166768074;-0.009773843921720982;0.010995574295520782
01:00:0A:00:00:00:00;1727136447;24/09/24;00:07:27;1.008;-0.01;0.162;0.05742133408784866;-0.010995574295520782;0.010995574295520782
01:00:0A:00:00:00:00;1727136448;24/09/24;00:07:28;1.007;-0.009;0.163;0.05619959905743599;-0.010995574295520782;0.009773843921720982
01:00:0A:00:00:00:00;1727136449;24/09/24;00:07:29;1.007;-0.008;0.163;0.05375614017248154;-0.010995574295520782;0.009773843921720982
01:00:0A:00:00:00:00;1727136450;24/09/24;00:07:30;1.009;-0.009;0.163;0.05253440886735916;-0.009773843921720982;0.009773843921720982
01:00:0A:00:00:00:00;1727136451;24/09/24;00:07:31;1.008;-0.008;0.162;0.05009094998240471;-0.010995574295520782;0.009773843921720982
01:00:0A:00:00:00:00;1727136452;24/09/24;00:07:32;1.007;-0.008;0.162;0.04886921867728233;-0.010995574295520782;0.009773843921720982
01:00:0A:00:00:00:00;1727136453;24/09/24;00:07:33;1.008;-0.008;0.162;0.04764748737215996;-0.010995574295520782;0.00855211354792118
01:00:0A:00:00:00:00;1727136454;24/09/24;00:07:34;1.007;-0.008;0.162;0.04642575979232788;-0.010995574295520782;0.009773843921720982
01:00:0A:00:00:00:00;1727136455;24/09/24;00:07:35;1.009;-0.009;0.163;0.04398229718208313;-0.010995574295520782;0.00855211354792118
01:00:0A:00:00:00:00;1727136456;24/09/24;00:07:36;1.007;-0.009;0.162;0.042760565876960754;-0.009773843921720982;0.00855211354792118
01:00:0A:00:00:00:00;1727136457;24/09/24;00:07:37;1.007;-0.01;0.162;0.04153883829712868;-0.010995574295520782;0.00855211354792118
01:00:0A:00:00:00:00;1727136458;24/09/24;00:07:38;1.008;-0.009;0.162;0.040317103266716;-0.009773843921720982;0.0073303827084600925
01:00:0A:00:00:00:00;1727136459;24/09/24;00:07:39;1.009;-0.009;0.162;0.039095375686883926;-0.012217304669320583;0.00855211354792118
01:00:0A:00:00:00:00;1727136460;24/09/24;00:07:40;1.006;-0.009;0.162;0.03787364438176155;-0.010995574295520782;0.0073303827084600925
01:00:0A:00:00:00:00;1727136461;24/09/24;00:07:41;1.007;-0.008;0.162;0.036651913076639175;-0.009773843921720982;0.00855211354792118
01:00:0A:00:00:00:00;1727136462;24/09/24;00:07:42;1.007;-0.009;0.162;0.0354301817715168;-0.009773843921720982;0.006108652334660292
01:00:0A:00:00:00:00;1727136463;24/09/24;00:07:43;1.008;-0.009;0.162;0.03420845419168472;-0.012217304669320583;0.0073303827084600925
01:00:0A:00:00:00:00;1727136464;24/09/24;00:07:44;1.008;-0.009;0.162;0.03298672288656235;-0.010995574295520782;0.0073303827084600925
01:00:0A:00:00:00:00;1727136465;24/09/24;00:07:45;1.008;-0.009;0.162;0.03298672288656235;-0.010995574295520782;0.0073303827084600925
01:00:0A:00:00:00:00;1727136466;24/09/24;00:07:46;1.008;-0.009;0.163;0.03176499158143997;-0.009773843921720982;0.0073303827084600925
01:00:0A:00:00:00:00;1727136467;24/09/24;00:07:47;1.005;0.037;0.167;-0.13439035415649414;-0.010995574295520782;-0.04398229718208313
01:00:0A:00:00:00:00;1727136468;24/09/24;00:07:48;1.008;0.033;0.159;-0.2993239760398865;-0.04764748737215996;0.0012217304902151227
01:00:0A:00:00:00:00;1727136469;24/09/24;00:07:49;1.009;-0.027;0.145;-0.3090977966785431;-0.006108652334660292;0.009773843921720982
01:00:0A:00:00:00:00;1727136470;24/09/24;00:07:50;1.006;-0.021;0.172;-0.2577851116657257;0.028099799528717995;-0.0757472887635231
01:00:0A:00:00:00:00;1727136471;24/09/24;00:07:51;1.006;0.01;0.173;-0.2687807083129883;-0.05375614017248154;-0.039095375686883926
01:00:0A:00:00:00:00;1727136472;24/09/24;00:07:52;1.01;-0.011;0.141;-0.26511549949645996;-0.02321287989616394;-0.0024434609804302454
01:00:0A:00:00:00:00;1727136473;24/09/24;00:07:53;1.006;-0.019;0.172;-0.2321287840604782;0.02932153083384037;-0.04642575979232788
01:00:0A:00:00:00:00;1727136474;24/09/24;00:07:54;1.006;0.0;0.177;-0.23335053026676178;-0.042760565876960754;-0.04764748737215996
01:00:0A:00:00:00:00;1727136475;24/09/24;00:07:55;1.01;-0.003;0.146;-0.23579397797584534;-0.021991148591041565;-0.00855211354792118
01:00:0A:00:00:00:00;1727136476;24/09/24;00:07:56;1.006;-0.019;0.167;-0.2174680233001709;0.021991148591041565;-0.021991148591041565
01:00:0A:00:00:00:00;1727136477;24/09/24;00:07:57;1.006;-0.007;0.174;-0.20891590416431427;-0.030543262138962746;-0.05375614017248154
01:00:0A:00:00:00:00;1727136478;24/09/24;00:07:58;1.009;0.0;0.151;-0.21502456068992615;-0.02076941914856434;-0.012217304669320583
01:00:0A:00:00:00:00;1727136479;24/09/24;00:07:59;1.008;-0.02;0.164;-0.20402899384498596;0.00855211354792118;-0.010995574295520782
01:00:0A:00:00:00:00;1727136480;24/09/24;00:08:00;1.006;-0.007;0.17;-0.19058994948863983;-0.024434609338641167;-0.051312677562236786
01:00:0A:00:00:00:00;1727136481;24/09/24;00:08:01;1.009;0.002;0.157;-0.19792033731937408;-0.02076941914856434;-0.013439035043120384
01:00:0A:00:00:00:00;1727136482;24/09/24;00:08:02;1.006;-0.019;0.162;-0.18936821818351746;0.0;-0.010995574295520782
01:00:0A:00:00:00:00;1727136483;24/09/24;00:08:03;1.006;-0.009;0.168;-0.17470745742321014;-0.012217304669320583;-0.04642575979232788
01:00:0A:00:00:00:00;1727136484;24/09/24;00:08:04;1.006;0.0;0.162;-0.1820378452539444;-0.024434609338641167;-0.014660765416920185
01:00:0A:00:00:00:00;1727136485;24/09/24;00:08:05;1.008;-0.018;0.161;-0.17470745742321014;-0.006108652334660292;-0.010995574295520782
01:00:0A:00:00:00:00;1727136486;24/09/24;00:08:06;1.006;-0.01;0.168;-0.16249015927314758;-0.006108652334660292;-0.03787364438176155
01:00:0A:00:00:00:00;1727136487;24/09/24;00:08:07;1.007;-0.001;0.163;-0.16859880089759827;-0.02321287989616394;-0.010995574295520782
01:00:0A:00:00:00:00;1727136488;24/09/24;00:08:08;1.008;-0.014;0.159;-0.161268413066864;-0.00855211354792118;-0.012217304669320583
01:00:0A:00:00:00:00;1727136489;24/09/24;00:08:09;1.006;-0.008;0.167;-0.15027284622192383;-0.004886921960860491;-0.03176499158143997
01:00:0A:00:00:00:00;1727136490;24/09/24;00:08:10;1.008;-0.004;0.163;-0.15515977144241333;-0.024434609338641167;-0.014660765416920185
01:00:0A:00:00:00:00;1727136491;24/09/24;00:08:11;1.007;-0.014;0.16;-0.14905111491680145;-0.0073303827084600925;-0.012217304669320583
01:00:0A:00:00:00:00;1727136492;24/09/24;00:08:12;1.007;-0.01;0.167;-0.14049901068210602;-0.006108652334660292;-0.024434609338641167
01:00:0A:00:00:00:00;1727136493;24/09/24;00:08:13;1.008;-0.005;0.164;-0.1417207270860672;-0.021991148591041565;-0.015882495790719986
01:00:0A:00:00:00:00;1727136494;24/09/24;00:08:14;1.007;-0.011;0.159;-0.13561207056045532;-0.0073303827084600925;-0.013439035043120384
01:00:0A:00:00:00:00;1727136495;24/09/24;00:08:15;1.007;-0.01;0.166;-0.12950342893600464;-0.0073303827084600925;-0.019547687843441963
01:00:0A:00:00:00:00;1727136496;24/09/24;00:08:16;1.007;-0.007;0.163;-0.12950342893600464;-0.021991148591041565;-0.015882495790719986
01:00:0A:00:00:00:00;1727136497;24/09/24;00:08:17;1.008;-0.009;0.16;-0.12461651116609573;-0.00855211354792118;-0.010995574295520782
01:00:0A:00:00:00:00;1727136498;24/09/24;00:08:18;1.007;-0.011;0.167;-0.11972958594560623;-0.0073303827084600925;-0.01710422709584236
01:00:0A:00:00:00:00;1727136499;24/09/24;00:08:19;1.008;-0.007;0.162;-0.11728612333536148;-0.019547687843441963;-0.015882495790719986
01:00:0A:00:00:00:00;1727136500;24/09/24;00:08:20;1.009;-0.009;0.16;-0.11484266817569733;-0.00855211354792118;-0.00855211354792118
01:00:0A:00:00:00:00;1727136501;24/09/24;00:08:21;1.008;-0.011;0.165;-0.10995574295520782;-0.010995574295520782;-0.014660765416920185
01:00:0A:00:00:00:00;1727136502;24/09/24;00:08:22;1.008;-0.007;0.162;-0.10751228034496307;-0.01710422709584236;-0.015882495790719986
01:00:0A:00:00:00:00;1727136503;24/09/24;00:08:23;1.008;-0.009;0.161;-0.1062905490398407;-0.009773843921720982;-0.006108652334660292
01:00:0A:00:00:00:00;1727136504;24/09/24;00:08:24;1.007;-0.011;0.163;-0.10018189996480942;-0.009773843921720982;-0.014660765416920185
01:00:0A:00:00:00:00;1727136505;24/09/24;00:08:25;1.007;-0.007;0.162;-0.09896016865968704;-0.01710422709584236;-0.013439035043120384
01:00:0A:00:00:00:00;1727136506;24/09/24;00:08:26;1.009;-0.008;0.162;-0.09651670604944229;-0.009773843921720982;-0.006108652334660292
01:00:0A:00:00:00:00;1727136507;24/09/24;00:08:27;1.008;-0.011;0.163;-0.09162978082895279;-0.010995574295520782;-0.013439035043120384
01:00:0A:00:00:00:00;1727136508;24/09/24;00:08:28;1.008;-0.008;0.162;-0.09162978082895279;-0.014660765416920185;-0.010995574295520782
01:00:0A:00:00:00:00;1727136509;24/09/24;00:08:29;1.008;-0.009;0.162;-0.08918632566928864;-0.009773843921720982;-0.0073303827084600925
01:00:0A:00:00:00:00;1727136510;24/09/24;00:08:30;1.007;-0.01;0.162;-0.08552113175392151;-0.012217304669320583;-0.010995574295520782
01:00:0A:00:00:00:00;1727136511;24/09/24;00:08:31;1.007;-0.008;0.162;-0.08307767659425735;-0.013439035043120384;-0.010995574295520782
01:00:0A:00:00:00:00;1727136512;24/09/24;00:08:32;1.007;-0.009;0.162;-0.08307767659425735;-0.010995574295520782;-0.006108652334660292
01:00:0A:00:00:00:00;1727136513;24/09/24;00:08:33;1.007;-0.01;0.162;-0.07819075137376785;-0.012217304669320583;-0.010995574295520782
01:00:0A:00:00:00:00;1727136514;24/09/24;00:08:34;1.007;-0.007;0.162;-0.07696902006864548;-0.012217304669320583;-0.00855211354792118
01:00:0A:00:00:00:00;1727136515;24/09/24;00:08:35;1.008;-0.01;0.162;-0.0757472887635231;-0.013439035043120384;-0.006108652334660292
01:00:0A:00:00:00:00;1727136516;24/09/24;00:08:36;1.008;-0.009;0.162;-0.07208210229873657;-0.009773843921720982;-0.009773843921720982
01:00:0A:00:00:00:00;1727136517;24/09/24;00:08:37;1.008;-0.008;0.162;-0.07208210229873657;-0.013439035043120384;-0.00855211354792118
01:00:0A:00:00:00:00;1727136518;24/09/24;00:08:38;1.007;-0.01;0.163;-0.0708603635430336;-0.012217304669320583;-0.004886921960860491
01:00:0A:00:00:00:00;1727136519;24/09/24;00:08:39;1.007;-0.009;0.162;-0.06719517707824707;-0.009773843921720982;-0.009773843921720982
01:00:0A:00:00:00:00;1727136520;24/09/24;00:08:40;1.008;-0.006;0.162;-0.0659734457731247;-0.013439035043120384;-0.0073303827084600925
01:00:0A:00:00:00:00;1727136521;24/09/24;00:08:41;1.008;-0.009;0.162;-0.06475171446800232;-0.009773843921720982;-0.004886921960860491
01:00:0A:00:00:00:00;1727136522;24/09/24;00:08:42;1.007;-0.009;0.163;-0.06230825558304787;-0.012217304669320583;-0.0073303827084600925
01:00:0A:00:00:00:00;1727136523;24/09/24;00:08:43;1.007;-0.009;0.162;-0.06108652427792549;-0.012217304669320583;-0.004886921960860491
01:00:0A:00:00:00:00;1727136524;24/09/24;00:08:44;1.007;-0.008;0.162;-0.059864792972803116;-0.012217304669320583;-0.004886921960860491
01:00:0A:00:00:00:00;1727136525;24/09/24;00:08:45;1.007;-0.008;0.163;-0.05619959905743599;-0.010995574295520782;-0.00855211354792118
01:00:0A:00:00:00:00;1727136526;24/09/24;00:08:46;1.007;-0.008;0.162;-0.05619959905743599;-0.012217304669320583;-0.004886921960860491
01:00:0A:00:00:00:00;1727136527;24/09/24;00:08:47;1.008;-0.01;0.162;-0.05497787147760391;-0.012217304669320583;-0.006108652334660292
01:00:0A:00:00:00:00;1727136528;24/09/24;00:08:48;1.007;-0.007;0.163;-0.05375614017248154;-0.010995574295520782;-0.004886921960860491
01:00:0A:00:00:00:00;1727136529;24/09/24;00:08:49;1.007;-0.007;0.162;-0.05253440886735916;-0.012217304669320583;-0.004886921960860491
01:00:0A:00:00:00:00;1727136530;24/09/24;00:08:50;1.008;-0.009;0.162;-0.051312677562236786;-0.010995574295520782;-0.004886921960860491
01:00:0A:00:00:00:00;1727136531;24/09/24;00:08:51;1.008;-0.007;0.163;-0.05009094998240471;-0.010995574295520782;-0.006108652334660292
01:00:0A:00:00:00:00;1727136532;24/09/24;00:08:52;1.007;-0.008;0.163;-0.04886921867728233;-0.012217304669320583;-0.0036651913542300463
01:00:0A:00:00:00:00;1727136533;24/09/24;00:08:53;1.008;-0.009;0.162;-0.04886921867728233;-0.010995574295520782;-0.0024434609804302454
01:00:0A:00:00:00:00;1727136534;24/09/24;00:08:54;1.007;-0.008;0.163;-0.04764748737215996;-0.010995574295520782;-0.004886921960860491
01:00:0A:00:00:00:00;1727136535;24/09/24;00:08:55;1.007;-0.008;0.163;-0.04642575979232788;-0.010995574295520782;-0.0036651913542300463
01:00:0A:00:00:00:00;1727136536;24/09/24;00:08:56;1.006;-0.008;0.162;-0.04642575979232788;-0.010995574295520782;-0.0036651913542300463
01:00:0A:00:00:00:00;1727136537;24/09/24;00:08:57;1.007;-0.009;0.162;-0.045204028487205505;-0.010995574295520782;-0.004886921960860491
01:00:0A:00:00:00:00;1727136538;24/09/24;00:08:58;1.008;-0.008;0.162;-0.045204028487205505;-0.012217304669320583;-0.0036651913542300463
01:00:0A:00:00:00:00;1727136539;24/09/24;00:08:59;1.007;-0.009;0.162;-0.04398229718208313;-0.010995574295520782;-0.0036651913542300463
01:00:0A:00:00:00:00;1727136540;24/09/24;00:09:00;1.008;-0.008;0.163;-0.04398229718208313;-0.010995574295520782;-0.0036651913542300463
01:00:0A:00:00:00:00;1727136541;24/09/24;00:09:01;1.007;-0.009;0.163;-0.04398229718208313;-0.012217304669320583;-0.0036651913542300463
01:00:0A:00:00:00:00;1727136542;24/09/24;00:09:02;1.008;-0.009;0.163;-0.042760565876960754;-0.012217304669320583;-0.0036651913542300463
01:00:0A:00:00:00:00;1727136543;24/09/24;00:09:03;1.007;-0.008;0.164;-0.042760565876960754;-0.010995574295520782;-0.0036651913542300463
01:00:0A:00:00:00:00;1727136544;24/09/24;00:09:04;1.007;-0.009;0.162;-0.042760565876960754;-0.010995574295520782;-0.0036651913542300463
01:00:0A:00:00:00:00;1727136545;24/09/24;00:09:05;1.008;-0.008;0.162;-0.04153883829712868;-0.010995574295520782;-0.0024434609804302454
01:00:0A:00:00:00:00;1727136546;24/09/24;00:09:06;1.008;-0.008;0.162;-0.04153883829712868;-0.012217304669320583;-0.0036651913542300463
01:00:0A:00:00:00:00;1727136547;24/09/24;00:09:07;1.008;-0.009;0.162;-0.04153883829712868;-0.012217304669320583;-0.0024434609804302454
01:00:0A:00:00:00:00;1727136548;24/09/24;00:09:08;1.008;-0.008;0.163;-0.04153883829712868;-0.010995574295520782;-0.0036651913542300463
01:00:0A:00:00:00:00;1727136549;24/09/24;00:09:09;1.008;-0.008;0.163;-0.040317103266716;-0.010995574295520782;-0.0036651913542300463
01:00:0A:00:00:00:00;1727136550;24/09/24;00:09:10;1.007;-0.008;0.162;-0.040317103266716;-0.010995574295520782;-0.0036651913542300463
01:00:0A:00:00:00:00;1727136551;24/09/24;00:09:11;1.007;-0.009;0.162;-0.040317103266716;-0.012217304669320583;-0.0036651913542300463
01:00:0A:00:00:00:00;1727136552;24/09/24;00:09:12;1.008;-0.009;0.163;-0.040317103266716;-0.012217304669320583;-0.0036651913542300463
01:00:0A:00:00:00:00;1727136553;24/09/24;00:09:13;1.007;-0.009;0.163;-0.039095375686883926;-0.010995574295520782;-0.0024434609804302454
01:00:0A:00:00:00:00;1727136554;24/09/24;00:09:14;1.008;-0.008;0.163;-0.039095375686883926;-0.010995574295520782;-0.0024434609804302454
01:00:0A:00:00:00:00;1727136555;24/09/24;00:09:15;1.006;-0.008;0.163;-0.039095375686883926;-0.010995574295520782;-0.0024434609804302454
01:00:0A:00:00:00:00;1727136556;24/09/24;00:09:16;1.007;-0.008;0.162;-0.03787364438176155;-0.012217304669320583;-0.0024434609804302454
01:00:0A:00:00:00:00;1727136557;24/09/24;00:09:17;1.007;-0.009;0.163;-0.03787364438176155;-0.010995574295520782;-0.0024434609804302454
01:00:0A:00:00:00:00;1727136558;24/09/24;00:09:18;1.008;-0.008;0.163;-0.03787364438176155;-0.010995574295520782;-0.0024434609804302454
01:00:0A:00:00:00:00;1727136559;24/09/24;00:09:19;1.007;-0.009;0.163;-0.036651913076639175;-0.010995574295520782;-0.0024434609804302454
01:00:0A:00:00:00:00;1727136560;24/09/24;00:09:20;1.008;-0.01;0.163;-0.036651913076639175;-0.010995574295520782;-0.0024434609804302454
01:00:0A:00:00:00:00;1727136561;24/09/24;00:09:21;1.007;-0.009;0.162;-0.0354301817715168;-0.012217304669320583;-0.0024434609804302454
01:00:0A:00:00:00:00;1727136562;24/09/24;00:09:22;1.006;-0.009;0.162;-0.0354301817715168;-0.010995574295520782;-0.0024434609804302454
01:00:0A:00:00:00:00;1727136563;24/09/24;00:09:23;1.008;-0.008;0.162;-0.03420845419168472;-0.010995574295520782;-0.0024434609804302454
01:00:0A:00:00:00:00;1727136564;24/09/24;00:09:24;1.007;-0.008;0.163;-0.03420845419168472;-0.012217304669320583;-0.0024434609804302454
01:00:0A:00:00:00:00;1727136565;24/09/24;00:09:25;1.007;-0.009;0.162;-0.03298672288656235;-0.012217304669320583;-0.0024434609804302454
01:00:0A:00:00:00:00;1727136566;24/09/24;00:09:26;1.008;-0.008;0.162;-0.03176499158143997;-0.012217304669320583;-0.0024434609804302454
01:00:0A:00:00:00:00;1727136567;24/09/24;00:09:27;1.007;-0.008;0.162;-0.03176499158143997;-0.010995574295520782;-0.0012217304902151227
01:00:0A:00:00:00:00;1727136568;24/09/24;00:09:28;1.008;-0.008;0.163;-0.030543262138962746;-0.010995574295520782;-0.0012217304902151227
01:00:0A:00:00:00:00;1727136569;24/09/24;00:09:29;1.007;-0.009;0.162;-0.030543262138962746;-0.010995574295520782;-0.0024434609804302454
01:00:0A:00:00:00:00;1727136570;24/09/24;00:09:30;1.007;-0.009;0.163;-0.02932153083384037;-0.012217304669320583;-0.0024434609804302454
01:00:0A:00:00:00:00;1727136571;24/09/24;00:09:31;1.007;-0.008;0.162;-0.02932153083384037;-0.010995574295520782;-0.0012217304902151227
01:00:0A:00:00:00:00;1727136572;24/09/24;00:09:32;1.006;-0.008;0.164;-0.028099799528717995;-0.010995574295520782;-0.0012217304902151227
01:00:0A:00:00:00:00;1727136573;24/09/24;00:09:33;1.007;-0.008;0.162;-0.028099799528717995;-0.010995574295520782;-0.0012217304902151227
01:00:0A:00:00:00:00;1727136574;24/09/24;00:09:34;1.008;-0.009;0.164;-0.02687807008624077;-0.010995574295520782;-0.0012217304902151227
01:00:0A:00:00:00:00;1727136575;24/09/24;00:09:35;1.007;-0.008;0.162;-0.025656338781118393;-0.012217304669320583;-0.0012217304902151227
01:00:0A:00:00:00:00;1727136576;24/09/24;00:09:36;1.008;-0.01;0.163;-0.025656338781118393;-0.010995574295520782;-0.0012217304902151227
01:00:0A:00:00:00:00;1727136577;24/09/24;00:09:37;1.008;-0.009;0.162;-0.024434609338641167;-0.010995574295520782;-0.0012217304902151227
01:00:0A:00:00:00:00;1727136578;24/09/24;00:09:38;1.007;-0.009;0.163;-0.024434609338641167;-0.010995574295520782;-0.0012217304902151227
01:00:0A:00:00:00:00;1727136579;24/09/24;00:09:39;1.007;-0.009;0.162;-0.02321287989616394;-0.010995574295520782;0.0
01:00:0A:00:00:00:00;1727136580;24/09/24;00:09:40;1.008;-0.01;0.162;-0.02321287989616394;-0.010995574295520782;-0.0012217304902151227
01:00:0A:00:00:00:00;1727136581;24/09/24;00:09:41;1.007;-0.008;0.162;-0.02321287989616394;-0.010995574295520782;0.0
01:00:0A:00:00:00:00;1727136582;24/09/24;00:09:42;1.008;-0.008;0.163;-0.021991148591041565;-0.010995574295520782;-0.0012217304902151227
01:00:0A:00:00:00:00;1727136583;24/09/24;00:09:43;1.008;-0.01;0.162;-0.021991148591041565;-0.010995574295520782;0.0
01:00:0A:00:00:00:00;1727136584;24/09/24;00:09:44;1.007;-0.009;0.163;-0.02076941914856434;-0.010995574295520782;0.0
01:00:0A:00:00:00:00;1727136585;24/09/24;00:09:45;1.007;-0.009;0.163;-0.02076941914856434;-0.010995574295520782;-0.0012217304902151227
01:00:0A:00:00:00:00;1727136586;24/09/24;00:09:46;1.008;-0.01;0.163;-0.02076941914856434;-0.010995574295520782;0.0
01:00:0A:00:00:00:00;1727136587;24/09/24;00:09:47;1.007;-0.008;0.163;-0.019547687843441963;-0.010995574295520782;0.0
01:00:0A:00:00:00:00;1727136588;24/09/24;00:09:48;1.008;-0.009;0.163;-0.019547687843441963;-0.010995574295520782;0.0
01:00:0A:00:00:00:00;1727136589;24/09/24;00:09:49;1.007;-0.008;0.163;-0.019547687843441963;-0.010995574295520782;0.0
01:00:0A:00:00:00:00;1727136590;24/09/24;00:09:50;1.007;-0.008;0.162;-0.018325956538319588;-0.010995574295520782;0.0
01:00:0A:00:00:00:00;1727136591;24/09/24;00:09:51;1.008;-0.009;0.163;-0.018325956538319588;-0.010995574295520782;0.0
01:00:0A:00:00:00:00;1727136592;24/09/24;00:09:52;1.008;-0.01;0.163;-0.018325956538319588;-0.010995574295520782;0.0
01:00:0A:00:00:00:00;1727136593;24/09/24;00:09:53;1.008;-0.009;0.163;-0.01710422709584236;-0.010995574295520782;0.0
01:00:0A:00:00:00:00;1727136594;24/09/24;00:09:54;1.007;-0.009;0.162;-0.01710422709584236;-0.010995574295520782;0.0
01:00:0A:00:00:00:00;1727136595;24/09/24;00:09:55;1.008;-0.008;0.162;-0.01710422709584236;-0.010995574295520782;0.0
01:00:0A:00:00:00:00;1727136596;24/09/24;00:09:56;1.007;-0.009;0.162;-0.015882495790719986;-0.010995574295520782;0.0
01:00:0A:00:00:00:00;1727136597;24/09/24;00:09:57;1.008;-0.009;0.162;-0.015882495790719986;-0.010995574295520782;0.0
01:00:0A:00:00:00:00;1727136598;24/09/24;00:09:58;1.007;-0.009;0.163;-0.015882495790719986;-0.010995574295520782;0.0
01:00:0A:00:00:00:00;1727136599;24/09/24;00:09:59;1.007;-0.009;0.162;-0.015882495790719986;-0.010995574295520782;0.0
01:00:0A:00:00:00:00;1727136600;24/09/24;00:10:00;1.007;-0.009;0.163;-0.014660765416920185;-0.010995574295520782;0.0
01:00:0A:00:00:00:00;1727136601;24/09/24;00:10:01;1.007;-0.009;0.163;-0.014660765416920185;-0.010995574295520782;0.0
01:00:0A:00:00:00:00;1727136602;24/09/24;00:10:02;1.007;-0.008;0.163;-0.014660765416920185;-0.010995574295520782;0.0
01:00:0A:00:00:00:00;1727136603;24/09/24;00:10:03;1.007;-0.009;0.163;-0.013439035043120384;-0.010995574295520782;0.0
01:00:0A:00:00:00:00;1727136604;24/09/24;00:10:04;1.008;-0.009;0.162;-0.013439035043120384;-0.010995574295520782;0.0
01:00:0A:00:00:00:00;1727136605;24/09/24;00:10:05;1.008;-0.008;0.163;-0.013439035043120384;-0.010995574295520782;0.0012217304902151227
01:00:0A:00:00:00:00;1727136606;24/09/24;00:10:06;1.007;-0.009;0.162;-0.013439035043120384;-0.010995574295520782;0.0012217304902151227
01:00:0A:00:00:00:00;1727136607;24/09/24;00:10:07;1.007;-0.009;0.162;-0.013439035043120384;-0.010995574295520782;0.0012217304902151227
01:00:0A:00:00:00:00;1727136608;24/09/24;00:10:08;1.007;-0.009;0.162;-0.013439035043120384;-0.010995574295520782;0.0012217304902151227
01:00:0A:00:00:00:00;1727136609;24/09/24;00:10:09;1.008;-0.009;0.163;-0.012217304669320583;-0.010995574295520782;0.0
01:00:0A:00:00:00:00;1727136610;24/09/24;00:10:10;1.008;-0.009;0.163;-0.012217304669320583;-0.010995574295520782;0.0
01:00:0A:00:00:00:00;1727136611;24/09/24;00:10:11;1.008;-0.008;0.163;-0.012217304669320583;-0.010995574295520782;0.0012217304902151227
01:00:0A:00:00:00:00;1727136612;24/09/24;00:10:12;1.007;-0.009;0.162;-0.012217304669320583;-0.010995574295520782;0.0012217304902151227
01:00:0A:00:00:00:00;1727136613;24/09/24;00:10:13;1.008;-0.008;0.163;-0.012217304669320583;-0.010995574295520782;0.0012217304902151227
01:00:0A:00:00:00:00;1727136614;24/09/24;00:10:14;1.007;-0.008;0.163;-0.012217304669320583;-0.010995574295520782;0.0012217304902151227
01:00:0A:00:00:00:00;1727136615;24/09/24;00:10:15;1.008;-0.008;0.162;-0.010995574295520782;-0.010995574295520782;0.0012217304902151227
01:00:0A:00:00:00:00;1727136616;24/09/24;00:10:16;1.007;-0.009;0.162;-0.010995574295520782;-0.010995574295520782;0.0012217304902151227
01:00:0A:00:00:00:00;1727136617;24/09/24;00:10:17;1.008;-0.008;0.163;-0.010995574295520782;-0.010995574295520782;0.0012217304902151227
01:00:0A:00:00:00:00;1727136618;24/09/24;00:10:18;1.007;-0.009;0.162;-0.010995574295520782;-0.010995574295520782;0.0012217304902151227
01:00:0A:00:00:00:00;1727136619;24/09/24;00:10:19;1.008;-0.009;0.162;-0.010995574295520782;-0.010995574295520782;0.0012217304902151227
01:00:0A:00:00:00:00;1727136620;24/09/24;00:10:20;1.008;-0.009;0.162;-0.010995574295520782;-0.010995574295520782;0.0012217304902151227
01:00:0A:00:00:00:00;1727136621;24/09/24;00:10:21;1.008;-0.007;0.162;-0.010995574295520782;-0.010995574295520782;0.0012217304902151227
01:00:0A:00:00:00:00;1727136622;24/09/24;00:10:22;1.007;-0.008;0.163;-0.010995574295520782;-0.010995574295520782;0.0012217304902151227
01:00:0A:00:00:00:00;1727136623;24/09/24;00:10:23;1.007;-0.008;0.162;-0.010995574295520782;-0.010995574295520782;0.0012217304902151227
01:00:0A:00:00:00:00;1727136624;24/09/24;00:10:24;1.008;-0.008;0.163;-0.009773843921720982;-0.010995574295520782;0.0012217304902151227
01:00:0A:00:00:00:00;1727136625;24/09/24;00:10:25;1.007;-0.01;0.163;-0.009773843921720982;-0.010995574295520782;0.0012217304902151227
01:00:0A:00:00:00:00;1727136626;24/09/24;00:10:26;1.008;-0.008;0.161;0.0012217304902151227;-0.013439035043120384;0.0036651913542300463
01:00:0A:00:00:00:00;1727136627;24/09/24;00:10:27;1.008;-0.009;0.159;0.040317103266716;-0.012217304669320583;0.00855211354792118
01:00:0A:00:00:00:00;1727136628;24/09/24;00:10:28;1.007;-0.01;0.158;0.08674286305904388;-0.009773843921720982;0.013439035043120384
01:00:0A:00:00:00:00;1727136629;24/09/24;00:10:29;1.007;-0.008;0.158;0.1160643920302391;-0.010995574295520782;0.01710422709584236
01:00:0A:00:00:00:00;1727136630;24/09/24;00:10:30;1.008;-0.008;0.16;0.11239919811487198;-0.006108652334660292;0.01710422709584236
01:00:0A:00:00:00:00;1727136631;24/09/24;00:10:31;1.007;-0.008;0.163;0.09529497474431992;-0.0073303827084600925;0.015882495790719986
01:00:0A:00:00:00:00;1727136632;24/09/24;00:10:32;1.007;-0.009;0.163;0.09040805697441101;-0.012217304669320583;0.015882495790719986
01:00:0A:00:00:00:00;1727136633;24/09/24;00:10:33;1.007;-0.009;0.162;0.08918632566928864;-0.010995574295520782;0.013439035043120384
01:00:0A:00:00:00:00;1727136634;24/09/24;00:10:34;1.007;-0.008;0.162;0.08552113175392151;-0.00855211354792118;0.014660765416920185
01:00:0A:00:00:00:00;1727136635;24/09/24;00:10:35;1.007;-0.01;0.163;0.08307767659425735;-0.012217304669320583;0.014660765416920185
01:00:0A:00:00:00:00;1727136636;24/09/24;00:10:36;1.007;-0.009;0.162;0.08185594528913498;-0.009773843921720982;0.012217304669320583
01:00:0A:00:00:00:00;1727136637;24/09/24;00:10:37;1.007;-0.009;0.163;0.07819075137376785;-0.009773843921720982;0.013439035043120384
01:00:0A:00:00:00:00;1727136638;24/09/24;00:10:38;1.007;-0.009;0.163;0.07696902006864548;-0.012217304669320583;0.013439035043120384
01:00:0A:00:00:00:00;1727136639;24/09/24;00:10:39;1.007;-0.01;0.162;0.0757472887635231;-0.009773843921720982;0.012217304669320583
01:00:0A:00:00:00:00;1727136640;24/09/24;00:10:40;1.007;-0.009;0.162;0.07330382615327835;-0.009773843921720982;0.013439035043120384
01:00:0A:00:00:00:00;1727136641;24/09/24;00:10:41;1.007;-0.01;0.162;0.0708603635430336;-0.012217304669320583;0.013439035043120384
01:00:0A:00:00:00:00;1727136642;24/09/24;00:10:42;1.008;-0.009;0.162;0.06963863223791122;-0.009773843921720982;0.010995574295520782
01:00:0A:00:00:00:00;1727136643;24/09/24;00:10:43;1.007;-0.008;0.163;0.06719517707824707;-0.009773843921720982;0.012217304669320583
01:00:0A:00:00:00:00;1727136644;24/09/24;00:10:44;1.008;-0.009;0.163;0.0659734457731247;-0.012217304669320583;0.012217304669320583
01:00:0A:00:00:00:00;1727136645;24/09/24;00:10:45;1.008;-0.009;0.162;0.06475171446800232;-0.009773843921720982;0.010995574295520782
01:00:0A:00:00:00:00;1727136646;24/09/24;00:10:46;1.006;-0.009;0.163;0.06230825558304787;-0.009773843921720982;0.012217304669320583
01:00:0A:00:00:00:00;1727136647;24/09/24;00:10:47;1.007;-0.01;0.162;0.06108652427792549;-0.010995574295520782;0.010995574295520782
01:00:0A:00:00:00:00;1727136648;24/09/24;00:10:48;1.007;-0.008;0.162;0.059864792972803116;-0.009773843921720982;0.009773843921720982
01:00:0A:00:00:00:00;1727136649;24/09/24;00:10:49;1.007;-0.009;0.162;0.05742133408784866;-0.009773843921720982;0.010995574295520782
01:00:0A:00:00:00:00;1727136650;24/09/24;00:10:50;1.008;-0.009;0.162;0.05619959905743599;-0.010995574295520782;0.009773843921720982
01:00:0A:00:00:00:00;1727136651;24/09/24;00:10:51;1.007;-0.008;0.162;0.05497787147760391;-0.010995574295520782;0.009773843921720982
01:00:0A:00:00:00:00;1727136652;24/09/24;00:10:52;1.007;-0.008;0.163;0.05375614017248154;-0.010995574295520782;0.009773843921720982
01:00:0A:00:00:00:00;1727136653;24/09/24;00:10:53;1.007;-0.011;0.162;0.05253440886735916;-0.010995574295520782;0.009773843921720982
01:00:0A:00:00:00:00;1727136654;24/09/24;00:10:54;1.006;-0.009;0.162;0.051312677562236786;-0.009773843921720982;0.009773843921720982
01:00:0A:00:00:00:00;1727136655;24/09/24;00:10:55;1.007;-0.01;0.163;0.05009094998240471;-0.010995574295520782;0.009773843921720982
01:00:0A:00:00:00:00;1727136656;24/09/24;00:10:56;1.008;-0.01;0.162;0.04886921867728233;-0.010995574295520782;0.00855211354792118
01:00:0A:00:00:00:00;1727136657;24/09/24;00:10:57;1.008;-0.008;0.162;0.04886921867728233;-0.009773843921720982;0.00855211354792118
01:00:0A:00:00:00:00;1727136658;24/09/24;00:10:58;1.008;-0.009;0.163;0.04642575979232788;-0.010995574295520782;0.009773843921720982
01:00:0A:00:00:00:00;1727136659;24/09/24;00:10:59;1.007;-0.008;0.162;0.04642575979232788;-0.010995574295520782;0.00855211354792118
01:00:0A:00:00:00:00;1727136660;24/09/24;00:11:00;1.006;-0.009;0.162;0.045204028487205505;-0.010995574295520782;0.00855211354792118
01:00:0A:00:00:00:00;1727136661;24/09/24;00:11:01;1.008;-0.008;0.162;0.04398229718208313;-0.010995574295520782;0.00855211354792118
01:00:0A:00:00:00:00;1727136662;24/09/24;00:11:02;1.008;-0.009;0.164;0.042760565876960754;-0.010995574295520782;0.00855211354792118
01:00:0A:00:00:00:00;1727136663;24/09/24;00:11:03;1.008;-0.01;0.163;0.042760565876960754;-0.010995574295520782;0.00855211354792118
01:00:0A:00:00:00:00;1727136664;24/09/24;00:11:04;1.008;-0.009;0.163;0.04153883829712868;-0.010995574295520782;0.00855211354792118
01:00:0A:00:00:00:00;1727136665;24/09/24;00:11:05;1.008;-0.009;0.162;0.040317103266716;-0.010995574295520782;0.0073303827084600925
01:00:0A:00:00:00:00;1727136666;24/09/24;00:11:06;1.007;-0.009;0.163;0.039095375686883926;-0.010995574295520782;0.0073303827084600925
01:00:0A:00:00:00:00;1727136667;24/09/24;00:11:07;1.007;-0.008;0.162;0.03787364438176155;-0.010995574295520782;0.0073303827084600925
01:00:0A:00:00:00:00;1727136668;24/09/24;00:11:08;1.007;-0.01;0.162;0.036651913076639175;-0.010995574295520782;0.0073303827084600925
01:00:0A:00:00:00:00;1727136669;24/09/24;00:11:09;1.007;-0.009;0.162;0.036651913076639175;-0.010995574295520782;0.0073303827084600925
01:00:0A:00:00:00:00;1727136670;24/09/24;00:11:10;1.008;-0.009;0.163;0.0354301817715168;-0.010995574295520782;0.0073303827084600925
01:00:0A:00:00:00:00;1727136671;24/09/24;00:11:11;1.008;-0.009;0.162;0.03420845419168472;-0.010995574295520782;0.0073303827084600925
01:00:0A:00:00:00:00;1727136672;24/09/24;00:11:12;1.008;-0.009;0.162;0.03298672288656235;-0.010995574295520782;0.0073303827084600925
01:00:0A:00:00:00:00;1727136673;24/09/24;00:11:13;1.008;-0.008;0.163;0.03298672288656235;-0.010995574295520782;0.0073303827084600925
01:00:0A:00:00:00:00;1727136674;24/09/24;00:11:14;1.008;-0.009;0.163;0.03176499158143997;-0.010995574295520782;0.006108652334660292
01:00:0A:00:00:00:00;1727136675;24/09/24;00:11:15;1.008;-0.009;0.163;0.030543262138962746;-0.010995574295520782;0.006108652334660292
01:00:0A:00:00:00:00;1727136676;24/09/24;00:11:16;1.008;-0.009;0.162;0.02932153083384037;-0.010995574295520782;0.006108652334660292
01:00:0A:00:00:00:00;1727136677;24/09/24;00:11:17;1.008;-0.008;0.162;0.028099799528717995;-0.010995574295520782;0.006108652334660292
01:00:0A:00:00:00:00;1727136678;24/09/24;00:11:18;1.006;-0.009;0.162;0.02687807008624077;-0.010995574295520782;0.006108652334660292
01:00:0A:00:00:00:00;1727136679;24/09/24;00:11:19;1.008;-0.009;0.163;0.025656338781118393;-0.010995574295520782;0.006108652334660292
01:00:0A:00:00:00:00;1727136680;24/09/24;00:11:20;1.008;-0.008;0.162;0.025656338781118393;-0.010995574295520782;0.006108652334660292
01:00:0A:00:00:00:00;1727136681;24/09/24;00:11:21;1.008;-0.009;0.162;0.024434609338641167;-0.010995574295520782;0.006108652334660292
01:00:0A:00:00:00:00;1727136682;24/09/24;00:11:22;1.007;-0.009;0.163;0.02321287989616394;-0.010995574295520782;0.006108652334660292
01:00:0A:00:00:00:00;1727136683;24/09/24;00:11:23;1.008;-0.009;0.162;0.021991148591041565;-0.010995574295520782;0.004886921960860491
01:00:0A:00:00:00:00;1727136684;24/09/24;00:11:24;1.008;-0.009;0.163;0.021991148591041565;-0.010995574295520782;0.004886921960860491
01:00:0A:00:00:00:00;1727136685;24/09/24;00:11:25;1.007;-0.008;0.163;0.02076941914856434;-0.010995574295520782;0.004886921960860491
01:00:0A:00:00:00:00;1727136686;24/09/24;00:11:26;1.008;-0.009;0.162;0.019547687843441963;-0.010995574295520782;0.004886921960860491
01:00:0A:00:00:00:00;1727136687;24/09/24;00:11:27;1.008;-0.008;0.162;0.018325956538319588;-0.010995574295520782;0.004886921960860491
01:00:0A:00:00:00:00;1727136688;24/09/24;00:11:28;1.008;-0.009;0.162;0.018325956538319588;-0.010995574295520782;0.004886921960860491
01:00:0A:00:00:00:00;1727136689;24/09/24;00:11:29;1.009;-0.009;0.163;0.01710422709584236;-0.010995574295520782;0.004886921960860491
01:00:0A:00:00:00:00;1727136690;24/09/24;00:11:30;1.007;-0.009;0.162;0.01710422709584236;-0.010995574295520782;0.004886921960860491
01:00:0A:00:00:00:00;1727136691;24/09/24;00:11:31;1.008;-0.009;0.162;0.01710422709584236;-0.010995574295520782;0.004886921960860491
01:00:0A:00:00:00:00;1727136692;24/09/24;00:11:32;1.007;-0.008;0.162;0.015882495790719986;-0.010995574295520782;0.004886921960860491
01:00:0A:00:00:00:00;1727136693;24/09/24;00:11:33;1.007;-0.008;0.162;0.015882495790719986;-0.010995574295520782;0.004886921960860491
01:00:0A:00:00:00:00;1727136694;24/09/24;00:11:34;1.007;-0.008;0.162;0.014660765416920185;-0.010995574295520782;0.004886921960860491
01:00:0A:00:00:00:00;1727136695;24/09/24;00:11:35;1.007;-0.01;0.163;0.014660765416920185;-0.010995574295520782;0.004886921960860491
01:00:0A:00:00:00:00;1727136696;24/09/24;00:11:36;1.007;-0.008;0.163;0.014660765416920185;-0.010995574295520782;0.004886921960860491
01:00:0A:00:00:00:00;1727136697;24/09/24;00:11:37;1.008;-0.008;0.162;0.014660765416920185;-0.010995574295520782;0.004886921960860491
01:00:0A:00:00:00:00;1727136698;24/09/24;00:11:38;1.008;-0.009;0.164;0.013439035043120384;-0.010995574295520782;0.004886921960860491
01:00:0A:00:00:00:00;1727136699;24/09/24;00:11:39;1.008;-0.009;0.162;0.013439035043120384;-0.010995574295520782;0.004886921960860491
01:00:0A:00:00:00:00;1727136700;24/09/24;00:11:40;1.007;-0.009;0.162;0.013439035043120384;-0.010995574295520782;0.0036651913542300463
01:00:0A:00:00:00:00;1727136701;24/09/24;00:11:41;1.009;-0.009;0.162;0.013439035043120384;-0.010995574295520782;0.0036651913542300463
01:00:0A:00:00:00:00;1727136702;24/09/24;00:11:42;1.007;-0.008;0.162;0.012217304669320583;-0.010995574295520782;0.0036651913542300463
01:00:0A:00:00:00:00;1727136703;24/09/24;00:11:43;1.008;-0.01;0.162;0.012217304669320583;-0.010995574295520782;0.0036651913542300463
01:00:0A:00:00:00:00;1727136704;24/09/24;00:11:44;1.007;-0.009;0.162;0.012217304669320583;-0.010995574295520782;0.0036651913542300463
01:00:0A:00:00:00:00;1727136705;24/09/24;00:11:45;1.007;-0.008;0.162;0.012217304669320583;-0.010995574295520782;0.0036651913542300463
01:00:0A:00:00:00:00;1727136706;24/09/24;00:11:46;1.007;-0.009;0.162;0.010995574295520782;-0.010995574295520782;0.0036651913542300463
01:00:0A:00:00:00:00;1727136707;24/09/24;00:11:47;1.006;-0.008;0.162;0.010995574295520782;-0.010995574295520782;0.0036651913542300463
01:00:0A:00:00:00:00;1727136708;24/09/24;00:11:48;1.007;-0.009;0.163;0.010995574295520782;-0.010995574295520782;0.0036651913542300463
01:00:0A:00:00:00:00;1727136709;24/09/24;00:11:49;1.007;-0.009;0.163;0.010995574295520782;-0.010995574295520782;0.0036651913542300463
01:00:0A:00:00:00:00;1727136710;24/09/24;00:11:50;1.009;-0.008;0.163;0.010995574295520782;-0.010995574295520782;0.0036651913542300463
01:00:0A:00:00:00:00;1727136711;24/09/24;00:11:51;1.007;-0.009;0.162;0.010995574295520782;-0.010995574295520782;0.0036651913542300463
01:00:0A:00:00:00:00;1727136712;24/09/24;00:11:52;1.008;-0.008;0.162;0.009773843921720982;-0.010995574295520782;0.0036651913542300463
01:00:0A:00:00:00:00;1727136713;24/09/24;00:11:53;1.008;-0.009;0.162;0.010995574295520782;-0.010995574295520782;0.0036651913542300463
01:00:0A:00:00:00:00;1727136714;24/09/24;00:11:54;1.007;-0.009;0.162;0.009773843921720982;-0.010995574295520782;0.0036651913542300463
01:00:0A:00:00:00:00;1727136715;24/09/24;00:11:55;1.008;-0.009;0.162;0.009773843921720982;-0.010995574295520782;0.0036651913542300463
01:00:0A:00:00:00:00;1727136716;24/09/24;00:11:56;1.007;-0.009;0.163;0.009773843921720982;-0.010995574295520782;0.0036651913542300463
01:00:0A:00:00:00:00;1727136717;24/09/24;00:11:57;1.008;-0.009;0.162;0.009773843921720982;-0.010995574295520782;0.0036651913542300463
01:00:0A:00:00:00:00;1727136718;24/09/24;00:11:58;1.007;-0.009;0.162;0.009773843921720982;-0.010995574295520782;0.0036651913542300463
01:00:0A:00:00:00:00;1727136719;24/09/24;00:11:59;1.008;-0.009;0.162;0.009773843921720982;-0.010995574295520782;0.0036651913542300463
01:00:0A:00:00:00:00;1727136720;24/09/24;00:12:00;1.009;-0.008;0.162;0.009773843921720982;-0.010995574295520782;0.0036651913542300463
01:00:0A:00:00:00:00;1727136721;24/09/24;00:12:01;1.008;-0.008;0.162;0.009773843921720982;-0.010995574295520782;0.0036651913542300463
01:00:0A:00:00:00:00;1727136722;24/09/24;00:12:02;1.007;-0.008;0.162;0.009773843921720982;-0.010995574295520782;0.0036651913542300463
01:00:0A:00:00:00:00;1727136723;24/09/24;00:12:03;1.007;-0.008;0.162;0.009773843921720982;-0.010995574295520782;0.0036651913542300463
01:00:0A:00:00:00:00;1727136724;24/09/24;00:12:04;1.007;-0.008;0.162;0.009773843921720982;-0.010995574295520782;0.0036651913542300463
01:00:0A:00:00:00:00;1727136725;24/09/24;00:12:05;1.008;-0.008;0.162;0.009773843921720982;-0.010995574295520782;0.0036651913542300463
01:00:0A:00:00:00:00;1727136726;24/09/24;00:12:06;1.007;-0.009;0.162;0.009773843921720982;-0.010995574295520782;0.0036651913542300463
01:00:0A:00:00:00:00;1727136727;24/09/24;00:12:07;1.007;-0.009;0.162;0.010995574295520782;-0.010995574295520782;0.0036651913542300463
01:00:0A:00:00:00:00;1727136728;24/09/24;00:12:08;1.007;-0.009;0.162;0.009773843921720982;-0.010995574295520782;0.0036651913542300463
01:00:0A:00:00:00:00;1727136729;24/09/24;00:12:09;1.008;-0.009;0.163;0.009773843921720982;-0.010995574295520782;0.0036651913542300463
01:00:0A:00:00:00:00;1727136730;24/09/24;00:12:10;1.008;-0.009;0.163;0.009773843921720982;-0.010995574295520782;0.0036651913542300463
01:00:0A:00:00:00:00;1727136731;24/09/24;00:12:11;1.007;-0.009;0.163;0.009773843921720982;-0.010995574295520782;0.0036651913542300463
01:00:0A:00:00:00:00;1727136732;24/09/24;00:12:12;1.007;-0.009;0.162;0.009773843921720982;-0.010995574295520782;0.0036651913542300463
01:00:0A:00:00:00:00;1727136733;24/09/24;00:12:13;1.008;-0.008;0.162;0.009773843921720982;-0.010995574295520782;0.0036651913542300463
01:00:0A:00:00:00:00;1727136734;24/09/24;00:12:14;1.007;-0.009;0.162;0.009773843921720982;-0.010995574295520782;0.0036651913542300463
01:00:0A:00:00:00:00;1727136735;24/09/24;00:12:15;1.008;-0.008;0.162;0.009773843921720982;-0.010995574295520782;0.0036651913542300463
01:00:0A:00:00:00:00;1727136736;24/09/24;00:12:16;1.007;-0.009;0.162;0.009773843921720982;-0.010995574295520782;0.0036651913542300463
01:00:0A:00:00:00:00;1727136737;24/09/24;00:12:17;1.008;-0.009;0.162;0.009773843921720982;-0.010995574295520782;0.0036651913542300463
01:00:0A:00:00:00:00;1727136738;24/09/24;00:12:18;1.007;-0.009;0.163;0.009773843921720982;-0.010995574295520782;0.0036651913542300463
01:00:0A:00:00:00:00;1727136739;24/09/24;00:12:19;1.008;-0.009;0.162;0.009773843921720982;-0.010995574295520782;0.0036651913542300463
01:00:0A:00:00:00:00;1727136740;24/09/24;00:12:20;1.008;-0.008;0.162;0.009773843921720982;-0.010995574295520782;0.0036651913542300463
01:00:0A:00:00:00:00;1727136741;24/09/24;00:12:21;1.008;-0.009;0.162;0.009773843921720982;-0.010995574295520782;0.0036651913542300463
01:00:0A:00:00:00:00;1727136742;24/09/24;00:12:22;1.008;-0.01;0.162;0.009773843921720982;-0.010995574295520782;0.0036651913542300463
01:00:0A:00:00:00:00;1727136743;24/09/24;00:12:23;1.008;-0.009;0.163;0.009773843921720982;-0.010995574295520782;0.0036651913542300463
01:00:0A:00:00:00:00;1727136744;24/09/24;00:12:24;1.007;-0.007;0.162;0.009773843921720982;-0.010995574295520782;0.0036651913542300463
01:00:0A:00:00:00:00;1727136745;24/09/24;00:12:25;1.007;-0.008;0.163;0.009773843921720982;-0.010995574295520782;0.0036651913542300463
01:00:0A:00:00:00:00;1727136746;24/09/24;00:12:26;1.008;-0.008;0.163;0.009773843921720982;-0.010995574295520782;0.0036651913542300463
01:00:0A:00:00:00:00;1727136747;24/09/24;00:12:27;1.007;-0.009;0.162;0.009773843921720982;-0.010995574295520782;0.0036651913542300463
01:00:0A:00:00:00:00;1727136748;24/09/24;00:12:28;1.008;-0.009;0.162;0.009773843921720982;-0.010995574295520782;0.0036651913542300463
01:00:0A:00:00:00:00;1727136749;24/09/24;00:12:29;1.007;-0.008;0.162;0.009773843921720982;-0.010995574295520782;0.0036651913542300463
01:00:0A:00:00:00:00;1727136750;24/09/24;00:12:30;1.007;-0.009;0.163;0.009773843921720982;-0.010995574295520782;0.0036651913542300463
01:00:0A:00:00:00:00;1727136751;24/09/24;00:12:31;1.007;-0.009;0.162;0.009773843921720982;-0.010995574295520782;0.0036651913542300463
01:00:0A:00:00:00:00;1727136752;24/09/24;00:12:32;1.008;-0.009;0.163;0.009773843921720982;-0.010995574295520782;0.0036651913542300463
01:00:0A:00:00:00:00;1727136753;24/09/24;00:12:33;1.008;-0.009;0.163;0.00855211354792118;-0.010995574295520782;0.0036651913542300463
01:00:0A:00:00:00:00;1727136754;24/09/24;00:12:34;1.007;-0.009;0.163;0.00855211354792118;-0.010995574295520782;0.0036651913542300463
01:00:0A:00:00:00:00;1727136755;24/09/24;00:12:35;1.007;-0.009;0.162;0.00855211354792118;-0.010995574295520782;0.0036651913542300463
01:00:0A:00:00:00:00;1727136756;24/09/24;00:12:36;1.008;-0.008;0.163;0.00855211354792118;-0.010995574295520782;0.0036651913542300463
01:00:0A:00:00:00:00;1727136757;24/09/24;00:12:37;1.006;-0.008;0.162;0.00855211354792118;-0.010995574295520782;0.0036651913542300463
01:00:0A:00:00:00:00;1727136758;24/09/24;00:12:38;1.007;-0.009;0.162;0.00855211354792118;-0.010995574295520782;0.0036651913542300463
01:00:0A:00:00:00:00;1727136759;24/09/24;00:12:39;1.008;-0.008;0.163;0.00855211354792118;-0.010995574295520782;0.0036651913542300463
01:00:0A:00:00:00:00;1727136760;24/09/24;00:12:40;1.007;-0.009;0.162;0.00855211354792118;-0.010995574295520782;0.0036651913542300463
01:00:0A:00:00:00:00;1727136761;24/09/24;00:12:41;1.007;-0.008;0.163;0.00855211354792118;-0.010995574295520782;0.0036651913542300463
01:00:0A:00:00:00:00;1727136762;24/09/24;00:12:42;1.007;-0.01;0.163;0.00855211354792118;-0.010995574295520782;0.0036651913542300463
01:00:0A:00:00:00:00;1727136763;24/09/24;00:12:43;1.008;-0.009;0.163;0.00855211354792118;-0.010995574295520782;0.0036651913542300463
01:00:0A:00:00:00:00;1727136764;24/09/24;00:12:44;1.007;-0.009;0.163;0.00855211354792118;-0.010995574295520782;0.0036651913542300463
01:00:0A:00:00:00:00;1727136765;24/09/24;00:12:45;1.008;-0.008;0.162;0.00855211354792118;-0.010995574295520782;0.0036651913542300463
01:00:0A:00:00:00:00;1727136766;24/09/24;00:12:46;1.007;-0.009;0.163;0.00855211354792118;-0.010995574295520782;0.0036651913542300463
01:00:0A:00:00:00:00;1727136767;24/09/24;00:12:47;1.007;-0.009;0.163;0.00855211354792118;-0.010995574295520782;0.0036651913542300463
01:00:0A:00:00:00:00;1727136768;24/09/24;00:12:48;1.008;-0.009;0.163;0.00855211354792118;-0.010995574295520782;0.0036651913542300463
01:00:0A:00:00:00:00;1727136769;24/09/24;00:12:49;1.008;-0.008;0.162;0.00855211354792118;-0.010995574295520782;0.0036651913542300463
01:00:0A:00:00:00:00;1727136770;24/09/24;00:12:50;1.007;-0.009;0.162;0.00855211354792118;-0.010995574295520782;0.0036651913542300463
01:00:0A:00:00:00:00;1727136771;24/09/24;00:12:51;1.007;-0.008;0.162;0.00855211354792118;-0.010995574295520782;0.0036651913542300463
01:00:0A:00:00:00:00;1727136772;24/09/24;00:12:52;1.008;-0.009;0.163;0.00855211354792118;-0.010995574295520782;0.0036651913542300463
01:00:0A:00:00:00:00;1727136773;24/09/24;00:12:53;1.007;-0.009;0.164;0.00855211354792118;-0.010995574295520782;0.0036651913542300463
01:00:0A:00:00:00:00;1727136774;24/09/24;00:12:54;1.007;-0.009;0.162;0.00855211354792118;-0.010995574295520782;0.0036651913542300463
01:00:0A:00:00:00:00;1727136775;24/09/24;00:12:55;1.008;-0.009;0.163;0.00855211354792118;-0.010995574295520782;0.0036651913542300463
01:00:0A:00:00:00:00;1727136776;24/09/24;00:12:56;1.007;-0.009;0.163;0.00855211354792118;-0.010995574295520782;0.0036651913542300463
01:00:0A:00:00:00:00;1727136777;24/09/24;00:12:57;1.009;-0.009;0.163;0.00855211354792118;-0.010995574295520782;0.0036651913542300463
01:00:0A:00:00:00:00;1727136778;24/09/24;00:12:58;1.009;-0.009;0.162;0.00855211354792118;-0.010995574295520782;0.0036651913542300463
01:00:0A:00:00:00:00;1727136779;24/09/24;00:12:59;1.008;-0.009;0.163;0.00855211354792118;-0.010995574295520782;0.0036651913542300463
01:00:0A:00:00:00:00;1727136780;24/09/24;00:13:00;1.007;-0.008;0.162;0.00855211354792118;-0.010995574295520782;0.0036651913542300463
01:00:0A:00:00:00:00;1727136781;24/09/24;00:13:01;1.006;-0.008;0.162;0.00855211354792118;-0.010995574295520782;0.0036651913542300463
01:00:0A:00:00:00:00;1727136782;24/09/24;00:13:02;1.008;-0.009;0.162;0.00855211354792118;-0.010995574295520782;0.0036651913542300463
01:00:0A:00:00:00:00;1727136783;24/09/24;00:13:03;1.007;-0.009;0.163;0.00855211354792118;-0.010995574295520782;0.0036651913542300463
01:00:0A:00:00:00:00;1727136784;24/09/24;00:13:04;1.008;-0.009;0.162;0.00855211354792118;-0.010995574295520782;0.0036651913542300463
01:00:0A:00:00:00:00;1727136785;24/09/24;00:13:05;1.008;-0.01;0.162;0.00855211354792118;-0.010995574295520782;0.0036651913542300463
01:00:0A:00:00:00:00;1727136786;24/09/24;00:13:06;1.008;-0.009;0.163;0.00855211354792118;-0.010995574295520782;0.0036651913542300463
01:00:0A:00:00:00:00;1727136787;24/09/24;00:13:07;1.006;-0.01;0.162;0.00855211354792118;-0.010995574295520782;0.0036651913542300463
01:00:0A:00:00:00:00;1727136788;24/09/24;00:13:08;1.008;-0.009;0.162;0.00855211354792118;-0.010995574295520782;0.0036651913542300463
01:00:0A:00:00:00:00;1727136789;24/09/24;00:13:09;1.008;-0.009;0.163;0.00855211354792118;-0.010995574295520782;0.0036651913542300463
01:00:0A:00:00:00:00;1727136790;24/09/24;00:13:10;1.008;-0.009;0.162;0.00855211354792118;-0.010995574295520782;0.0036651913542300463
01:00:0A:00:00:00:00;1727136791;24/09/24;00:13:11;1.007;-0.009;0.163;0.00855211354792118;-0.010995574295520782;0.0036651913542300463
01:00:0A:00:00:00:00;1727136792;24/09/24;00:13:12;1.009;-0.01;0.162;0.00855211354792118;-0.010995574295520782;0.0036651913542300463
01:00:0A:00:00:00:00;1727136793;24/09/24;00:13:13;1.007;-0.009;0.163;0.00855211354792118;-0.010995574295520782;0.0036651913542300463
01:00:0A:00:00:00:00;1727136794;24/09/24;00:13:14;1.007;-0.008;0.163;0.00855211354792118;-0.010995574295520782;0.0036651913542300463
01:00:0A:00:00:00:00;1727136795;24/09/24;00:13:15;1.007;-0.01;0.162;0.00855211354792118;-0.010995574295520782;0.0036651913542300463
01:00:0A:00:00:00:00;1727136796;24/09/24;00:13:16;1.008;-0.007;0.162;0.00855211354792118;-0.010995574295520782;0.0036651913542300463
01:00:0A:00:00:00:00;1727136797;24/09/24;00:13:17;1.006;-0.009;0.163;0.00855211354792118;-0.010995574295520782;0.0036651913542300463
01:00:0A:00:00:00:00;1727136798;24/09/24;00:13:18;1.007;-0.008;0.162;0.00855211354792118;-0.010995574295520782;0.0036651913542300463
01:00:0A:00:00:00:00;1727136799;24/09/24;00:13:19;1.008;-0.008;0.162;0.00855211354792118;-0.010995574295520782;0.0036651913542300463
01:00:0A:00:00:00:00;1727136800;24/09/24;00:13:20;1.008;-0.008;0.163;0.00855211354792118;-0.010995574295520782;0.0036651913542300463
01:00:0A:00:00:00:00;1727136801;24/09/24;00:13:21;1.007;-0.008;0.162;0.00855211354792118;-0.010995574295520782;0.0036651913542300463
01:00:0A:00:00:00:00;1727136802;24/09/24;00:13:22;1.008;-0.009;0.162;0.00855211354792118;-0.010995574295520782;0.0036651913542300463
01:00:0A:00:00:00:00;1727136803;24/09/24;00:13:23;1.008;-0.009;0.163;0.00855211354792118;-0.010995574295520782;0.0036651913542300463
01:00:0A:00:00:00:00;1727136804;24/09/24;00:13:24;1.008;-0.01;0.163;0.00855211354792118;-0.010995574295520782;0.0036651913542300463
01:00:0A:00:00:00:00;1727136805;24/09/24;00:13:25;1.007;-0.008;0.162;0.00855211354792118;-0.010995574295520782;0.0036651913542300463
01:00:0A:00:00:00:00;1727136806;24/09/24;00:13:26;1.007;-0.009;0.162;0.00855211354792118;-0.010995574295520782;0.0036651913542300463
01:00:0A:00:00:00:00;1727136807;24/09/24;00:13:27;1.007;-0.009;0.162;0.00855211354792118;-0.010995574295520782;0.0036651913542300463
01:00:0A:00:00:00:00;1727136808;24/09/24;00:13:28;1.007;-0.009;0.162;0.00855211354792118;-0.010995574295520782;0.0024434609804302454
01:00:0A:00:00:00:00;1727136809;24/09/24;00:13:29;1.007;-0.009;0.162;0.0073303827084600925;-0.010995574295520782;0.0036651913542300463
01:00:0A:00:00:00:00;1727136810;24/09/24;00:13:30;1.009;-0.009;0.162;0.0073303827084600925;-0.010995574295520782;0.0036651913542300463
01:00:0A:00:00:00:00;1727136811;24/09/24;00:13:31;1.007;-0.009;0.163;0.0073303827084600925;-0.010995574295520782;0.0036651913542300463
01:00:0A:00:00:00:00;1727136812;24/09/24;00:13:32;1.007;-0.009;0.162;0.0073303827084600925;-0.010995574295520782;0.0036651913542300463
01:00:0A:00:00:00:00;1727136813;24/09/24;00:13:33;1.007;-0.008;0.162;0.0073303827084600925;-0.010995574295520782;0.0036651913542300463
01:00:0A:00:00:00:00;1727136814;24/09/24;00:13:34;1.007;-0.008;0.162;0.0073303827084600925;-0.010995574295520782;0.0036651913542300463
01:00:0A:00:00:00:00;1727136815;24/09/24;00:13:35;1.007;-0.009;0.162;0.0073303827084600925;-0.010995574295520782;0.0036651913542300463
01:00:0A:00:00:00:00;1727136816;24/09/24;00:13:36;1.007;-0.009;0.162;0.0073303827084600925;-0.010995574295520782;0.0024434609804302454
01:00:0A:00:00:00:00;1727136817;24/09/24;00:13:37;1.008;-0.008;0.162;0.0073303827084600925;-0.010995574295520782;0.0036651913542300463
01:00:0A:00:00:00:00;1727136818;24/09/24;00:13:38;1.008;-0.008;0.163;0.0073303827084600925;-0.010995574295520782;0.0036651913542300463
01:00:0A:00:00:00:00;1727136819;24/09/24;00:13:39;1.007;-0.008;0.163;0.0073303827084600925;-0.010995574295520782;0.0036651913542300463
01:00:0A:00:00:00:00;1727136820;24/09/24;00:13:40;1.007;-0.008;0.162;0.0073303827084600925;-0.010995574295520782;0.0036651913542300463
01:00:0A:00:00:00:00;1727136821;24/09/24;00:13:41;1.007;-0.009;0.162;0.0073303827084600925;-0.010995574295520782;0.0036651913542300463
01:00:0A:00:00:00:00;1727136822;24/09/24;00:13:42;1.007;-0.009;0.162;0.0073303827084600925;-0.010995574295520782;0.0036651913542300463
01:00:0A:00:00:00:00;1727136823;24/09/24;00:13:43;1.007;-0.009;0.162;0.0073303827084600925;-0.010995574295520782;0.0036651913542300463
01:00:0A:00:00:00:00;1727136824;24/09/24;00:13:44;1.007;-0.009;0.162;0.006108652334660292;-0.010995574295520782;0.0024434609804302454
01:00:0A:00:00:00:00;1727136825;24/09/24;00:13:45;1.008;-0.009;0.162;0.006108652334660292;-0.010995574295520782;0.0024434609804302454
01:00:0A:00:00:00:00;1727136826;24/09/24;00:13:46;1.008;-0.008;0.162;0.0073303827084600925;-0.010995574295520782;0.0036651913542300463
01:00:0A:00:00:00:00;1727136827;24/09/24;00:13:47;1.008;-0.009;0.163;0.006108652334660292;-0.010995574295520782;0.0036651913542300463
01:00:0A:00:00:00:00;1727136828;24/09/24;00:13:48;1.008;-0.009;0.162;0.006108652334660292;-0.010995574295520782;0.0036651913542300463
01:00:0A:00:00:00:00;1727136829;24/09/24;00:13:49;1.007;-0.009;0.163;0.006108652334660292;-0.010995574295520782;0.0036651913542300463
01:00:0A:00:00:00:00;1727136830;24/09/24;00:13:50;1.006;-0.009;0.162;0.006108652334660292;-0.010995574295520782;0.0036651913542300463
01:00:0A:00:00:00:00;1727136831;24/09/24;00:13:51;1.007;-0.01;0.163;0.006108652334660292;-0.010995574295520782;0.0036651913542300463
01:00:0A:00:00:00:00;1727136832;24/09/24;00:13:52;1.008;-0.009;0.162;0.0073303827084600925;-0.010995574295520782;0.0036651913542300463
01:00:0A:00:00:00:00;1727136833;24/09/24;00:13:53;1.007;-0.009;0.163;0.006108652334660292;-0.010995574295520782;0.0024434609804302454
01:00:0A:00:00:00:00;1727136834;24/09/24;00:13:54;1.008;-0.009;0.162;0.006108652334660292;-0.010995574295520782;0.0036651913542300463
01:00:0A:00:00:00:00;1727136835;24/09/24;00:13:55;1.007;-0.009;0.162;0.006108652334660292;-0.010995574295520782;0.0036651913542300463
01:00:0A:00:00:00:00;1727136836;24/09/24;00:13:56;1.008;-0.01;0.162;0.006108652334660292;-0.010995574295520782;0.0036651913542300463
01:00:0A:00:00:00:00;1727136837;24/09/24;00:13:57;1.008;-0.01;0.162;0.006108652334660292;-0.010995574295520782;0.0036651913542300463
01:00:0A:00:00:00:00;1727136838;24/09/24;00:13:58;1.008;-0.009;0.162;0.006108652334660292;-0.010995574295520782;0.0024434609804302454
01:00:0A:00:00:00:00;1727136839;24/09/24;00:13:59;1.007;-0.009;0.163;0.006108652334660292;-0.010995574295520782;0.0036651913542300463
01:00:0A:00:00:00:00;1727136840;24/09/24;00:14:00;1.007;-0.008;0.162;0.006108652334660292;-0.010995574295520782;0.0036651913542300463
01:00:0A:00:00:00:00;1727136841;24/09/24;00:14:01;1.008;-0.01;0.162;0.006108652334660292;-0.010995574295520782;0.0036651913542300463
01:00:0A:00:00:00:00;1727136842;24/09/24;00:14:02;1.007;-0.008;0.162;0.006108652334660292;-0.010995574295520782;0.0036651913542300463
01:00:0A:00:00:00:00;1727136843;24/09/24;00:14:03;1.008;-0.01;0.162;0.006108652334660292;-0.010995574295520782;0.0036651913542300463
01:00:0A:00:00:00:00;1727136844;24/09/24;00:14:04;1.008;-0.009;0.162;0.006108652334660292;-0.010995574295520782;0.0036651913542300463
01:00:0A:00:00:00:00;1727136845;24/09/24;00:14:05;1.008;-0.009;0.163;0.006108652334660292;-0.010995574295520782;0.0036651913542300463
01:00:0A:00:00:00:00;1727136846;24/09/24;00:14:06;1.007;-0.008;0.162;0.006108652334660292;-0.010995574295520782;0.0036651913542300463
01:00:0A:00:00:00:00;1727136847;24/09/24;00:14:07;1.007;-0.008;0.162;0.006108652334660292;-0.010995574295520782;0.0024434609804302454
01:00:0A:00:00:00:00;1727136848;24/09/24;00:14:08;1.008;-0.009;0.162;0.006108652334660292;-0.010995574295520782;0.0024434609804302454
01:00:0A:00:00:00:00;1727136849;24/09/24;00:14:09;1.007;-0.009;0.163;0.006108652334660292;-0.010995574295520782;0.0036651913542300463
01:00:0A:00:00:00:00;1727136850;24/09/24;00:14:10;1.008;-0.008;0.162;0.004886921960860491;-0.010995574295520782;0.0024434609804302454
01:00:0A:00:00:00:00;1727136851;24/09/24;00:14:11;1.008;-0.009;0.162;0.004886921960860491;-0.010995574295520782;0.0036651913542300463
01:00:0A:00:00:00:00;1727136852;24/09/24;00:14:12;1.008;-0.009;0.163;0.004886921960860491;-0.010995574295520782;0.0024434609804302454
01:00:0A:00:00:00:00;1727136853;24/09/24;00:14:13;1.006;-0.009;0.162;0.004886921960860491;-0.010995574295520782;0.0036651913542300463
01:00:0A:00:00:00:00;1727136854;24/09/24;00:14:14;1.007;-0.009;0.162;0.004886921960860491;-0.010995574295520782;0.0036651913542300463
01:00:0A:00:00:00:00;1727136855;24/09/24;00:14:15;1.007;-0.008;0.162;0.004886921960860491;-0.010995574295520782;0.0036651913542300463
01:00:0A:00:00:00:00;1727136856;24/09/24;00:14:16;1.008;-0.008;0.163;0.004886921960860491;-0.010995574295520782;0.0024434609804302454
01:00:0A:00:00:00:00;1727136857;24/09/24;00:14:17;1.007;-0.009;0.162;0.004886921960860491;-0.010995574295520782;0.0024434609804302454
01:00:0A:00:00:00:00;1727136858;24/09/24;00:14:18;1.006;-0.009;0.162;0.004886921960860491;-0.010995574295520782;0.0024434609804302454
01:00:0A:00:00:00:00;1727136859;24/09/24;00:14:19;1.008;-0.008;0.162;0.004886921960860491;-0.010995574295520782;0.0024434609804302454
01:00:0A:00:00:00:00;1727136860;24/09/24;00:14:20;1.007;-0.008;0.163;0.0036651913542300463;-0.010995574295520782;0.0024434609804302454
01:00:0A:00:00:00:00;1727136861;24/09/24;00:14:21;1.006;-0.009;0.162;0.0036651913542300463;-0.010995574295520782;0.0024434609804302454
01:00:0A:00:00:00:00;1727136862;24/09/24;00:14:22;1.007;-0.008;0.162;0.0036651913542300463;-0.010995574295520782;0.0024434609804302454
01:00:0A:00:00:00:00;1727136863;24/09/24;00:14:23;1.008;-0.009;0.163;0.0036651913542300463;-0.010995574295520782;0.0024434609804302454
01:00:0A:00:00:00:00;1727136864;24/09/24;00:14:24;1.008;-0.009;0.162;0.0036651913542300463;-0.010995574295520782;0.0024434609804302454
01:00:0A:00:00:00:00;1727136865;24/09/24;00:14:25;1.007;-0.008;0.163;0.0036651913542300463;-0.010995574295520782;0.0024434609804302454
01:00:0A:00:00:00:00;1727136866;24/09/24;00:14:26;1.006;-0.008;0.162;0.0036651913542300463;-0.010995574295520782;0.0024434609804302454
01:00:0A:00:00:00:00;1727136867;24/09/24;00:14:27;1.008;-0.008;0.162;0.0036651913542300463;-0.010995574295520782;0.0024434609804302454
01:00:0A:00:00:00:00;1727136868;24/09/24;00:14:28;1.007;-0.008;0.162;0.0036651913542300463;-0.010995574295520782;0.0024434609804302454
01:00:0A:00:00:00:00;1727136869;24/09/24;00:14:29;1.007;-0.009;0.162;0.0036651913542300463;-0.010995574295520782;0.0024434609804302454
01:00:0A:00:00:00:00;1727136870;24/09/24;00:14:30;1.007;-0.008;0.162;0.0036651913542300463;-0.010995574295520782;0.0024434609804302454
01:00:0A:00:00:00:00;1727136871;24/09/24;00:14:31;1.007;-0.009;0.162;0.0024434609804302454;-0.010995574295520782;0.0024434609804302454
01:00:0A:00:00:00:00;1727136872;24/09/24;00:14:32;1.007;-0.009;0.162;0.0024434609804302454;-0.010995574295520782;0.0024434609804302454
01:00:0A:00:00:00:00;1727136873;24/09/24;00:14:33;1.007;-0.01;0.162;0.0024434609804302454;-0.010995574295520782;0.0024434609804302454
01:00:0A:00:00:00:00;1727136874;24/09/24;00:14:34;1.009;-0.007;0.162;0.0024434609804302454;-0.010995574295520782;0.0024434609804302454
01:00:0A:00:00:00:00;1727136875;24/09/24;00:14:35;1.008;-0.008;0.162;0.0024434609804302454;-0.010995574295520782;0.0024434609804302454
01:00:0A:00:00:00:00;1727136876;24/09/24;00:14:36;1.007;-0.009;0.163;0.0024434609804302454;-0.010995574295520782;0.0024434609804302454
01:00:0A:00:00:00:00;1727136877;24/09/24;00:14:37;1.008;-0.008;0.162;0.0024434609804302454;-0.010995574295520782;0.0024434609804302454
01:00:0A:00:00:00:00;1727136878;24/09/24;00:14:38;1.008;-0.008;0.162;0.0024434609804302454;-0.010995574295520782;0.0024434609804302454
01:00:0A:00:00:00:00;1727136879;24/09/24;00:14:39;1.007;-0.009;0.162;0.0024434609804302454;-0.010995574295520782;0.0024434609804302454
01:00:0A:00:00:00:00;1727136880;24/09/24;00:14:40;1.007;-0.008;0.162;0.0024434609804302454;-0.010995574295520782;0.0024434609804302454
01:00:0A:00:00:00:00;1727136881;24/09/24;00:14:41;1.008;-0.009;0.162;0.0024434609804302454;-0.010995574295520782;0.0024434609804302454
01:00:0A:00:00:00:00;1727136882;24/09/24;00:14:42;1.008;-0.009;0.163;0.0024434609804302454;-0.010995574295520782;0.0024434609804302454
01:00:0A:00:00:00:00;1727136883;24/09/24;00:14:43;1.007;-0.009;0.162;0.0024434609804302454;-0.010995574295520782;0.0024434609804302454
01:00:0A:00:00:00:00;1727136884;24/09/24;00:14:44;1.008;-0.01;0.162;0.0024434609804302454;-0.010995574295520782;0.0024434609804302454
01:00:0A:00:00:00:00;1727136885;24/09/24;00:14:45;1.007;-0.01;0.163;0.0024434609804302454;-0.010995574295520782;0.0024434609804302454
01:00:0A:00:00:00:00;1727136886;24/09/24;00:14:46;1.008;-0.008;0.162;0.0024434609804302454;-0.010995574295520782;0.0024434609804302454
01:00:0A:00:00:00:00;1727136887;24/09/24;00:14:47;1.007;-0.009;0.162;0.0024434609804302454;-0.010995574295520782;0.0024434609804302454
01:00:0A:00:00:00:00;1727136888;24/09/24;00:14:48;1.007;-0.009;0.163;0.0024434609804302454;-0.010995574295520782;0.0036651913542300463
01:00:0A:00:00:00:00;1727136889;24/09/24;00:14:49;1.007;-0.009;0.162;0.0024434609804302454;-0.010995574295520782;0.0024434609804302454
01:00:0A:00:00:00:00;1727136890;24/09/24;00:14:50;1.007;-0.009;0.162;0.0024434609804302454;-0.010995574295520782;0.0024434609804302454
01:00:0A:00:00:00:00;1727136891;24/09/24;00:14:51;1.008;-0.009;0.163;0.0024434609804302454;-0.010995574295520782;0.0024434609804302454
01:00:0A:00:00:00:00;1727136892;24/09/24;00:14:52;1.007;-0.009;0.162;0.0024434609804302454;-0.010995574295520782;0.0024434609804302454
01:00:0A:00:00:00:00;1727136893;24/09/24;00:14:53;1.008;-0.008;0.163;0.0024434609804302454;-0.010995574295520782;0.0024434609804302454
01:00:0A:00:00:00:00;1727136894;24/09/24;00:14:54;1.007;-0.009;0.163;0.0024434609804302454;-0.010995574295520782;0.0024434609804302454
01:00:0A:00:00:00:00;1727136895;24/09/24;00:14:55;1.007;-0.01;0.162;0.0024434609804302454;-0.010995574295520782;0.0024434609804302454
01:00:0A:00:00:00:00;1727136896;24/09/24;00:14:56;1.007;-0.009;0.162;0.0024434609804302454;-0.010995574295520782;0.0024434609804302454
01:00:0A:00:00:00:00;1727136897;24/09/24;00:14:57;1.008;-0.01;0.162;0.0036651913542300463;-0.010995574295520782;0.0024434609804302454
01:00:0A:00:00:00:00;1727136898;24/09/24;00:14:58;1.007;-0.008;0.162;0.0024434609804302454;-0.010995574295520782;0.0024434609804302454
01:00:0A:00:00:00:00;1727136899;24/09/24;00:14:59;1.007;-0.008;0.162;0.0036651913542300463;-0.010995574295520782;0.0024434609804302454
01:00:0A:00:00:00:00;1727136900;24/09/24;00:15:00;1.007;-0.009;0.163;0.0036651913542300463;-0.010995574295520782;0.0024434609804302454
01:00:0A:00:00:00:00;1727136901;24/09/24;00:15:01;1.007;-0.008;0.162;0.0036651913542300463;-0.010995574295520782;0.0024434609804302454
01:00:0A:00:00:00:00;1727136902;24/09/24;00:15:02;1.007;-0.009;0.163;0.0036651913542300463;-0.010995574295520782;0.0024434609804302454
01:00:0A:00:00:00:00;1727136903;24/09/24;00:15:03;1.008;-0.009;0.163;0.0036651913542300463;-0.010995574295520782;0.0024434609804302454
01:00:0A:00:00:00:00;1727136904;24/09/24;00:15:04;1.008;-0.008;0.162;0.0036651913542300463;-0.010995574295520782;0.0024434609804302454
01:00:0A:00:00:00:00;1727136905;24/09/24;00:15:05;1.008;-0.009;0.162;0.0036651913542300463;-0.010995574295520782;0.0024434609804302454
