Source;Epoch timestamp (UTC);Date;Time (UTC);Accel X (G);Accel Y (G);Accel Z (G);Gyro X (rad/s);Gyro Y (rad/s);Gyro Z (rad/s)
01:00:0A:00:00:00:00;1725580813;06/09/24;00:00:13;0.0;0.0;0.0;0.0;0.0;0.0
01:00:0A:00:00:00:00;1725580814;06/09/24;00:00:14;0.0;0.0;0.0;0.0;0.0;0.0
01:00:0A:00:00:00:00;1725580815;06/09/24;00:00:15;0.0;0.0;0.0;0.0;0.0;0.0
01:00:0A:00:00:00:00;1725580816;06/09/24;00:00:16;0.0;0.0;0.0;0.0;0.0;0.0
01:00:0A:00:00:00:00;1725580817;06/09/24;00:00:17;0.0;0.0;0.0;0.0;0.0;0.0
01:00:0A:00:00:00:00;1725580818;06/09/24;00:00:18;0.0;0.0;0.0;0.0;0.0;0.0
01:00:0A:00:00:00:00;1725580819;06/09/24;00:00:19;0.0;0.0;0.0;0.0;0.0;0.0
01:00:0A:00:00:00:00;1725580820;06/09/24;00:00:20;0.0;0.0;0.0;0.0;0.0;0.0
01:00:0A:00:00:00:00;1725580821;06/09/24;00:00:21;0.0;0.0;0.0;0.0;0.0;0.0
01:00:0A:00:00:00:00;1725580822;06/09/24;00:00:22;0.0;0.0;0.0;0.0;0.0;0.0
01:00:0A:00:00:00:00;1725580823;06/09/24;00:00:23;0.0;0.0;0.0;0.0;0.0;0.0
01:00:0A:00:00:00:00;1725580824;06/09/24;00:00:24;0.0;0.0;0.0;0.0;0.0;0.0
01:00:0A:00:00:00:00;1725580825;06/09/24;00:00:25;0.0;0.0;0.0;0.0;0.0;0.0
01:00:0A:00:00:00:00;1725580826;06/09/24;00:00:26;0.0;0.0;0.0;0.0;0.0;0.0
01:00:0A:00:00:00:00;1725580827;06/09/24;00:00:27;0.0;0.0;0.0;0.0;0.0;0.0
01:00:0A:00:00:00:00;1725580828;06/09/24;00:00:28;0.0;0.0;0.0;0.0;0.0;0.0
01:00:0A:00:00:00:00;1725580829;06/09/24;00:00:29;0.0;0.0;0.0;0.0;0.0;0.0
01:00:0A:00:00:00:00;1725580830;06/09/24;00:00:30;0.0;0.0;0.0;0.0;0.0;0.0
01:00:0A:00:00:00:00;1725580831;06/09/24;00:00:31;0.0;0.0;0.0;0.0;0.0;0.0
01:00:0A:00:00:00:00;1725580832;06/09/24;00:00:32;0.0;0.0;0.0;0.0;0.0;0.0
01:00:0A:00:00:00:00;1725580833;06/09/24;00:00:33;0.0;0.0;0.0;0.0;0.0;0.0
01:00:0A:00:00:00:00;1725580834;06/09/24;00:00:34;0.0;0.0;0.0;0.0;0.0;0.0
01:00:0A:00:00:00:00;1725580835;06/09/24;00:00:35;0.0;0.0;0.0;0.0;0.0;0.0
01:00:0A:00:00:00:00;1725580836;06/09/24;00:00:36;0.0;0.0;0.0;0.0;0.0;0.0
01:00:0A:00:00:00:00;1725580837;06/09/24;00:00:37;0.0;0.0;0.0;0.0;0.0;0.0
01:00:0A:00:00:00:00;1725580838;06/09/24;00:00:38;0.0;0.0;0.0;0.0;0.0;0.0
01:00:0A:00:00:00:00;1725580839;06/09/24;00:00:39;0.0;0.0;0.0;0.0;0.0;0.0
01:00:0A:00:00:00:00;1725580840;06/09/24;00:00:40;0.0;0.0;0.0;0.0;0.0;0.0
01:00:0A:00:00:00:00;1725580841;06/09/24;00:00:41;0.0;0.0;0.0;0.0;0.0;0.0
01:00:0A:00:00:00:00;1725580842;06/09/24;00:00:42;0.0;0.0;0.0;0.0;0.0;0.0
01:00:0A:00:00:00:00;1725580843;06/09/24;00:00:43;0.0;0.0;0.0;0.0;0.0;0.0
01:00:0A:00:00:00:00;1725580844;06/09/24;00:00:44;0.0;0.0;0.0;0.0;0.0;0.0
01:00:0A:00:00:00:00;1725580845;06/09/24;00:00:45;0.0;0.0;0.0;0.0;0.0;0.0
01:00:0A:00:00:00:00;1725580846;06/09/24;00:00:46;0.0;0.0;0.0;0.0;0.0;0.0
01:00:0A:00:00:00:00;1725580847;06/09/24;00:00:47;0.0;0.0;0.0;0.0;0.0;0.0
01:00:0A:00:00:00:00;1725580848;06/09/24;00:00:48;0.0;0.0;0.0;0.0;0.0;0.0
01:00:0A:00:00:00:00;1725580849;06/09/24;00:00:49;0.0;0.0;0.0;0.0;0.0;0.0
01:00:0A:00:00:00:00;1725580850;06/09/24;00:00:50;0.0;0.0;0.0;0.0;0.0;0.0
01:00:0A:00:00:00:00;1725580851;06/09/24;00:00:51;0.0;0.0;0.0;0.0;0.0;0.0
01:00:0A:00:00:00:00;1725580852;06/09/24;00:00:52;0.0;0.0;0.0;0.0;0.0;0.0
01:00:0A:00:00:00:00;1725580853;06/09/24;00:00:53;0.0;0.0;0.0;0.0;0.0;0.0
01:00:0A:00:00:00:00;1725580854;06/09/24;00:00:54;0.0;0.0;0.0;0.0;0.0;0.0
01:00:0A:00:00:00:00;1725580855;06/09/24;00:00:55;0.0;0.0;0.0;0.0;0.0;0.0
01:00:0A:00:00:00:00;1725580856;06/09/24;00:00:56;0.0;0.0;0.0;0.0;0.0;0.0
01:00:0A:00:00:00:00;1725580857;06/09/24;00:00:57;0.0;0.0;0.0;0.0;0.0;0.0
01:00:0A:00:00:00:00;1725580858;06/09/24;00:00:58;0.0;0.0;0.0;0.0;0.0;0.0
01:00:0A:00:00:00:00;1725580859;06/09/24;00:00:59;0.0;0.0;0.0;0.0;0.0;0.0
01:00:0A:00:00:00:00;1725580860;06/09/24;00:01:00;0.0;0.0;0.0;0.0;0.0;0.0
01:00:0A:00:00:00:00;1725580861;06/09/24;00:01:01;0.0;0.0;0.0;0.0;0.0;0.0
01:00:0A:00:00:00:00;1725580862;06/09/24;00:01:02;0.0;0.0;0.0;0.0;0.0;0.0
01:00:0A:00:00:00:00;1725580863;06/09/24;00:01:03;0.0;0.0;0.0;0.0;0.0;0.0
01:00:0A:00:00:00:00;1725580864;06/09/24;00:01:04;0.0;0.0;0.0;0.0;0.0;0.0
01:00:0A:00:00:00:00;1725580865;06/09/24;00:01:05;0.0;0.0;0.0;0.0;0.0;0.0
01:00:0A:00:00:00:00;1725580866;06/09/24;00:01:06;0.0;0.0;0.0;0.0;0.0;0.0
01:00:0A:00:00:00:00;1725580867;06/09/24;00:01:07;0.0;0.0;0.0;0.0;0.0;0.0
01:00:0A:00:00:00:00;1725580868;06/09/24;00:01:08;0.0;0.0;0.0;0.0;0.0;0.0
01:00:0A:00:00:00:00;1725580869;06/09/24;00:01:09;0.0;0.0;0.0;0.0;0.0;0.0
01:00:0A:00:00:00:00;1725580870;06/09/24;00:01:10;0.0;0.0;0.0;0.0;0.0;0.0
01:00:0A:00:00:00:00;1725580871;06/09/24;00:01:11;0.0;0.0;0.0;0.0;0.0;0.0
01:00:0A:00:00:00:00;1725580872;06/09/24;00:01:12;0.0;0.0;0.0;0.0;0.0;0.0
01:00:0A:00:00:00:00;1725580873;06/09/24;00:01:13;0.0;0.0;0.0;0.0;0.0;0.0
01:00:0A:00:00:00:00;1725580874;06/09/24;00:01:14;0.0;0.0;0.0;0.0;0.0;0.0
01:00:0A:00:00:00:00;1725580875;06/09/24;00:01:15;0.0;0.0;0.0;0.0;0.0;0.0
01:00:0A:00:00:00:00;1725580876;06/09/24;00:01:16;0.0;0.0;0.0;0.0;0.0;0.0
01:00:0A:00:00:00:00;1725580877;06/09/24;00:01:17;0.0;0.0;0.0;0.0;0.0;0.0
01:00:0A:00:00:00:00;1725580878;06/09/24;00:01:18;0.0;0.0;0.0;0.0;0.0;0.0
01:00:0A:00:00:00:00;1725580879;06/09/24;00:01:19;0.0;0.0;0.0;0.0;0.0;0.0
01:00:0A:00:00:00:00;1725580880;06/09/24;00:01:20;0.0;0.0;0.0;0.0;0.0;0.0
01:00:0A:00:00:00:00;1725580881;06/09/24;00:01:21;0.0;0.0;0.0;0.0;0.0;0.0
01:00:0A:00:00:00:00;1725580882;06/09/24;00:01:22;0.0;0.0;0.0;0.0;0.0;0.0
01:00:0A:00:00:00:00;1725580883;06/09/24;00:01:23;0.0;0.0;0.0;0.0;0.0;0.0
01:00:0A:00:00:00:00;1725580884;06/09/24;00:01:24;0.0;0.0;0.0;0.0;0.0;0.0
01:00:0A:00:00:00:00;1725580885;06/09/24;00:01:25;0.0;0.0;0.0;0.0;0.0;0.0
01:00:0A:00:00:00:00;1725580886;06/09/24;00:01:26;0.0;0.0;0.0;0.0;0.0;0.0
01:00:0A:00:00:00:00;1725580887;06/09/24;00:01:27;0.0;0.0;0.0;0.0;0.0;0.0
01:00:0A:00:00:00:00;1725580888;06/09/24;00:01:28;0.0;0.0;0.0;0.0;0.0;0.0
01:00:0A:00:00:00:00;1725580889;06/09/24;00:01:29;0.0;0.0;0.0;0.0;0.0;0.0
01:00:0A:00:00:00:00;1725580890;06/09/24;00:01:30;0.0;0.0;0.0;0.0;0.0;0.0
01:00:0A:00:00:00:00;1725580891;06/09/24;00:01:31;0.0;0.0;0.0;0.0;0.0;0.0
01:00:0A:00:00:00:00;1725580892;06/09/24;00:01:32;0.0;0.0;0.0;0.0;0.0;0.0
01:00:0A:00:00:00:00;1725580893;06/09/24;00:01:33;0.0;0.0;0.0;0.0;0.0;0.0
01:00:0A:00:00:00:00;1725580894;06/09/24;00:01:34;0.0;0.0;0.0;0.0;0.0;0.0
01:00:0A:00:00:00:00;1725580895;06/09/24;00:01:35;0.0;0.0;0.0;0.0;0.0;0.0
01:00:0A:00:00:00:00;1725580896;06/09/24;00:01:36;0.0;0.0;0.0;0.0;0.0;0.0
01:00:0A:00:00:00:00;1725580897;06/09/24;00:01:37;0.0;0.0;0.0;0.0;0.0;0.0
01:00:0A:00:00:00:00;1725580898;06/09/24;00:01:38;0.0;0.0;0.0;0.0;0.0;0.0
01:00:0A:00:00:00:00;1725580899;06/09/24;00:01:39;0.0;0.0;0.0;0.0;0.0;0.0
01:00:0A:00:00:00:00;1725580900;06/09/24;00:01:40;0.0;0.0;0.0;0.0;0.0;0.0
01:00:0A:00:00:00:00;1725580901;06/09/24;00:01:41;0.0;0.0;0.0;0.0;0.0;0.0
01:00:0A:00:00:00:00;1725580902;06/09/24;00:01:42;0.0;0.0;0.0;0.0;0.0;0.0
01:00:0A:00:00:00:00;1725580903;06/09/24;00:01:43;0.0;0.0;0.0;0.0;0.0;0.0
01:00:0A:00:00:00:00;1725580904;06/09/24;00:01:44;0.0;0.0;0.0;0.0;0.0;0.0
01:00:0A:00:00:00:00;1725580905;06/09/24;00:01:45;0.0;0.0;0.0;0.0;0.0;0.0
01:00:0A:00:00:00:00;1725580906;06/09/24;00:01:46;0.0;0.0;0.0;0.0;0.0;0.0
01:00:0A:00:00:00:00;1725580907;06/09/24;00:01:47;0.0;0.0;0.0;0.0;0.0;0.0
01:00:0A:00:00:00:00;1725580908;06/09/24;00:01:48;0.0;0.0;0.0;0.0;0.0;0.0
01:00:0A:00:00:00:00;1725580909;06/09/24;00:01:49;0.0;0.0;0.0;0.0;0.0;0.0
01:00:0A:00:00:00:00;1725580910;06/09/24;00:01:50;0.0;0.0;0.0;0.0;0.0;0.0
01:00:0A:00:00:00:00;1725580911;06/09/24;00:01:51;0.0;0.0;0.0;0.0;0.0;0.0
01:00:0A:00:00:00:00;1725580912;06/09/24;00:01:52;0.0;0.0;0.0;0.0;0.0;0.0
01:00:0A:00:00:00:00;1725580913;06/09/24;00:01:53;0.0;0.0;0.0;0.0;0.0;0.0
01:00:0A:00:00:00:00;1725580914;06/09/24;00:01:54;0.0;0.0;0.0;0.0;0.0;0.0
01:00:0A:00:00:00:00;1725580915;06/09/24;00:01:55;0.0;0.0;0.0;0.0;0.0;0.0
01:00:0A:00:00:00:00;1725580916;06/09/24;00:01:56;0.0;0.0;0.0;0.0;0.0;0.0
01:00:0A:00:00:00:00;1725580917;06/09/24;00:01:57;0.0;0.0;0.0;0.0;0.0;0.0
01:00:0A:00:00:00:00;1725580918;06/09/24;00:01:58;0.0;0.0;0.0;0.0;0.0;0.0
01:00:0A:00:00:00:00;1725580919;06/09/24;00:01:59;0.0;0.0;0.0;0.0;0.0;0.0
01:00:0A:00:00:00:00;1725580920;06/09/24;00:02:00;0.0;0.0;0.0;0.0;0.0;0.0
01:00:0A:00:00:00:00;1725580921;06/09/24;00:02:01;0.0;0.0;0.0;0.0;0.0;0.0
01:00:0A:00:00:00:00;1725580922;06/09/24;00:02:02;0.0;0.0;0.0;0.0;0.0;0.0
01:00:0A:00:00:00:00;1725580923;06/09/24;00:02:03;0.0;0.0;0.0;0.0;0.0;0.0
01:00:0A:00:00:00:00;1725580924;06/09/24;00:02:04;0.0;0.0;0.0;0.0;0.0;0.0
01:00:0A:00:00:00:00;1725580925;06/09/24;00:02:05;0.0;0.0;0.0;0.0;0.0;0.0
01:00:0A:00:00:00:00;1725580926;06/09/24;00:02:06;0.0;0.0;0.0;0.0;0.0;0.0
01:00:0A:00:00:00:00;1725580927;06/09/24;00:02:07;0.0;0.0;0.0;0.0;0.0;0.0
01:00:0A:00:00:00:00;1725580928;06/09/24;00:02:08;0.0;0.0;0.0;0.0;0.0;0.0
01:00:0A:00:00:00:00;1725580929;06/09/24;00:02:09;0.0;0.0;0.0;0.0;0.0;0.0
01:00:0A:00:00:00:00;1725580930;06/09/24;00:02:10;0.0;0.0;0.0;0.0;0.0;0.0
01:00:0A:00:00:00:00;1725580931;06/09/24;00:02:11;0.0;0.0;0.0;0.0;0.0;0.0
01:00:0A:00:00:00:00;1725580932;06/09/24;00:02:12;0.0;0.0;0.0;0.0;0.0;0.0
01:00:0A:00:00:00:00;1725580933;06/09/24;00:02:13;0.0;0.0;0.0;0.0;0.0;0.0
01:00:0A:00:00:00:00;1725580934;06/09/24;00:02:14;0.0;0.0;0.0;0.0;0.0;0.0
01:00:0A:00:00:00:00;1725580935;06/09/24;00:02:15;0.0;0.0;0.0;0.0;0.0;0.0
01:00:0A:00:00:00:00;1725580936;06/09/24;00:02:16;0.0;0.0;0.0;0.0;0.0;0.0
01:00:0A:00:00:00:00;1725580937;06/09/24;00:02:17;0.0;0.0;0.0;0.0;0.0;0.0
01:00:0A:00:00:00:00;1725580938;06/09/24;00:02:18;0.0;0.0;0.0;0.0;0.0;0.0
01:00:0A:00:00:00:00;1725580939;06/09/24;00:02:19;0.0;0.0;0.0;0.0;0.0;0.0
01:00:0A:00:00:00:00;1725580940;06/09/24;00:02:20;0.0;0.0;0.0;0.0;0.0;0.0
01:00:0A:00:00:00:00;1725580941;06/09/24;00:02:21;0.0;0.0;0.0;0.0;0.0;0.0
01:00:0A:00:00:00:00;1725580942;06/09/24;00:02:22;0.0;0.0;0.0;0.0;0.0;0.0
01:00:0A:00:00:00:00;1725580943;06/09/24;00:02:23;0.0;0.0;0.0;0.0;0.0;0.0
01:00:0A:00:00:00:00;1725580944;06/09/24;00:02:24;0.0;0.0;0.0;0.0;0.0;0.0
01:00:0A:00:00:00:00;1725580945;06/09/24;00:02:25;0.0;0.0;0.0;0.0;0.0;0.0
01:00:0A:00:00:00:00;1725580946;06/09/24;00:02:26;0.0;0.0;0.0;0.0;0.0;0.0
01:00:0A:00:00:00:00;1725580947;06/09/24;00:02:27;0.0;0.0;0.0;0.0;0.0;0.0
01:00:0A:00:00:00:00;1725580948;06/09/24;00:02:28;0.0;0.0;0.0;0.0;0.0;0.0
01:00:0A:00:00:00:00;1725580949;06/09/24;00:02:29;0.0;0.0;0.0;0.0;0.0;0.0
01:00:0A:00:00:00:00;1725580950;06/09/24;00:02:30;0.0;0.0;0.0;0.0;0.0;0.0
01:00:0A:00:00:00:00;1725580951;06/09/24;00:02:31;0.0;0.0;0.0;0.0;0.0;0.0
01:00:0A:00:00:00:00;1725580952;06/09/24;00:02:32;0.0;0.0;0.0;0.0;0.0;0.0
01:00:0A:00:00:00:00;1725580953;06/09/24;00:02:33;0.0;0.0;0.0;0.0;0.0;0.0
01:00:0A:00:00:00:00;1725580954;06/09/24;00:02:34;0.0;0.0;0.0;0.0;0.0;0.0
01:00:0A:00:00:00:00;1725580955;06/09/24;00:02:35;0.0;0.0;0.0;0.0;0.0;0.0
01:00:0A:00:00:00:00;1725580956;06/09/24;00:02:36;0.0;0.0;0.0;0.0;0.0;0.0
01:00:0A:00:00:00:00;1725580957;06/09/24;00:02:37;0.0;0.0;0.0;0.0;0.0;0.0
01:00:0A:00:00:00:00;1725580958;06/09/24;00:02:38;0.0;0.0;0.0;0.0;0.0;0.0
01:00:0A:00:00:00:00;1725580959;06/09/24;00:02:39;0.0;0.0;0.0;0.0;0.0;0.0
01:00:0A:00:00:00:00;1725580960;06/09/24;00:02:40;0.0;0.0;0.0;0.0;0.0;0.0
01:00:0A:00:00:00:00;1725580961;06/09/24;00:02:41;0.0;0.0;0.0;0.0;0.0;0.0
01:00:0A:00:00:00:00;1725580962;06/09/24;00:02:42;0.0;0.0;0.0;0.0;0.0;0.0
01:00:0A:00:00:00:00;1725580963;06/09/24;00:02:43;0.0;0.0;0.0;0.0;0.0;0.0
01:00:0A:00:00:00:00;1725580964;06/09/24;00:02:44;0.0;0.0;0.0;0.0;0.0;0.0
01:00:0A:00:00:00:00;1725580965;06/09/24;00:02:45;0.0;0.0;0.0;0.0;0.0;0.0
01:00:0A:00:00:00:00;1725580966;06/09/24;00:02:46;0.0;0.0;0.0;0.0;0.0;0.0
01:00:0A:00:00:00:00;1725580967;06/09/24;00:02:47;0.0;0.0;0.0;0.0;0.0;0.0
01:00:0A:00:00:00:00;1725580968;06/09/24;00:02:48;0.0;0.0;0.0;0.0;0.0;0.0
01:00:0A:00:00:00:00;1725580969;06/09/24;00:02:49;0.0;0.0;0.0;0.0;0.0;0.0
01:00:0A:00:00:00:00;1725580970;06/09/24;00:02:50;0.0;0.0;0.0;0.0;0.0;0.0
01:00:0A:00:00:00:00;1725580971;06/09/24;00:02:51;0.0;0.0;0.0;0.0;0.0;0.0
01:00:0A:00:00:00:00;1725580972;06/09/24;00:02:52;0.0;0.0;0.0;0.0;0.0;0.0
01:00:0A:00:00:00:00;1725580973;06/09/24;00:02:53;0.0;0.0;0.0;0.0;0.0;0.0
01:00:0A:00:00:00:00;1725580974;06/09/24;00:02:54;0.0;0.0;0.0;0.0;0.0;0.0
01:00:0A:00:00:00:00;1725580975;06/09/24;00:02:55;0.0;0.0;0.0;0.0;0.0;0.0
01:00:0A:00:00:00:00;1725580976;06/09/24;00:02:56;0.0;0.0;0.0;0.0;0.0;0.0
01:00:0A:00:00:00:00;1725580977;06/09/24;00:02:57;0.0;0.0;0.0;0.0;0.0;0.0
01:00:0A:00:00:00:00;1725580978;06/09/24;00:02:58;0.0;0.0;0.0;0.0;0.0;0.0
01:00:0A:00:00:00:00;1725580979;06/09/24;00:02:59;0.0;0.0;0.0;0.0;0.0;0.0
01:00:0A:00:00:00:00;1725580980;06/09/24;00:03:00;0.0;0.0;0.0;0.0;0.0;0.0
01:00:0A:00:00:00:00;1725580981;06/09/24;00:03:01;0.0;0.0;0.0;0.0;0.0;0.0
01:00:0A:00:00:00:00;1725580982;06/09/24;00:03:02;0.0;0.0;0.0;0.0;0.0;0.0
01:00:0A:00:00:00:00;1725580983;06/09/24;00:03:03;0.0;0.0;0.0;0.0;0.0;0.0
01:00:0A:00:00:00:00;1725580984;06/09/24;00:03:04;0.0;0.0;0.0;0.0;0.0;0.0
01:00:0A:00:00:00:00;1725580985;06/09/24;00:03:05;0.0;0.0;0.0;0.0;0.0;0.0
01:00:0A:00:00:00:00;1725580986;06/09/24;00:03:06;0.0;0.0;0.0;0.0;0.0;0.0
01:00:0A:00:00:00:00;1725580987;06/09/24;00:03:07;0.0;0.0;0.0;0.0;0.0;0.0
01:00:0A:00:00:00:00;1725580988;06/09/24;00:03:08;0.0;0.0;0.0;0.0;0.0;0.0
01:00:0A:00:00:00:00;1725580989;06/09/24;00:03:09;0.0;0.0;0.0;0.0;0.0;0.0
01:00:0A:00:00:00:00;1725580990;06/09/24;00:03:10;0.0;0.0;0.0;0.0;0.0;0.0
01:00:0A:00:00:00:00;1725580991;06/09/24;00:03:11;0.0;0.0;0.0;0.0;0.0;0.0
01:00:0A:00:00:00:00;1725580992;06/09/24;00:03:12;0.0;0.0;0.0;0.0;0.0;0.0
01:00:0A:00:00:00:00;1725580993;06/09/24;00:03:13;0.0;0.0;0.0;0.0;0.0;0.0
01:00:0A:00:00:00:00;1725580994;06/09/24;00:03:14;0.0;0.0;0.0;0.0;0.0;0.0
01:00:0A:00:00:00:00;1725580995;06/09/24;00:03:15;0.0;0.0;0.0;0.0;0.0;0.0
01:00:0A:00:00:00:00;1725580996;06/09/24;00:03:16;0.0;0.0;0.0;0.0;0.0;0.0
01:00:0A:00:00:00:00;1725580997;06/09/24;00:03:17;0.0;0.0;0.0;0.0;0.0;0.0
01:00:0A:00:00:00:00;1725580998;06/09/24;00:03:18;0.0;0.0;0.0;0.0;0.0;0.0
01:00:0A:00:00:00:00;1725580999;06/09/24;00:03:19;0.0;0.0;0.0;0.0;0.0;0.0
01:00:0A:00:00:00:00;1725581000;06/09/24;00:03:20;0.0;0.0;0.0;0.0;0.0;0.0
01:00:0A:00:00:00:00;1725581001;06/09/24;00:03:21;0.0;0.0;0.0;0.0;0.0;0.0
01:00:0A:00:00:00:00;1725581002;06/09/24;00:03:22;0.0;0.0;0.0;0.0;0.0;0.0
01:00:0A:00:00:00:00;1725581003;06/09/24;00:03:23;0.0;0.0;0.0;0.0;0.0;0.0
01:00:0A:00:00:00:00;1725581004;06/09/24;00:03:24;0.0;0.0;0.0;0.0;0.0;0.0
01:00:0A:00:00:00:00;1725581005;06/09/24;00:03:25;0.0;0.0;0.0;0.0;0.0;0.0
01:00:0A:00:00:00:00;1725581006;06/09/24;00:03:26;0.0;0.0;0.0;0.0;0.0;0.0
01:00:0A:00:00:00:00;1725581007;06/09/24;00:03:27;0.0;0.0;0.0;0.0;0.0;0.0
01:00:0A:00:00:00:00;1725581008;06/09/24;00:03:28;0.0;0.0;0.0;0.0;0.0;0.0
01:00:0A:00:00:00:00;1725581009;06/09/24;00:03:29;0.0;0.0;0.0;0.0;0.0;0.0
01:00:0A:00:00:00:00;1725581010;06/09/24;00:03:30;0.0;0.0;0.0;0.0;0.0;0.0
01:00:0A:00:00:00:00;1725581011;06/09/24;00:03:31;0.0;0.0;0.0;0.0;0.0;0.0
01:00:0A:00:00:00:00;1725581012;06/09/24;00:03:32;0.0;0.0;0.0;0.0;0.0;0.0
01:00:0A:00:00:00:00;1725581013;06/09/24;00:03:33;0.0;0.0;0.0;0.0;0.0;0.0
01:00:0A:00:00:00:00;1725581014;06/09/24;00:03:34;0.0;0.0;0.0;0.0;0.0;0.0
01:00:0A:00:00:00:00;1725581015;06/09/24;00:03:35;0.0;0.0;0.0;0.0;0.0;0.0
01:00:0A:00:00:00:00;1725581016;06/09/24;00:03:36;0.0;0.0;0.0;0.0;0.0;0.0
01:00:0A:00:00:00:00;1725581017;06/09/24;00:03:37;0.0;0.0;0.0;0.0;0.0;0.0
01:00:0A:00:00:00:00;1725581018;06/09/24;00:03:38;0.0;0.0;0.0;0.0;0.0;0.0
01:00:0A:00:00:00:00;1725581019;06/09/24;00:03:39;0.0;0.0;0.0;0.0;0.0;0.0
01:00:0A:00:00:00:00;1725581020;06/09/24;00:03:40;0.0;0.0;0.0;0.0;0.0;0.0
01:00:0A:00:00:00:00;1725581021;06/09/24;00:03:41;0.0;0.0;0.0;0.0;0.0;0.0
01:00:0A:00:00:00:00;1725581022;06/09/24;00:03:42;0.0;0.0;0.0;0.0;0.0;0.0
01:00:0A:00:00:00:00;1725581023;06/09/24;00:03:43;0.0;0.0;0.0;0.0;0.0;0.0
01:00:0A:00:00:00:00;1725581024;06/09/24;00:03:44;0.0;0.0;0.0;0.0;0.0;0.0
01:00:0A:00:00:00:00;1725581025;06/09/24;00:03:45;0.0;0.0;0.0;0.0;0.0;0.0
01:00:0A:00:00:00:00;1725581026;06/09/24;00:03:46;0.0;0.0;0.0;0.0;0.0;0.0
01:00:0A:00:00:00:00;1725581027;06/09/24;00:03:47;0.0;0.0;0.0;0.0;0.0;0.0
01:00:0A:00:00:00:00;1725581028;06/09/24;00:03:48;0.0;0.0;0.0;0.0;0.0;0.0
01:00:0A:00:00:00:00;1725581029;06/09/24;00:03:49;0.0;0.0;0.0;0.0;0.0;0.0
01:00:0A:00:00:00:00;1725581030;06/09/24;00:03:50;0.0;0.0;0.0;0.0;0.0;0.0
01:00:0A:00:00:00:00;1725581031;06/09/24;00:03:51;0.0;0.0;0.0;0.0;0.0;0.0
01:00:0A:00:00:00:00;1725581032;06/09/24;00:03:52;0.0;0.0;0.0;0.0;0.0;0.0
01:00:0A:00:00:00:00;1725581033;06/09/24;00:03:53;0.0;0.0;0.0;0.0;0.0;0.0
01:00:0A:00:00:00:00;1725581034;06/09/24;00:03:54;0.0;0.0;0.0;0.0;0.0;0.0
01:00:0A:00:00:00:00;1725581035;06/09/24;00:03:55;0.0;0.0;0.0;0.0;0.0;0.0
01:00:0A:00:00:00:00;1725581036;06/09/24;00:03:56;0.0;0.0;0.0;0.0;0.0;0.0
01:00:0A:00:00:00:00;1725581037;06/09/24;00:03:57;0.0;0.0;0.0;0.0;0.0;0.0
01:00:0A:00:00:00:00;1725581038;06/09/24;00:03:58;0.0;0.0;0.0;0.0;0.0;0.0
01:00:0A:00:00:00:00;1725581039;06/09/24;00:03:59;0.0;0.0;0.0;0.0;0.0;0.0
01:00:0A:00:00:00:00;1725581040;06/09/24;00:04:00;0.0;0.0;0.0;0.0;0.0;0.0
01:00:0A:00:00:00:00;1725581041;06/09/24;00:04:01;0.0;0.0;0.0;0.0;0.0;0.0
01:00:0A:00:00:00:00;1725581042;06/09/24;00:04:02;0.0;0.0;0.0;0.0;0.0;0.0
01:00:0A:00:00:00:00;1725581043;06/09/24;00:04:03;0.0;0.0;0.0;0.0;0.0;0.0
01:00:0A:00:00:00:00;1725581044;06/09/24;00:04:04;0.0;0.0;0.0;0.0;0.0;0.0
01:00:0A:00:00:00:00;1725581045;06/09/24;00:04:05;0.0;0.0;0.0;0.0;0.0;0.0
01:00:0A:00:00:00:00;1725581046;06/09/24;00:04:06;0.0;0.0;0.0;0.0;0.0;0.0
01:00:0A:00:00:00:00;1725581047;06/09/24;00:04:07;0.0;0.0;0.0;0.0;0.0;0.0
01:00:0A:00:00:00:00;1725581048;06/09/24;00:04:08;0.0;0.0;0.0;0.0;0.0;0.0
01:00:0A:00:00:00:00;1725581049;06/09/24;00:04:09;0.0;0.0;0.0;0.0;0.0;0.0
01:00:0A:00:00:00:00;1725581050;06/09/24;00:04:10;0.0;0.0;0.0;0.0;0.0;0.0
01:00:0A:00:00:00:00;1725581051;06/09/24;00:04:11;0.0;0.0;0.0;0.0;0.0;0.0
01:00:0A:00:00:00:00;1725581052;06/09/24;00:04:12;0.0;0.0;0.0;0.0;0.0;0.0
01:00:0A:00:00:00:00;1725581053;06/09/24;00:04:13;0.0;0.0;0.0;0.0;0.0;0.0
01:00:0A:00:00:00:00;1725581054;06/09/24;00:04:14;0.0;0.0;0.0;0.0;0.0;0.0
01:00:0A:00:00:00:00;1725581055;06/09/24;00:04:15;0.0;0.0;0.0;0.0;0.0;0.0
01:00:0A:00:00:00:00;1725581056;06/09/24;00:04:16;0.0;0.0;0.0;0.0;0.0;0.0
01:00:0A:00:00:00:00;1725581057;06/09/24;00:04:17;0.0;0.0;0.0;0.0;0.0;0.0
01:00:0A:00:00:00:00;1725581058;06/09/24;00:04:18;0.0;0.0;0.0;0.0;0.0;0.0
01:00:0A:00:00:00:00;1725581059;06/09/24;00:04:19;0.0;0.0;0.0;0.0;0.0;0.0
01:00:0A:00:00:00:00;1725581060;06/09/24;00:04:20;0.0;0.0;0.0;0.0;0.0;0.0
01:00:0A:00:00:00:00;1725581061;06/09/24;00:04:21;0.0;0.0;0.0;0.0;0.0;0.0
01:00:0A:00:00:00:00;1725581062;06/09/24;00:04:22;0.0;0.0;0.0;0.0;0.0;0.0
01:00:0A:00:00:00:00;1725581063;06/09/24;00:04:23;0.0;0.0;0.0;0.0;0.0;0.0
01:00:0A:00:00:00:00;1725581064;06/09/24;00:04:24;0.0;0.0;0.0;0.0;0.0;0.0
01:00:0A:00:00:00:00;1725581065;06/09/24;00:04:25;0.0;0.0;0.0;0.0;0.0;0.0
01:00:0A:00:00:00:00;1725581066;06/09/24;00:04:26;0.0;0.0;0.0;0.0;0.0;0.0
01:00:0A:00:00:00:00;1725581067;06/09/24;00:04:27;0.0;0.0;0.0;0.0;0.0;0.0
01:00:0A:00:00:00:00;1725581068;06/09/24;00:04:28;0.0;0.0;0.0;0.0;0.0;0.0
01:00:0A:00:00:00:00;1725581069;06/09/24;00:04:29;0.0;0.0;0.0;0.0;0.0;0.0
01:00:0A:00:00:00:00;1725581070;06/09/24;00:04:30;0.0;0.0;0.0;0.0;0.0;0.0
01:00:0A:00:00:00:00;1725581071;06/09/24;00:04:31;0.0;0.0;0.0;0.0;0.0;0.0
01:00:0A:00:00:00:00;1725581072;06/09/24;00:04:32;0.0;0.0;0.0;0.0;0.0;0.0
01:00:0A:00:00:00:00;1725581073;06/09/24;00:04:33;0.0;0.0;0.0;0.0;0.0;0.0
01:00:0A:00:00:00:00;1725581074;06/09/24;00:04:34;0.0;0.0;0.0;0.0;0.0;0.0
01:00:0A:00:00:00:00;1725581075;06/09/24;00:04:35;0.0;0.0;0.0;0.0;0.0;0.0
01:00:0A:00:00:00:00;1725581076;06/09/24;00:04:36;0.0;0.0;0.0;0.0;0.0;0.0
01:00:0A:00:00:00:00;1725581077;06/09/24;00:04:37;0.0;0.0;0.0;0.0;0.0;0.0
01:00:0A:00:00:00:00;1725581078;06/09/24;00:04:38;0.0;0.0;0.0;0.0;0.0;0.0
01:00:0A:00:00:00:00;1725581079;06/09/24;00:04:39;0.0;0.0;0.0;0.0;0.0;0.0
01:00:0A:00:00:00:00;1725581080;06/09/24;00:04:40;0.0;0.0;0.0;0.0;0.0;0.0
01:00:0A:00:00:00:00;1725581081;06/09/24;00:04:41;0.0;0.0;0.0;0.0;0.0;0.0
01:00:0A:00:00:00:00;1725581082;06/09/24;00:04:42;0.0;0.0;0.0;0.0;0.0;0.0
01:00:0A:00:00:00:00;1725581083;06/09/24;00:04:43;0.0;0.0;0.0;0.0;0.0;0.0
01:00:0A:00:00:00:00;1725581084;06/09/24;00:04:44;0.0;0.0;0.0;0.0;0.0;0.0
01:00:0A:00:00:00:00;1725581085;06/09/24;00:04:45;0.0;0.0;0.0;0.0;0.0;0.0
01:00:0A:00:00:00:00;1725581086;06/09/24;00:04:46;0.0;0.0;0.0;0.0;0.0;0.0
01:00:0A:00:00:00:00;1725581087;06/09/24;00:04:47;0.0;0.0;0.0;0.0;0.0;0.0
01:00:0A:00:00:00:00;1725581088;06/09/24;00:04:48;0.0;0.0;0.0;0.0;0.0;0.0
01:00:0A:00:00:00:00;1725581089;06/09/24;00:04:49;0.0;0.0;0.0;0.0;0.0;0.0
01:00:0A:00:00:00:00;1725581090;06/09/24;00:04:50;0.0;0.0;0.0;0.0;0.0;0.0
01:00:0A:00:00:00:00;1725581091;06/09/24;00:04:51;0.0;0.0;0.0;0.0;0.0;0.0
01:00:0A:00:00:00:00;1725581092;06/09/24;00:04:52;0.0;0.0;0.0;0.0;0.0;0.0
01:00:0A:00:00:00:00;1725581093;06/09/24;00:04:53;0.0;0.0;0.0;0.0;0.0;0.0
01:00:0A:00:00:00:00;1725581094;06/09/24;00:04:54;0.0;0.0;0.0;0.0;0.0;0.0
01:00:0A:00:00:00:00;1725581095;06/09/24;00:04:55;0.0;0.0;0.0;0.0;0.0;0.0
01:00:0A:00:00:00:00;1725581096;06/09/24;00:04:56;0.0;0.0;0.0;0.0;0.0;0.0
01:00:0A:00:00:00:00;1725581097;06/09/24;00:04:57;0.0;0.0;0.0;0.0;0.0;0.0
01:00:0A:00:00:00:00;1725581098;06/09/24;00:04:58;0.0;0.0;0.0;0.0;0.0;0.0
01:00:0A:00:00:00:00;1725581099;06/09/24;00:04:59;0.0;0.0;0.0;0.0;0.0;0.0
01:00:0A:00:00:00:00;1725581100;06/09/24;00:05:00;0.0;0.0;0.0;0.0;0.0;0.0
01:00:0A:00:00:00:00;1725581101;06/09/24;00:05:01;0.0;0.0;0.0;0.0;0.0;0.0
01:00:0A:00:00:00:00;1725581102;06/09/24;00:05:02;0.0;0.0;0.0;0.0;0.0;0.0
01:00:0A:00:00:00:00;1725581103;06/09/24;00:05:03;0.0;0.0;0.0;0.0;0.0;0.0
01:00:0A:00:00:00:00;1725581104;06/09/24;00:05:04;0.0;0.0;0.0;0.0;0.0;0.0
01:00:0A:00:00:00:00;1725581105;06/09/24;00:05:05;0.0;0.0;0.0;0.0;0.0;0.0
01:00:0A:00:00:00:00;1725581106;06/09/24;00:05:06;0.0;0.0;0.0;0.0;0.0;0.0
01:00:0A:00:00:00:00;1725581107;06/09/24;00:05:07;0.0;0.0;0.0;0.0;0.0;0.0
01:00:0A:00:00:00:00;1725581108;06/09/24;00:05:08;0.0;0.0;0.0;0.0;0.0;0.0
01:00:0A:00:00:00:00;1725581109;06/09/24;00:05:09;0.0;0.0;0.0;0.0;0.0;0.0
01:00:0A:00:00:00:00;1725581110;06/09/24;00:05:10;0.0;0.0;0.0;0.0;0.0;0.0
01:00:0A:00:00:00:00;1725581111;06/09/24;00:05:11;0.0;0.0;0.0;0.0;0.0;0.0
01:00:0A:00:00:00:00;1725581112;06/09/24;00:05:12;0.0;0.0;0.0;0.0;0.0;0.0
01:00:0A:00:00:00:00;1725581113;06/09/24;00:05:13;0.0;0.0;0.0;0.0;0.0;0.0
01:00:0A:00:00:00:00;1725581114;06/09/24;00:05:14;0.0;0.0;0.0;0.0;0.0;0.0
01:00:0A:00:00:00:00;1725581115;06/09/24;00:05:15;0.0;0.0;0.0;0.0;0.0;0.0
01:00:0A:00:00:00:00;1725581116;06/09/24;00:05:16;0.0;0.0;0.0;0.0;0.0;0.0
01:00:0A:00:00:00:00;1725581117;06/09/24;00:05:17;0.0;0.0;0.0;0.0;0.0;0.0
01:00:0A:00:00:00:00;1725581118;06/09/24;00:05:18;0.0;0.0;0.0;0.0;0.0;0.0
01:00:0A:00:00:00:00;1725581119;06/09/24;00:05:19;0.0;0.0;0.0;0.0;0.0;0.0
01:00:0A:00:00:00:00;1725581120;06/09/24;00:05:20;0.0;0.0;0.0;0.0;0.0;0.0
01:00:0A:00:00:00:00;1725581121;06/09/24;00:05:21;0.0;0.0;0.0;0.0;0.0;0.0
01:00:0A:00:00:00:00;1725581122;06/09/24;00:05:22;0.0;0.0;0.0;0.0;0.0;0.0
01:00:0A:00:00:00:00;1725581123;06/09/24;00:05:23;0.0;0.0;0.0;0.0;0.0;0.0
01:00:0A:00:00:00:00;1725581124;06/09/24;00:05:24;0.0;0.0;0.0;0.0;0.0;0.0
01:00:0A:00:00:00:00;1725581125;06/09/24;00:05:25;0.0;0.0;0.0;0.0;0.0;0.0
01:00:0A:00:00:00:00;1725581126;06/09/24;00:05:26;0.0;0.0;0.0;0.0;0.0;0.0
01:00:0A:00:00:00:00;1725581127;06/09/24;00:05:27;0.0;0.0;0.0;0.0;0.0;0.0
01:00:0A:00:00:00:00;1725581128;06/09/24;00:05:28;0.0;0.0;0.0;0.0;0.0;0.0
01:00:0A:00:00:00:00;1725581129;06/09/24;00:05:29;0.0;0.0;0.0;0.0;0.0;0.0
01:00:0A:00:00:00:00;1725581130;06/09/24;00:05:30;0.0;0.0;0.0;0.0;0.0;0.0
01:00:0A:00:00:00:00;1725581131;06/09/24;00:05:31;0.0;0.0;0.0;0.0;0.0;0.0
01:00:0A:00:00:00:00;1725581132;06/09/24;00:05:32;0.0;0.0;0.0;0.0;0.0;0.0
01:00:0A:00:00:00:00;1725581133;06/09/24;00:05:33;0.0;0.0;0.0;0.0;0.0;0.0
01:00:0A:00:00:00:00;1725581134;06/09/24;00:05:34;0.0;0.0;0.0;0.0;0.0;0.0
01:00:0A:00:00:00:00;1725581135;06/09/24;00:05:35;0.0;0.0;0.0;0.0;0.0;0.0
01:00:0A:00:00:00:00;1725581136;06/09/24;00:05:36;0.0;0.0;0.0;0.0;0.0;0.0
01:00:0A:00:00:00:00;1725581137;06/09/24;00:05:37;0.0;0.0;0.0;0.0;0.0;0.0
01:00:0A:00:00:00:00;1725581138;06/09/24;00:05:38;0.0;0.0;0.0;0.0;0.0;0.0
01:00:0A:00:00:00:00;1725581139;06/09/24;00:05:39;0.0;0.0;0.0;0.0;0.0;0.0
01:00:0A:00:00:00:00;1725581140;06/09/24;00:05:40;0.0;0.0;0.0;0.0;0.0;0.0
01:00:0A:00:00:00:00;1725581141;06/09/24;00:05:41;0.0;0.0;0.0;0.0;0.0;0.0
01:00:0A:00:00:00:00;1725581142;06/09/24;00:05:42;0.0;0.0;0.0;0.0;0.0;0.0
01:00:0A:00:00:00:00;1725581143;06/09/24;00:05:43;0.0;0.0;0.0;0.0;0.0;0.0
01:00:0A:00:00:00:00;1725581144;06/09/24;00:05:44;0.0;0.0;0.0;0.0;0.0;0.0
01:00:0A:00:00:00:00;1725581145;06/09/24;00:05:45;0.0;0.0;0.0;0.0;0.0;0.0
01:00:0A:00:00:00:00;1725581146;06/09/24;00:05:46;0.0;0.0;0.0;0.0;0.0;0.0
01:00:0A:00:00:00:00;1725581147;06/09/24;00:05:47;0.0;0.0;0.0;0.0;0.0;0.0
01:00:0A:00:00:00:00;1725581148;06/09/24;00:05:48;0.0;0.0;0.0;0.0;0.0;0.0
01:00:0A:00:00:00:00;1725581149;06/09/24;00:05:49;0.0;0.0;0.0;0.0;0.0;0.0
01:00:0A:00:00:00:00;1725581150;06/09/24;00:05:50;0.0;0.0;0.0;0.0;0.0;0.0
01:00:0A:00:00:00:00;1725581151;06/09/24;00:05:51;0.0;0.0;0.0;0.0;0.0;0.0
01:00:0A:00:00:00:00;1725581152;06/09/24;00:05:52;0.0;0.0;0.0;0.0;0.0;0.0
01:00:0A:00:00:00:00;1725581153;06/09/24;00:05:53;0.0;0.0;0.0;0.0;0.0;0.0
01:00:0A:00:00:00:00;1725581154;06/09/24;00:05:54;0.0;0.0;0.0;0.0;0.0;0.0
01:00:0A:00:00:00:00;1725581155;06/09/24;00:05:55;0.0;0.0;0.0;0.0;0.0;0.0
01:00:0A:00:00:00:00;1725581156;06/09/24;00:05:56;0.0;0.0;0.0;0.0;0.0;0.0
01:00:0A:00:00:00:00;1725581157;06/09/24;00:05:57;0.0;0.0;0.0;0.0;0.0;0.0
01:00:0A:00:00:00:00;1725581158;06/09/24;00:05:58;0.0;0.0;0.0;0.0;0.0;0.0
01:00:0A:00:00:00:00;1725581159;06/09/24;00:05:59;0.0;0.0;0.0;0.0;0.0;0.0
01:00:0A:00:00:00:00;1725581160;06/09/24;00:06:00;0.0;0.0;0.0;0.0;0.0;0.0
01:00:0A:00:00:00:00;1725581161;06/09/24;00:06:01;0.0;0.0;0.0;0.0;0.0;0.0
01:00:0A:00:00:00:00;1725581162;06/09/24;00:06:02;0.0;0.0;0.0;0.0;0.0;0.0
01:00:0A:00:00:00:00;1725581163;06/09/24;00:06:03;0.0;0.0;0.0;0.0;0.0;0.0
01:00:0A:00:00:00:00;1725581164;06/09/24;00:06:04;0.0;0.0;0.0;0.0;0.0;0.0
01:00:0A:00:00:00:00;1725581165;06/09/24;00:06:05;0.0;0.0;0.0;0.0;0.0;0.0
01:00:0A:00:00:00:00;1725581166;06/09/24;00:06:06;0.0;0.0;0.0;0.0;0.0;0.0
01:00:0A:00:00:00:00;1725581167;06/09/24;00:06:07;0.0;0.0;0.0;0.0;0.0;0.0
01:00:0A:00:00:00:00;1725581168;06/09/24;00:06:08;0.0;0.0;0.0;0.0;0.0;0.0
01:00:0A:00:00:00:00;1725581169;06/09/24;00:06:09;0.0;0.0;0.0;0.0;0.0;0.0
01:00:0A:00:00:00:00;1725581170;06/09/24;00:06:10;0.0;0.0;0.0;0.0;0.0;0.0
01:00:0A:00:00:00:00;1725581171;06/09/24;00:06:11;0.0;0.0;0.0;0.0;0.0;0.0
01:00:0A:00:00:00:00;1725581172;06/09/24;00:06:12;0.0;0.0;0.0;0.0;0.0;0.0
01:00:0A:00:00:00:00;1725581173;06/09/24;00:06:13;0.0;0.0;0.0;0.0;0.0;0.0
01:00:0A:00:00:00:00;1725581174;06/09/24;00:06:14;0.0;0.0;0.0;0.0;0.0;0.0
01:00:0A:00:00:00:00;1725581175;06/09/24;00:06:15;0.0;0.0;0.0;0.0;0.0;0.0
01:00:0A:00:00:00:00;1725581176;06/09/24;00:06:16;0.0;0.0;0.0;0.0;0.0;0.0
01:00:0A:00:00:00:00;1725581177;06/09/24;00:06:17;0.0;0.0;0.0;0.0;0.0;0.0
01:00:0A:00:00:00:00;1725581178;06/09/24;00:06:18;0.0;0.0;0.0;0.0;0.0;0.0
01:00:0A:00:00:00:00;1725581179;06/09/24;00:06:19;0.0;0.0;0.0;0.0;0.0;0.0
01:00:0A:00:00:00:00;1725581180;06/09/24;00:06:20;0.0;0.0;0.0;0.0;0.0;0.0
01:00:0A:00:00:00:00;1725581181;06/09/24;00:06:21;0.0;0.0;0.0;0.0;0.0;0.0
01:00:0A:00:00:00:00;1725581182;06/09/24;00:06:22;0.0;0.0;0.0;0.0;0.0;0.0
01:00:0A:00:00:00:00;1725581183;06/09/24;00:06:23;0.0;0.0;0.0;0.0;0.0;0.0
01:00:0A:00:00:00:00;1725581184;06/09/24;00:06:24;0.0;0.0;0.0;0.0;0.0;0.0
01:00:0A:00:00:00:00;1725581185;06/09/24;00:06:25;0.0;0.0;0.0;0.0;0.0;0.0
01:00:0A:00:00:00:00;1725581186;06/09/24;00:06:26;0.0;0.0;0.0;0.0;0.0;0.0
01:00:0A:00:00:00:00;1725581187;06/09/24;00:06:27;0.0;0.0;0.0;0.0;0.0;0.0
01:00:0A:00:00:00:00;1725581188;06/09/24;00:06:28;0.0;0.0;0.0;0.0;0.0;0.0
01:00:0A:00:00:00:00;1725581189;06/09/24;00:06:29;0.0;0.0;0.0;0.0;0.0;0.0
01:00:0A:00:00:00:00;1725581190;06/09/24;00:06:30;0.0;0.0;0.0;0.0;0.0;0.0
01:00:0A:00:00:00:00;1725581191;06/09/24;00:06:31;0.0;0.0;0.0;0.0;0.0;0.0
01:00:0A:00:00:00:00;1725581192;06/09/24;00:06:32;0.0;0.0;0.0;0.0;0.0;0.0
01:00:0A:00:00:00:00;1725581193;06/09/24;00:06:33;0.0;0.0;0.0;0.0;0.0;0.0
01:00:0A:00:00:00:00;1725581194;06/09/24;00:06:34;0.0;0.0;0.0;0.0;0.0;0.0
01:00:0A:00:00:00:00;1725581195;06/09/24;00:06:35;0.0;0.0;0.0;0.0;0.0;0.0
01:00:0A:00:00:00:00;1725581196;06/09/24;00:06:36;0.0;0.0;0.0;0.0;0.0;0.0
01:00:0A:00:00:00:00;1725581197;06/09/24;00:06:37;0.0;0.0;0.0;0.0;0.0;0.0
01:00:0A:00:00:00:00;1725581198;06/09/24;00:06:38;0.0;0.0;0.0;0.0;0.0;0.0
01:00:0A:00:00:00:00;1725581199;06/09/24;00:06:39;0.0;0.0;0.0;0.0;0.0;0.0
01:00:0A:00:00:00:00;1725581200;06/09/24;00:06:40;0.0;0.0;0.0;0.0;0.0;0.0
01:00:0A:00:00:00:00;1725581201;06/09/24;00:06:41;0.0;0.0;0.0;0.0;0.0;0.0
01:00:0A:00:00:00:00;1725581202;06/09/24;00:06:42;0.0;0.0;0.0;0.0;0.0;0.0
01:00:0A:00:00:00:00;1725581203;06/09/24;00:06:43;0.0;0.0;0.0;0.0;0.0;0.0
01:00:0A:00:00:00:00;1725581204;06/09/24;00:06:44;0.0;0.0;0.0;0.0;0.0;0.0
01:00:0A:00:00:00:00;1725581205;06/09/24;00:06:45;0.0;0.0;0.0;0.0;0.0;0.0
01:00:0A:00:00:00:00;1725581206;06/09/24;00:06:46;0.0;0.0;0.0;0.0;0.0;0.0
01:00:0A:00:00:00:00;1725581207;06/09/24;00:06:47;0.0;0.0;0.0;0.0;0.0;0.0
01:00:0A:00:00:00:00;1725581208;06/09/24;00:06:48;0.0;0.0;0.0;0.0;0.0;0.0
01:00:0A:00:00:00:00;1725581209;06/09/24;00:06:49;0.0;0.0;0.0;0.0;0.0;0.0
01:00:0A:00:00:00:00;1725581210;06/09/24;00:06:50;0.0;0.0;0.0;0.0;0.0;0.0
01:00:0A:00:00:00:00;1725581211;06/09/24;00:06:51;0.0;0.0;0.0;0.0;0.0;0.0
01:00:0A:00:00:00:00;1725581212;06/09/24;00:06:52;0.0;0.0;0.0;0.0;0.0;0.0
01:00:0A:00:00:00:00;1725581213;06/09/24;00:06:53;0.0;0.0;0.0;0.0;0.0;0.0
01:00:0A:00:00:00:00;1725581214;06/09/24;00:06:54;0.0;0.0;0.0;0.0;0.0;0.0
01:00:0A:00:00:00:00;1725581215;06/09/24;00:06:55;0.0;0.0;0.0;0.0;0.0;0.0
01:00:0A:00:00:00:00;1725581216;06/09/24;00:06:56;0.0;0.0;0.0;0.0;0.0;0.0
01:00:0A:00:00:00:00;1725581217;06/09/24;00:06:57;0.0;0.0;0.0;0.0;0.0;0.0
01:00:0A:00:00:00:00;1725581218;06/09/24;00:06:58;0.0;0.0;0.0;0.0;0.0;0.0
01:00:0A:00:00:00:00;1725581219;06/09/24;00:06:59;0.0;0.0;0.0;0.0;0.0;0.0
01:00:0A:00:00:00:00;1725581220;06/09/24;00:07:00;0.0;0.0;0.0;0.0;0.0;0.0
01:00:0A:00:00:00:00;1725581221;06/09/24;00:07:01;0.0;0.0;0.0;0.0;0.0;0.0
01:00:0A:00:00:00:00;1725581222;06/09/24;00:07:02;0.0;0.0;0.0;0.0;0.0;0.0
01:00:0A:00:00:00:00;1725581223;06/09/24;00:07:03;0.0;0.0;0.0;0.0;0.0;0.0
01:00:0A:00:00:00:00;1725581224;06/09/24;00:07:04;0.0;0.0;0.0;0.0;0.0;0.0
01:00:0A:00:00:00:00;1725581225;06/09/24;00:07:05;0.0;0.0;0.0;0.0;0.0;0.0
01:00:0A:00:00:00:00;1725581226;06/09/24;00:07:06;0.0;0.0;0.0;0.0;0.0;0.0
01:00:0A:00:00:00:00;1725581227;06/09/24;00:07:07;0.0;0.0;0.0;0.0;0.0;0.0
01:00:0A:00:00:00:00;1725581228;06/09/24;00:07:08;0.0;0.0;0.0;0.0;0.0;0.0
01:00:0A:00:00:00:00;1725581229;06/09/24;00:07:09;0.0;0.0;0.0;0.0;0.0;0.0
01:00:0A:00:00:00:00;1725581230;06/09/24;00:07:10;0.0;0.0;0.0;0.0;0.0;0.0
01:00:0A:00:00:00:00;1725581231;06/09/24;00:07:11;0.0;0.0;0.0;0.0;0.0;0.0
01:00:0A:00:00:00:00;1725581232;06/09/24;00:07:12;0.0;0.0;0.0;0.0;0.0;0.0
01:00:0A:00:00:00:00;1725581233;06/09/24;00:07:13;0.0;0.0;0.0;0.0;0.0;0.0
01:00:0A:00:00:00:00;1725581234;06/09/24;00:07:14;0.0;0.0;0.0;0.0;0.0;0.0
01:00:0A:00:00:00:00;1725581235;06/09/24;00:07:15;0.0;0.0;0.0;0.0;0.0;0.0
01:00:0A:00:00:00:00;1725581236;06/09/24;00:07:16;0.0;0.0;0.0;0.0;0.0;0.0
01:00:0A:00:00:00:00;1725581237;06/09/24;00:07:17;0.0;0.0;0.0;0.0;0.0;0.0
01:00:0A:00:00:00:00;1725581238;06/09/24;00:07:18;0.0;0.0;0.0;0.0;0.0;0.0
01:00:0A:00:00:00:00;1725581239;06/09/24;00:07:19;0.0;0.0;0.0;0.0;0.0;0.0
01:00:0A:00:00:00:00;1725581240;06/09/24;00:07:20;0.0;0.0;0.0;0.0;0.0;0.0
01:00:0A:00:00:00:00;1725581241;06/09/24;00:07:21;0.0;0.0;0.0;0.0;0.0;0.0
01:00:0A:00:00:00:00;1725581242;06/09/24;00:07:22;0.0;0.0;0.0;0.0;0.0;0.0
01:00:0A:00:00:00:00;1725581243;06/09/24;00:07:23;0.0;0.0;0.0;0.0;0.0;0.0
01:00:0A:00:00:00:00;1725581244;06/09/24;00:07:24;0.0;0.0;0.0;0.0;0.0;0.0
01:00:0A:00:00:00:00;1725581245;06/09/24;00:07:25;0.0;0.0;0.0;0.0;0.0;0.0
01:00:0A:00:00:00:00;1725581246;06/09/24;00:07:26;0.0;0.0;0.0;0.0;0.0;0.0
01:00:0A:00:00:00:00;1725581247;06/09/24;00:07:27;0.0;0.0;0.0;0.0;0.0;0.0
01:00:0A:00:00:00:00;1725581248;06/09/24;00:07:28;0.0;0.0;0.0;0.0;0.0;0.0
01:00:0A:00:00:00:00;1725581249;06/09/24;00:07:29;0.0;0.0;0.0;0.0;0.0;0.0
01:00:0A:00:00:00:00;1725581250;06/09/24;00:07:30;0.0;0.0;0.0;0.0;0.0;0.0
01:00:0A:00:00:00:00;1725581251;06/09/24;00:07:31;0.0;0.0;0.0;0.0;0.0;0.0
01:00:0A:00:00:00:00;1725581252;06/09/24;00:07:32;0.0;0.0;0.0;0.0;0.0;0.0
01:00:0A:00:00:00:00;1725581253;06/09/24;00:07:33;0.0;0.0;0.0;0.0;0.0;0.0
01:00:0A:00:00:00:00;1725581254;06/09/24;00:07:34;0.0;0.0;0.0;0.0;0.0;0.0
01:00:0A:00:00:00:00;1725581255;06/09/24;00:07:35;0.0;0.0;0.0;0.0;0.0;0.0
01:00:0A:00:00:00:00;1725581256;06/09/24;00:07:36;0.0;0.0;0.0;0.0;0.0;0.0
01:00:0A:00:00:00:00;1725581257;06/09/24;00:07:37;0.0;0.0;0.0;0.0;0.0;0.0
01:00:0A:00:00:00:00;1725581258;06/09/24;00:07:38;0.0;0.0;0.0;0.0;0.0;0.0
01:00:0A:00:00:00:00;1725581259;06/09/24;00:07:39;0.0;0.0;0.0;0.0;0.0;0.0
01:00:0A:00:00:00:00;1725581260;06/09/24;00:07:40;0.0;0.0;0.0;0.0;0.0;0.0
01:00:0A:00:00:00:00;1725581261;06/09/24;00:07:41;0.0;0.0;0.0;0.0;0.0;0.0
01:00:0A:00:00:00:00;1725581262;06/09/24;00:07:42;0.0;0.0;0.0;0.0;0.0;0.0
01:00:0A:00:00:00:00;1725581263;06/09/24;00:07:43;0.0;0.0;0.0;0.0;0.0;0.0
01:00:0A:00:00:00:00;1725581264;06/09/24;00:07:44;0.0;0.0;0.0;0.0;0.0;0.0
01:00:0A:00:00:00:00;1725581265;06/09/24;00:07:45;0.0;0.0;0.0;0.0;0.0;0.0
01:00:0A:00:00:00:00;1725581266;06/09/24;00:07:46;0.0;0.0;0.0;0.0;0.0;0.0
01:00:0A:00:00:00:00;1725581267;06/09/24;00:07:47;0.0;0.0;0.0;0.0;0.0;0.0
01:00:0A:00:00:00:00;1725581268;06/09/24;00:07:48;0.0;0.0;0.0;0.0;0.0;0.0
01:00:0A:00:00:00:00;1725581269;06/09/24;00:07:49;0.0;0.0;0.0;0.0;0.0;0.0
01:00:0A:00:00:00:00;1725581270;06/09/24;00:07:50;0.0;0.0;0.0;0.0;0.0;0.0
01:00:0A:00:00:00:00;1725581271;06/09/24;00:07:51;0.0;0.0;0.0;0.0;0.0;0.0
01:00:0A:00:00:00:00;1725581272;06/09/24;00:07:52;0.0;0.0;0.0;0.0;0.0;0.0
01:00:0A:00:00:00:00;1725581273;06/09/24;00:07:53;0.0;0.0;0.0;0.0;0.0;0.0
01:00:0A:00:00:00:00;1725581274;06/09/24;00:07:54;0.0;0.0;0.0;0.0;0.0;0.0
01:00:0A:00:00:00:00;1725581275;06/09/24;00:07:55;0.0;0.0;0.0;0.0;0.0;0.0
01:00:0A:00:00:00:00;1725581276;06/09/24;00:07:56;0.0;0.0;0.0;0.0;0.0;0.0
01:00:0A:00:00:00:00;1725581277;06/09/24;00:07:57;0.0;0.0;0.0;0.0;0.0;0.0
01:00:0A:00:00:00:00;1725581278;06/09/24;00:07:58;0.0;0.0;0.0;0.0;0.0;0.0
01:00:0A:00:00:00:00;1725581279;06/09/24;00:07:59;0.0;0.0;0.0;0.0;0.0;0.0
01:00:0A:00:00:00:00;1725581280;06/09/24;00:08:00;0.0;0.0;0.0;0.0;0.0;0.0
01:00:0A:00:00:00:00;1725581281;06/09/24;00:08:01;0.0;0.0;0.0;0.0;0.0;0.0
01:00:0A:00:00:00:00;1725581282;06/09/24;00:08:02;0.0;0.0;0.0;0.0;0.0;0.0
01:00:0A:00:00:00:00;1725581283;06/09/24;00:08:03;0.0;0.0;0.0;0.0;0.0;0.0
01:00:0A:00:00:00:00;1725581284;06/09/24;00:08:04;0.0;0.0;0.0;0.0;0.0;0.0
01:00:0A:00:00:00:00;1725581285;06/09/24;00:08:05;0.0;0.0;0.0;0.0;0.0;0.0
01:00:0A:00:00:00:00;1725581286;06/09/24;00:08:06;0.0;0.0;0.0;0.0;0.0;0.0
01:00:0A:00:00:00:00;1725581287;06/09/24;00:08:07;0.0;0.0;0.0;0.0;0.0;0.0
01:00:0A:00:00:00:00;1725581288;06/09/24;00:08:08;0.0;0.0;0.0;0.0;0.0;0.0
01:00:0A:00:00:00:00;1725581289;06/09/24;00:08:09;0.0;0.0;0.0;0.0;0.0;0.0
01:00:0A:00:00:00:00;1725581290;06/09/24;00:08:10;0.0;0.0;0.0;0.0;0.0;0.0
01:00:0A:00:00:00:00;1725581291;06/09/24;00:08:11;0.0;0.0;0.0;0.0;0.0;0.0
01:00:0A:00:00:00:00;1725581292;06/09/24;00:08:12;0.0;0.0;0.0;0.0;0.0;0.0
01:00:0A:00:00:00:00;1725581293;06/09/24;00:08:13;0.0;0.0;0.0;0.0;0.0;0.0
01:00:0A:00:00:00:00;1725581294;06/09/24;00:08:14;0.0;0.0;0.0;0.0;0.0;0.0
01:00:0A:00:00:00:00;1725581295;06/09/24;00:08:15;0.0;0.0;0.0;0.0;0.0;0.0
01:00:0A:00:00:00:00;1725581296;06/09/24;00:08:16;0.0;0.0;0.0;0.0;0.0;0.0
01:00:0A:00:00:00:00;1725581297;06/09/24;00:08:17;0.0;0.0;0.0;0.0;0.0;0.0
01:00:0A:00:00:00:00;1725581298;06/09/24;00:08:18;0.0;0.0;0.0;0.0;0.0;0.0
01:00:0A:00:00:00:00;1725581299;06/09/24;00:08:19;0.0;0.0;0.0;0.0;0.0;0.0
01:00:0A:00:00:00:00;1725581300;06/09/24;00:08:20;0.0;0.0;0.0;0.0;0.0;0.0
01:00:0A:00:00:00:00;1725581301;06/09/24;00:08:21;0.0;0.0;0.0;0.0;0.0;0.0
01:00:0A:00:00:00:00;1725581302;06/09/24;00:08:22;0.0;0.0;0.0;0.0;0.0;0.0
01:00:0A:00:00:00:00;1725581303;06/09/24;00:08:23;0.0;0.0;0.0;0.0;0.0;0.0
01:00:0A:00:00:00:00;1725581304;06/09/24;00:08:24;0.0;0.0;0.0;0.0;0.0;0.0
01:00:0A:00:00:00:00;1725581305;06/09/24;00:08:25;0.0;0.0;0.0;0.0;0.0;0.0
01:00:0A:00:00:00:00;1725581306;06/09/24;00:08:26;0.0;0.0;0.0;0.0;0.0;0.0
01:00:0A:00:00:00:00;1725581307;06/09/24;00:08:27;0.0;0.0;0.0;0.0;0.0;0.0
01:00:0A:00:00:00:00;1725581308;06/09/24;00:08:28;0.0;0.0;0.0;0.0;0.0;0.0
01:00:0A:00:00:00:00;1725581309;06/09/24;00:08:29;0.0;0.0;0.0;0.0;0.0;0.0
01:00:0A:00:00:00:00;1725581310;06/09/24;00:08:30;0.0;0.0;0.0;0.0;0.0;0.0
01:00:0A:00:00:00:00;1725581311;06/09/24;00:08:31;0.0;0.0;0.0;0.0;0.0;0.0
01:00:0A:00:00:00:00;1725581312;06/09/24;00:08:32;0.0;0.0;0.0;0.0;0.0;0.0
01:00:0A:00:00:00:00;1725581313;06/09/24;00:08:33;0.0;0.0;0.0;0.0;0.0;0.0
01:00:0A:00:00:00:00;1725581314;06/09/24;00:08:34;0.0;0.0;0.0;0.0;0.0;0.0
01:00:0A:00:00:00:00;1725581315;06/09/24;00:08:35;0.0;0.0;0.0;0.0;0.0;0.0
01:00:0A:00:00:00:00;1725581316;06/09/24;00:08:36;0.0;0.0;0.0;0.0;0.0;0.0
01:00:0A:00:00:00:00;1725581317;06/09/24;00:08:37;0.0;0.0;0.0;0.0;0.0;0.0
01:00:0A:00:00:00:00;1725581318;06/09/24;00:08:38;0.0;0.0;0.0;0.0;0.0;0.0
01:00:0A:00:00:00:00;1725581319;06/09/24;00:08:39;0.0;0.0;0.0;0.0;0.0;0.0
01:00:0A:00:00:00:00;1725581320;06/09/24;00:08:40;0.0;0.0;0.0;0.0;0.0;0.0
01:00:0A:00:00:00:00;1725581321;06/09/24;00:08:41;0.0;0.0;0.0;0.0;0.0;0.0
01:00:0A:00:00:00:00;1725581322;06/09/24;00:08:42;0.0;0.0;0.0;0.0;0.0;0.0
01:00:0A:00:00:00:00;1725581323;06/09/24;00:08:43;0.0;0.0;0.0;0.0;0.0;0.0
01:00:0A:00:00:00:00;1725581324;06/09/24;00:08:44;0.0;0.0;0.0;0.0;0.0;0.0
01:00:0A:00:00:00:00;1725581325;06/09/24;00:08:45;0.0;0.0;0.0;0.0;0.0;0.0
01:00:0A:00:00:00:00;1725581326;06/09/24;00:08:46;0.0;0.0;0.0;0.0;0.0;0.0
01:00:0A:00:00:00:00;1725581327;06/09/24;00:08:47;0.0;0.0;0.0;0.0;0.0;0.0
01:00:0A:00:00:00:00;1725581328;06/09/24;00:08:48;0.0;0.0;0.0;0.0;0.0;0.0
01:00:0A:00:00:00:00;1725581329;06/09/24;00:08:49;0.0;0.0;0.0;0.0;0.0;0.0
01:00:0A:00:00:00:00;1725581330;06/09/24;00:08:50;0.0;0.0;0.0;0.0;0.0;0.0
01:00:0A:00:00:00:00;1725581331;06/09/24;00:08:51;0.0;0.0;0.0;0.0;0.0;0.0
01:00:0A:00:00:00:00;1725581332;06/09/24;00:08:52;0.0;0.0;0.0;0.0;0.0;0.0
01:00:0A:00:00:00:00;1725581333;06/09/24;00:08:53;0.0;0.0;0.0;0.0;0.0;0.0
01:00:0A:00:00:00:00;1725581334;06/09/24;00:08:54;0.0;0.0;0.0;0.0;0.0;0.0
01:00:0A:00:00:00:00;1725581335;06/09/24;00:08:55;0.0;0.0;0.0;0.0;0.0;0.0
01:00:0A:00:00:00:00;1725581336;06/09/24;00:08:56;0.0;0.0;0.0;0.0;0.0;0.0
01:00:0A:00:00:00:00;1725581337;06/09/24;00:08:57;0.0;0.0;0.0;0.0;0.0;0.0
01:00:0A:00:00:00:00;1725581338;06/09/24;00:08:58;0.0;0.0;0.0;0.0;0.0;0.0
01:00:0A:00:00:00:00;1725581339;06/09/24;00:08:59;0.0;0.0;0.0;0.0;0.0;0.0
01:00:0A:00:00:00:00;1725581340;06/09/24;00:09:00;0.0;0.0;0.0;0.0;0.0;0.0
01:00:0A:00:00:00:00;1725581341;06/09/24;00:09:01;0.0;0.0;0.0;0.0;0.0;0.0
01:00:0A:00:00:00:00;1725581342;06/09/24;00:09:02;0.0;0.0;0.0;0.0;0.0;0.0
01:00:0A:00:00:00:00;1725581343;06/09/24;00:09:03;0.0;0.0;0.0;0.0;0.0;0.0
01:00:0A:00:00:00:00;1725581344;06/09/24;00:09:04;0.0;0.0;0.0;0.0;0.0;0.0
01:00:0A:00:00:00:00;1725581345;06/09/24;00:09:05;0.0;0.0;0.0;0.0;0.0;0.0
01:00:0A:00:00:00:00;1725581346;06/09/24;00:09:06;0.0;0.0;0.0;0.0;0.0;0.0
01:00:0A:00:00:00:00;1725581347;06/09/24;00:09:07;0.0;0.0;0.0;0.0;0.0;0.0
01:00:0A:00:00:00:00;1725581348;06/09/24;00:09:08;0.0;0.0;0.0;0.0;0.0;0.0
01:00:0A:00:00:00:00;1725581349;06/09/24;00:09:09;0.0;0.0;0.0;0.0;0.0;0.0
01:00:0A:00:00:00:00;1725581350;06/09/24;00:09:10;0.0;0.0;0.0;0.0;0.0;0.0
01:00:0A:00:00:00:00;1725581351;06/09/24;00:09:11;0.0;0.0;0.0;0.0;0.0;0.0
01:00:0A:00:00:00:00;1725581352;06/09/24;00:09:12;0.0;0.0;0.0;0.0;0.0;0.0
01:00:0A:00:00:00:00;1725581353;06/09/24;00:09:13;0.0;0.0;0.0;0.0;0.0;0.0
01:00:0A:00:00:00:00;1725581354;06/09/24;00:09:14;0.0;0.0;0.0;0.0;0.0;0.0
01:00:0A:00:00:00:00;1725581355;06/09/24;00:09:15;0.0;0.0;0.0;0.0;0.0;0.0
01:00:0A:00:00:00:00;1725581356;06/09/24;00:09:16;0.0;0.0;0.0;0.0;0.0;0.0
01:00:0A:00:00:00:00;1725581357;06/09/24;00:09:17;0.0;0.0;0.0;0.0;0.0;0.0
01:00:0A:00:00:00:00;1725581358;06/09/24;00:09:18;0.0;0.0;0.0;0.0;0.0;0.0
01:00:0A:00:00:00:00;1725581359;06/09/24;00:09:19;0.0;0.0;0.0;0.0;0.0;0.0
01:00:0A:00:00:00:00;1725581360;06/09/24;00:09:20;0.0;0.0;0.0;0.0;0.0;0.0
01:00:0A:00:00:00:00;1725581361;06/09/24;00:09:21;0.0;0.0;0.0;0.0;0.0;0.0
01:00:0A:00:00:00:00;1725581362;06/09/24;00:09:22;0.0;0.0;0.0;0.0;0.0;0.0
01:00:0A:00:00:00:00;1725581363;06/09/24;00:09:23;0.0;0.0;0.0;0.0;0.0;0.0
01:00:0A:00:00:00:00;1725581364;06/09/24;00:09:24;0.0;0.0;0.0;0.0;0.0;0.0
01:00:0A:00:00:00:00;1725581365;06/09/24;00:09:25;0.0;0.0;0.0;0.0;0.0;0.0
01:00:0A:00:00:00:00;1725581366;06/09/24;00:09:26;0.0;0.0;0.0;0.0;0.0;0.0
01:00:0A:00:00:00:00;1725581367;06/09/24;00:09:27;0.0;0.0;0.0;0.0;0.0;0.0
01:00:0A:00:00:00:00;1725581368;06/09/24;00:09:28;0.0;0.0;0.0;0.0;0.0;0.0
01:00:0A:00:00:00:00;1725581369;06/09/24;00:09:29;0.0;0.0;0.0;0.0;0.0;0.0
01:00:0A:00:00:00:00;1725581370;06/09/24;00:09:30;0.0;0.0;0.0;0.0;0.0;0.0
01:00:0A:00:00:00:00;1725581371;06/09/24;00:09:31;0.0;0.0;0.0;0.0;0.0;0.0
01:00:0A:00:00:00:00;1725581372;06/09/24;00:09:32;0.0;0.0;0.0;0.0;0.0;0.0
01:00:0A:00:00:00:00;1725581373;06/09/24;00:09:33;0.0;0.0;0.0;0.0;0.0;0.0
01:00:0A:00:00:00:00;1725581374;06/09/24;00:09:34;0.0;0.0;0.0;0.0;0.0;0.0
01:00:0A:00:00:00:00;1725581375;06/09/24;00:09:35;0.0;0.0;0.0;0.0;0.0;0.0
01:00:0A:00:00:00:00;1725581376;06/09/24;00:09:36;0.0;0.0;0.0;0.0;0.0;0.0
01:00:0A:00:00:00:00;1725581377;06/09/24;00:09:37;0.0;0.0;0.0;0.0;0.0;0.0
01:00:0A:00:00:00:00;1725581378;06/09/24;00:09:38;0.0;0.0;0.0;0.0;0.0;0.0
01:00:0A:00:00:00:00;1725581379;06/09/24;00:09:39;0.0;0.0;0.0;0.0;0.0;0.0
01:00:0A:00:00:00:00;1725581380;06/09/24;00:09:40;0.0;0.0;0.0;0.0;0.0;0.0
01:00:0A:00:00:00:00;1725581381;06/09/24;00:09:41;0.0;0.0;0.0;0.0;0.0;0.0
01:00:0A:00:00:00:00;1725581382;06/09/24;00:09:42;0.0;0.0;0.0;0.0;0.0;0.0
01:00:0A:00:00:00:00;1725581383;06/09/24;00:09:43;0.0;0.0;0.0;0.0;0.0;0.0
01:00:0A:00:00:00:00;1725581384;06/09/24;00:09:44;0.0;0.0;0.0;0.0;0.0;0.0
01:00:0A:00:00:00:00;1725581385;06/09/24;00:09:45;0.0;0.0;0.0;0.0;0.0;0.0
01:00:0A:00:00:00:00;1725581386;06/09/24;00:09:46;0.0;0.0;0.0;0.0;0.0;0.0
01:00:0A:00:00:00:00;1725581387;06/09/24;00:09:47;0.0;0.0;0.0;0.0;0.0;0.0
01:00:0A:00:00:00:00;1725581388;06/09/24;00:09:48;0.0;0.0;0.0;0.0;0.0;0.0
01:00:0A:00:00:00:00;1725581389;06/09/24;00:09:49;0.0;0.0;0.0;0.0;0.0;0.0
01:00:0A:00:00:00:00;1725581390;06/09/24;00:09:50;0.0;0.0;0.0;0.0;0.0;0.0
01:00:0A:00:00:00:00;1725581391;06/09/24;00:09:51;0.0;0.0;0.0;0.0;0.0;0.0
01:00:0A:00:00:00:00;1725581392;06/09/24;00:09:52;0.0;0.0;0.0;0.0;0.0;0.0
01:00:0A:00:00:00:00;1725581393;06/09/24;00:09:53;0.0;0.0;0.0;0.0;0.0;0.0
01:00:0A:00:00:00:00;1725581394;06/09/24;00:09:54;0.0;0.0;0.0;0.0;0.0;0.0
01:00:0A:00:00:00:00;1725581395;06/09/24;00:09:55;0.0;0.0;0.0;0.0;0.0;0.0
01:00:0A:00:00:00:00;1725581396;06/09/24;00:09:56;0.0;0.0;0.0;0.0;0.0;0.0
01:00:0A:00:00:00:00;1725581397;06/09/24;00:09:57;0.0;0.0;0.0;0.0;0.0;0.0
01:00:0A:00:00:00:00;1725581398;06/09/24;00:09:58;0.0;0.0;0.0;0.0;0.0;0.0
01:00:0A:00:00:00:00;1725581399;06/09/24;00:09:59;0.0;0.0;0.0;0.0;0.0;0.0
01:00:0A:00:00:00:00;1725581400;06/09/24;00:10:00;0.0;0.0;0.0;0.0;0.0;0.0
01:00:0A:00:00:00:00;1725581401;06/09/24;00:10:01;0.0;0.0;0.0;0.0;0.0;0.0
01:00:0A:00:00:00:00;1725581402;06/09/24;00:10:02;0.0;0.0;0.0;0.0;0.0;0.0
01:00:0A:00:00:00:00;1725581403;06/09/24;00:10:03;0.0;0.0;0.0;0.0;0.0;0.0
01:00:0A:00:00:00:00;1725581404;06/09/24;00:10:04;0.0;0.0;0.0;0.0;0.0;0.0
01:00:0A:00:00:00:00;1725581405;06/09/24;00:10:05;0.0;0.0;0.0;0.0;0.0;0.0
01:00:0A:00:00:00:00;1725581406;06/09/24;00:10:06;0.0;0.0;0.0;0.0;0.0;0.0
01:00:0A:00:00:00:00;1725581407;06/09/24;00:10:07;0.0;0.0;0.0;0.0;0.0;0.0
01:00:0A:00:00:00:00;1725581408;06/09/24;00:10:08;0.0;0.0;0.0;0.0;0.0;0.0
01:00:0A:00:00:00:00;1725581409;06/09/24;00:10:09;0.0;0.0;0.0;0.0;0.0;0.0
01:00:0A:00:00:00:00;1725581410;06/09/24;00:10:10;0.0;0.0;0.0;0.0;0.0;0.0
01:00:0A:00:00:00:00;1725581411;06/09/24;00:10:11;0.0;0.0;0.0;0.0;0.0;0.0
01:00:0A:00:00:00:00;1725581412;06/09/24;00:10:12;0.0;0.0;0.0;0.0;0.0;0.0
01:00:0A:00:00:00:00;1725581413;06/09/24;00:10:13;0.0;0.0;0.0;0.0;0.0;0.0
01:00:0A:00:00:00:00;1725581414;06/09/24;00:10:14;0.0;0.0;0.0;0.0;0.0;0.0
01:00:0A:00:00:00:00;1725581415;06/09/24;00:10:15;0.0;0.0;0.0;0.0;0.0;0.0
01:00:0A:00:00:00:00;1725581416;06/09/24;00:10:16;0.0;0.0;0.0;0.0;0.0;0.0
01:00:0A:00:00:00:00;1725581417;06/09/24;00:10:17;0.0;0.0;0.0;0.0;0.0;0.0
01:00:0A:00:00:00:00;1725581418;06/09/24;00:10:18;0.0;0.0;0.0;0.0;0.0;0.0
01:00:0A:00:00:00:00;1725581419;06/09/24;00:10:19;0.0;0.0;0.0;0.0;0.0;0.0
01:00:0A:00:00:00:00;1725581420;06/09/24;00:10:20;0.0;0.0;0.0;0.0;0.0;0.0
01:00:0A:00:00:00:00;1725581421;06/09/24;00:10:21;0.0;0.0;0.0;0.0;0.0;0.0
01:00:0A:00:00:00:00;1725581422;06/09/24;00:10:22;0.0;0.0;0.0;0.0;0.0;0.0
01:00:0A:00:00:00:00;1725581423;06/09/24;00:10:23;0.0;0.0;0.0;0.0;0.0;0.0
01:00:0A:00:00:00:00;1725581424;06/09/24;00:10:24;0.0;0.0;0.0;0.0;0.0;0.0
01:00:0A:00:00:00:00;1725581425;06/09/24;00:10:25;0.0;0.0;0.0;0.0;0.0;0.0
01:00:0A:00:00:00:00;1725581426;06/09/24;00:10:26;0.0;0.0;0.0;0.0;0.0;0.0
01:00:0A:00:00:00:00;1725581427;06/09/24;00:10:27;0.0;0.0;0.0;0.0;0.0;0.0
01:00:0A:00:00:00:00;1725581428;06/09/24;00:10:28;0.0;0.0;0.0;0.0;0.0;0.0
01:00:0A:00:00:00:00;1725581429;06/09/24;00:10:29;0.0;0.0;0.0;0.0;0.0;0.0
01:00:0A:00:00:00:00;1725581430;06/09/24;00:10:30;0.0;0.0;0.0;0.0;0.0;0.0
01:00:0A:00:00:00:00;1725581431;06/09/24;00:10:31;0.0;0.0;0.0;0.0;0.0;0.0
01:00:0A:00:00:00:00;1725581432;06/09/24;00:10:32;0.0;0.0;0.0;0.0;0.0;0.0
01:00:0A:00:00:00:00;1725581433;06/09/24;00:10:33;0.0;0.0;0.0;0.0;0.0;0.0
01:00:0A:00:00:00:00;1725581434;06/09/24;00:10:34;0.0;0.0;0.0;0.0;0.0;0.0
01:00:0A:00:00:00:00;1725581435;06/09/24;00:10:35;0.0;0.0;0.0;0.0;0.0;0.0
01:00:0A:00:00:00:00;1725581436;06/09/24;00:10:36;0.0;0.0;0.0;0.0;0.0;0.0
01:00:0A:00:00:00:00;1725581437;06/09/24;00:10:37;0.0;0.0;0.0;0.0;0.0;0.0
01:00:0A:00:00:00:00;1725581438;06/09/24;00:10:38;0.0;0.0;0.0;0.0;0.0;0.0
01:00:0A:00:00:00:00;1725581439;06/09/24;00:10:39;0.0;0.0;0.0;0.0;0.0;0.0
01:00:0A:00:00:00:00;1725581440;06/09/24;00:10:40;0.0;0.0;0.0;0.0;0.0;0.0
01:00:0A:00:00:00:00;1725581441;06/09/24;00:10:41;0.0;0.0;0.0;0.0;0.0;0.0
01:00:0A:00:00:00:00;1725581442;06/09/24;00:10:42;0.0;0.0;0.0;0.0;0.0;0.0
01:00:0A:00:00:00:00;1725581443;06/09/24;00:10:43;0.0;0.0;0.0;0.0;0.0;0.0
01:00:0A:00:00:00:00;1725581444;06/09/24;00:10:44;0.0;0.0;0.0;0.0;0.0;0.0
01:00:0A:00:00:00:00;1725581445;06/09/24;00:10:45;0.0;0.0;0.0;0.0;0.0;0.0
01:00:0A:00:00:00:00;1725581446;06/09/24;00:10:46;0.0;0.0;0.0;0.0;0.0;0.0
01:00:0A:00:00:00:00;1725581447;06/09/24;00:10:47;0.0;0.0;0.0;0.0;0.0;0.0
01:00:0A:00:00:00:00;1725581448;06/09/24;00:10:48;0.0;0.0;0.0;0.0;0.0;0.0
01:00:0A:00:00:00:00;1725581449;06/09/24;00:10:49;0.0;0.0;0.0;0.0;0.0;0.0
01:00:0A:00:00:00:00;1725581450;06/09/24;00:10:50;0.0;0.0;0.0;0.0;0.0;0.0
01:00:0A:00:00:00:00;1725581451;06/09/24;00:10:51;0.0;0.0;0.0;0.0;0.0;0.0
01:00:0A:00:00:00:00;1725581452;06/09/24;00:10:52;0.0;0.0;0.0;0.0;0.0;0.0
01:00:0A:00:00:00:00;1725581453;06/09/24;00:10:53;0.0;0.0;0.0;0.0;0.0;0.0
01:00:0A:00:00:00:00;1725581454;06/09/24;00:10:54;0.0;0.0;0.0;0.0;0.0;0.0
01:00:0A:00:00:00:00;1725581455;06/09/24;00:10:55;0.0;0.0;0.0;0.0;0.0;0.0
01:00:0A:00:00:00:00;1725581456;06/09/24;00:10:56;0.0;0.0;0.0;0.0;0.0;0.0
01:00:0A:00:00:00:00;1725581457;06/09/24;00:10:57;0.0;0.0;0.0;0.0;0.0;0.0
01:00:0A:00:00:00:00;1725581458;06/09/24;00:10:58;0.0;0.0;0.0;0.0;0.0;0.0
01:00:0A:00:00:00:00;1725581459;06/09/24;00:10:59;0.0;0.0;0.0;0.0;0.0;0.0
01:00:0A:00:00:00:00;1725581460;06/09/24;00:11:00;0.0;0.0;0.0;0.0;0.0;0.0
01:00:0A:00:00:00:00;1725581461;06/09/24;00:11:01;0.0;0.0;0.0;0.0;0.0;0.0
01:00:0A:00:00:00:00;1725581462;06/09/24;00:11:02;0.0;0.0;0.0;0.0;0.0;0.0
01:00:0A:00:00:00:00;1725581463;06/09/24;00:11:03;0.0;0.0;0.0;0.0;0.0;0.0
01:00:0A:00:00:00:00;1725581464;06/09/24;00:11:04;0.0;0.0;0.0;0.0;0.0;0.0
01:00:0A:00:00:00:00;1725581465;06/09/24;00:11:05;0.0;0.0;0.0;0.0;0.0;0.0
01:00:0A:00:00:00:00;1725581466;06/09/24;00:11:06;0.0;0.0;0.0;0.0;0.0;0.0
01:00:0A:00:00:00:00;1725581467;06/09/24;00:11:07;0.0;0.0;0.0;0.0;0.0;0.0
01:00:0A:00:00:00:00;1725581468;06/09/24;00:11:08;0.0;0.0;0.0;0.0;0.0;0.0
01:00:0A:00:00:00:00;1725581469;06/09/24;00:11:09;0.0;0.0;0.0;0.0;0.0;0.0
01:00:0A:00:00:00:00;1725581470;06/09/24;00:11:10;0.0;0.0;0.0;0.0;0.0;0.0
01:00:0A:00:00:00:00;1725581471;06/09/24;00:11:11;0.0;0.0;0.0;0.0;0.0;0.0
01:00:0A:00:00:00:00;1725581472;06/09/24;00:11:12;0.0;0.0;0.0;0.0;0.0;0.0
01:00:0A:00:00:00:00;1725581473;06/09/24;00:11:13;0.0;0.0;0.0;0.0;0.0;0.0
01:00:0A:00:00:00:00;1725581474;06/09/24;00:11:14;0.0;0.0;0.0;0.0;0.0;0.0
01:00:0A:00:00:00:00;1725581475;06/09/24;00:11:15;0.0;0.0;0.0;0.0;0.0;0.0
01:00:0A:00:00:00:00;1725581476;06/09/24;00:11:16;0.0;0.0;0.0;0.0;0.0;0.0
01:00:0A:00:00:00:00;1725581477;06/09/24;00:11:17;0.0;0.0;0.0;0.0;0.0;0.0
01:00:0A:00:00:00:00;1725581478;06/09/24;00:11:18;0.0;0.0;0.0;0.0;0.0;0.0
01:00:0A:00:00:00:00;1725581479;06/09/24;00:11:19;0.0;0.0;0.0;0.0;0.0;0.0
01:00:0A:00:00:00:00;1725581480;06/09/24;00:11:20;0.0;0.0;0.0;0.0;0.0;0.0
01:00:0A:00:00:00:00;1725581481;06/09/24;00:11:21;0.0;0.0;0.0;0.0;0.0;0.0
01:00:0A:00:00:00:00;1725581482;06/09/24;00:11:22;0.0;0.0;0.0;0.0;0.0;0.0
01:00:0A:00:00:00:00;1725581483;06/09/24;00:11:23;0.0;0.0;0.0;0.0;0.0;0.0
01:00:0A:00:00:00:00;1725581484;06/09/24;00:11:24;0.0;0.0;0.0;0.0;0.0;0.0
01:00:0A:00:00:00:00;1725581485;06/09/24;00:11:25;0.0;0.0;0.0;0.0;0.0;0.0
01:00:0A:00:00:00:00;1725581486;06/09/24;00:11:26;0.0;0.0;0.0;0.0;0.0;0.0
01:00:0A:00:00:00:00;1725581487;06/09/24;00:11:27;0.0;0.0;0.0;0.0;0.0;0.0
01:00:0A:00:00:00:00;1725581488;06/09/24;00:11:28;0.0;0.0;0.0;0.0;0.0;0.0
01:00:0A:00:00:00:00;1725581489;06/09/24;00:11:29;0.0;0.0;0.0;0.0;0.0;0.0
01:00:0A:00:00:00:00;1725581490;06/09/24;00:11:30;0.0;0.0;0.0;0.0;0.0;0.0
01:00:0A:00:00:00:00;1725581491;06/09/24;00:11:31;0.0;0.0;0.0;0.0;0.0;0.0
01:00:0A:00:00:00:00;1725581492;06/09/24;00:11:32;0.0;0.0;0.0;0.0;0.0;0.0
01:00:0A:00:00:00:00;1725581493;06/09/24;00:11:33;0.0;0.0;0.0;0.0;0.0;0.0
01:00:0A:00:00:00:00;1725581494;06/09/24;00:11:34;0.0;0.0;0.0;0.0;0.0;0.0
01:00:0A:00:00:00:00;1725581495;06/09/24;00:11:35;0.0;0.0;0.0;0.0;0.0;0.0
01:00:0A:00:00:00:00;1725581496;06/09/24;00:11:36;0.0;0.0;0.0;0.0;0.0;0.0
01:00:0A:00:00:00:00;1725581497;06/09/24;00:11:37;0.0;0.0;0.0;0.0;0.0;0.0
01:00:0A:00:00:00:00;1725581498;06/09/24;00:11:38;0.0;0.0;0.0;0.0;0.0;0.0
01:00:0A:00:00:00:00;1725581499;06/09/24;00:11:39;0.0;0.0;0.0;0.0;0.0;0.0
01:00:0A:00:00:00:00;1725581500;06/09/24;00:11:40;0.0;0.0;0.0;0.0;0.0;0.0
01:00:0A:00:00:00:00;1725581501;06/09/24;00:11:41;0.0;0.0;0.0;0.0;0.0;0.0
01:00:0A:00:00:00:00;1725581502;06/09/24;00:11:42;0.0;0.0;0.0;0.0;0.0;0.0
01:00:0A:00:00:00:00;1725581503;06/09/24;00:11:43;0.0;0.0;0.0;0.0;0.0;0.0
01:00:0A:00:00:00:00;1725581504;06/09/24;00:11:44;0.0;0.0;0.0;0.0;0.0;0.0
01:00:0A:00:00:00:00;1725581505;06/09/24;00:11:45;0.0;0.0;0.0;0.0;0.0;0.0
01:00:0A:00:00:00:00;1725581506;06/09/24;00:11:46;0.0;0.0;0.0;0.0;0.0;0.0
01:00:0A:00:00:00:00;1725581507;06/09/24;00:11:47;0.0;0.0;0.0;0.0;0.0;0.0
01:00:0A:00:00:00:00;1725581508;06/09/24;00:11:48;0.0;0.0;0.0;0.0;0.0;0.0
01:00:0A:00:00:00:00;1725581509;06/09/24;00:11:49;0.0;0.0;0.0;0.0;0.0;0.0
01:00:0A:00:00:00:00;1725581510;06/09/24;00:11:50;0.0;0.0;0.0;0.0;0.0;0.0
01:00:0A:00:00:00:00;1725581511;06/09/24;00:11:51;0.0;0.0;0.0;0.0;0.0;0.0
01:00:0A:00:00:00:00;1725581512;06/09/24;00:11:52;0.0;0.0;0.0;0.0;0.0;0.0
01:00:0A:00:00:00:00;1725581513;06/09/24;00:11:53;0.0;0.0;0.0;0.0;0.0;0.0
01:00:0A:00:00:00:00;1725581514;06/09/24;00:11:54;0.0;0.0;0.0;0.0;0.0;0.0
01:00:0A:00:00:00:00;1725581515;06/09/24;00:11:55;0.0;0.0;0.0;0.0;0.0;0.0
01:00:0A:00:00:00:00;1725581516;06/09/24;00:11:56;0.0;0.0;0.0;0.0;0.0;0.0
01:00:0A:00:00:00:00;1725581517;06/09/24;00:11:57;0.0;0.0;0.0;0.0;0.0;0.0
01:00:0A:00:00:00:00;1725581518;06/09/24;00:11:58;0.0;0.0;0.0;0.0;0.0;0.0
01:00:0A:00:00:00:00;1725581519;06/09/24;00:11:59;0.0;0.0;0.0;0.0;0.0;0.0
01:00:0A:00:00:00:00;1725581520;06/09/24;00:12:00;0.0;0.0;0.0;0.0;0.0;0.0
01:00:0A:00:00:00:00;1725581521;06/09/24;00:12:01;0.0;0.0;0.0;0.0;0.0;0.0
01:00:0A:00:00:00:00;1725581522;06/09/24;00:12:02;0.0;0.0;0.0;0.0;0.0;0.0
01:00:0A:00:00:00:00;1725581523;06/09/24;00:12:03;0.0;0.0;0.0;0.0;0.0;0.0
01:00:0A:00:00:00:00;1725581524;06/09/24;00:12:04;0.0;0.0;0.0;0.0;0.0;0.0
01:00:0A:00:00:00:00;1725581525;06/09/24;00:12:05;0.0;0.0;0.0;0.0;0.0;0.0
01:00:0A:00:00:00:00;1725581526;06/09/24;00:12:06;0.0;0.0;0.0;0.0;0.0;0.0
01:00:0A:00:00:00:00;1725581527;06/09/24;00:12:07;0.0;0.0;0.0;0.0;0.0;0.0
01:00:0A:00:00:00:00;1725581528;06/09/24;00:12:08;0.0;0.0;0.0;0.0;0.0;0.0
01:00:0A:00:00:00:00;1725581529;06/09/24;00:12:09;0.0;0.0;0.0;0.0;0.0;0.0
01:00:0A:00:00:00:00;1725581530;06/09/24;00:12:10;0.0;0.0;0.0;0.0;0.0;0.0
01:00:0A:00:00:00:00;1725581531;06/09/24;00:12:11;0.0;0.0;0.0;0.0;0.0;0.0
01:00:0A:00:00:00:00;1725581532;06/09/24;00:12:12;0.0;0.0;0.0;0.0;0.0;0.0
01:00:0A:00:00:00:00;1725581533;06/09/24;00:12:13;0.0;0.0;0.0;0.0;0.0;0.0
01:00:0A:00:00:00:00;1725581534;06/09/24;00:12:14;0.0;0.0;0.0;0.0;0.0;0.0
01:00:0A:00:00:00:00;1725581535;06/09/24;00:12:15;0.0;0.0;0.0;0.0;0.0;0.0
01:00:0A:00:00:00:00;1725581536;06/09/24;00:12:16;0.0;0.0;0.0;0.0;0.0;0.0
01:00:0A:00:00:00:00;1725581537;06/09/24;00:12:17;0.0;0.0;0.0;0.0;0.0;0.0
01:00:0A:00:00:00:00;1725581538;06/09/24;00:12:18;0.0;0.0;0.0;0.0;0.0;0.0
01:00:0A:00:00:00:00;1725581539;06/09/24;00:12:19;0.0;0.0;0.0;0.0;0.0;0.0
01:00:0A:00:00:00:00;1725581540;06/09/24;00:12:20;0.0;0.0;0.0;0.0;0.0;0.0
01:00:0A:00:00:00:00;1725581541;06/09/24;00:12:21;0.0;0.0;0.0;0.0;0.0;0.0
01:00:0A:00:00:00:00;1725581542;06/09/24;00:12:22;0.0;0.0;0.0;0.0;0.0;0.0
01:00:0A:00:00:00:00;1725581543;06/09/24;00:12:23;0.0;0.0;0.0;0.0;0.0;0.0
01:00:0A:00:00:00:00;1725581544;06/09/24;00:12:24;0.0;0.0;0.0;0.0;0.0;0.0
01:00:0A:00:00:00:00;1725581545;06/09/24;00:12:25;0.0;0.0;0.0;0.0;0.0;0.0
01:00:0A:00:00:00:00;1725581546;06/09/24;00:12:26;0.0;0.0;0.0;0.0;0.0;0.0
01:00:0A:00:00:00:00;1725581547;06/09/24;00:12:27;0.0;0.0;0.0;0.0;0.0;0.0
01:00:0A:00:00:00:00;1725581548;06/09/24;00:12:28;0.0;0.0;0.0;0.0;0.0;0.0
01:00:0A:00:00:00:00;1725581549;06/09/24;00:12:29;0.0;0.0;0.0;0.0;0.0;0.0
01:00:0A:00:00:00:00;1725581550;06/09/24;00:12:30;0.0;0.0;0.0;0.0;0.0;0.0
01:00:0A:00:00:00:00;1725581551;06/09/24;00:12:31;0.0;0.0;0.0;0.0;0.0;0.0
01:00:0A:00:00:00:00;1725581552;06/09/24;00:12:32;0.0;0.0;0.0;0.0;0.0;0.0
01:00:0A:00:00:00:00;1725581553;06/09/24;00:12:33;0.0;0.0;0.0;0.0;0.0;0.0
01:00:0A:00:00:00:00;1725581554;06/09/24;00:12:34;0.0;0.0;0.0;0.0;0.0;0.0
01:00:0A:00:00:00:00;1725581555;06/09/24;00:12:35;0.0;0.0;0.0;0.0;0.0;0.0
01:00:0A:00:00:00:00;1725581556;06/09/24;00:12:36;0.0;0.0;0.0;0.0;0.0;0.0
01:00:0A:00:00:00:00;1725581557;06/09/24;00:12:37;0.0;0.0;0.0;0.0;0.0;0.0
01:00:0A:00:00:00:00;1725581558;06/09/24;00:12:38;0.0;0.0;0.0;0.0;0.0;0.0
01:00:0A:00:00:00:00;1725581559;06/09/24;00:12:39;0.0;0.0;0.0;0.0;0.0;0.0
01:00:0A:00:00:00:00;1725581560;06/09/24;00:12:40;0.0;0.0;0.0;0.0;0.0;0.0
01:00:0A:00:00:00:00;1725581561;06/09/24;00:12:41;0.0;0.0;0.0;0.0;0.0;0.0
01:00:0A:00:00:00:00;1725581562;06/09/24;00:12:42;0.0;0.0;0.0;0.0;0.0;0.0
01:00:0A:00:00:00:00;1725581563;06/09/24;00:12:43;0.0;0.0;0.0;0.0;0.0;0.0
01:00:0A:00:00:00:00;1725581564;06/09/24;00:12:44;0.0;0.0;0.0;0.0;0.0;0.0
01:00:0A:00:00:00:00;1725581565;06/09/24;00:12:45;0.0;0.0;0.0;0.0;0.0;0.0
01:00:0A:00:00:00:00;1725581566;06/09/24;00:12:46;0.0;0.0;0.0;0.0;0.0;0.0
01:00:0A:00:00:00:00;1725581567;06/09/24;00:12:47;0.0;0.0;0.0;0.0;0.0;0.0
01:00:0A:00:00:00:00;1725581568;06/09/24;00:12:48;0.0;0.0;0.0;0.0;0.0;0.0
01:00:0A:00:00:00:00;1725581569;06/09/24;00:12:49;0.0;0.0;0.0;0.0;0.0;0.0
01:00:0A:00:00:00:00;1725581570;06/09/24;00:12:50;0.0;0.0;0.0;0.0;0.0;0.0
01:00:0A:00:00:00:00;1725581571;06/09/24;00:12:51;0.0;0.0;0.0;0.0;0.0;0.0
01:00:0A:00:00:00:00;1725581572;06/09/24;00:12:52;0.0;0.0;0.0;0.0;0.0;0.0
01:00:0A:00:00:00:00;1725581573;06/09/24;00:12:53;0.0;0.0;0.0;0.0;0.0;0.0
01:00:0A:00:00:00:00;1725581574;06/09/24;00:12:54;0.0;0.0;0.0;0.0;0.0;0.0
01:00:0A:00:00:00:00;1725581575;06/09/24;00:12:55;0.0;0.0;0.0;0.0;0.0;0.0
01:00:0A:00:00:00:00;1725581576;06/09/24;00:12:56;0.0;0.0;0.0;0.0;0.0;0.0
01:00:0A:00:00:00:00;1725581577;06/09/24;00:12:57;0.0;0.0;0.0;0.0;0.0;0.0
01:00:0A:00:00:00:00;1725581578;06/09/24;00:12:58;0.0;0.0;0.0;0.0;0.0;0.0
01:00:0A:00:00:00:00;1725581579;06/09/24;00:12:59;0.0;0.0;0.0;0.0;0.0;0.0
01:00:0A:00:00:00:00;1725581580;06/09/24;00:13:00;0.0;0.0;0.0;0.0;0.0;0.0
01:00:0A:00:00:00:00;1725581581;06/09/24;00:13:01;0.0;0.0;0.0;0.0;0.0;0.0
01:00:0A:00:00:00:00;1725581582;06/09/24;00:13:02;0.0;0.0;0.0;0.0;0.0;0.0
01:00:0A:00:00:00:00;1725581583;06/09/24;00:13:03;0.0;0.0;0.0;0.0;0.0;0.0
01:00:0A:00:00:00:00;1725581584;06/09/24;00:13:04;0.0;0.0;0.0;0.0;0.0;0.0
01:00:0A:00:00:00:00;1725581585;06/09/24;00:13:05;0.0;0.0;0.0;0.0;0.0;0.0
01:00:0A:00:00:00:00;1725581586;06/09/24;00:13:06;0.0;0.0;0.0;0.0;0.0;0.0
01:00:0A:00:00:00:00;1725581587;06/09/24;00:13:07;0.0;0.0;0.0;0.0;0.0;0.0
01:00:0A:00:00:00:00;1725581588;06/09/24;00:13:08;0.0;0.0;0.0;0.0;0.0;0.0
01:00:0A:00:00:00:00;1725581589;06/09/24;00:13:09;0.0;0.0;0.0;0.0;0.0;0.0
01:00:0A:00:00:00:00;1725581590;06/09/24;00:13:10;0.0;0.0;0.0;0.0;0.0;0.0
01:00:0A:00:00:00:00;1725581591;06/09/24;00:13:11;0.0;0.0;0.0;0.0;0.0;0.0
01:00:0A:00:00:00:00;1725581592;06/09/24;00:13:12;0.0;0.0;0.0;0.0;0.0;0.0
01:00:0A:00:00:00:00;1725581593;06/09/24;00:13:13;0.0;0.0;0.0;0.0;0.0;0.0
01:00:0A:00:00:00:00;1725581594;06/09/24;00:13:14;0.0;0.0;0.0;0.0;0.0;0.0
01:00:0A:00:00:00:00;1725581595;06/09/24;00:13:15;0.0;0.0;0.0;0.0;0.0;0.0
01:00:0A:00:00:00:00;1725581596;06/09/24;00:13:16;0.0;0.0;0.0;0.0;0.0;0.0
01:00:0A:00:00:00:00;1725581597;06/09/24;00:13:17;0.0;0.0;0.0;0.0;0.0;0.0
01:00:0A:00:00:00:00;1725581598;06/09/24;00:13:18;0.0;0.0;0.0;0.0;0.0;0.0
01:00:0A:00:00:00:00;1725581599;06/09/24;00:13:19;0.0;0.0;0.0;0.0;0.0;0.0
01:00:0A:00:00:00:00;1725581600;06/09/24;00:13:20;0.0;0.0;0.0;0.0;0.0;0.0
01:00:0A:00:00:00:00;1725581601;06/09/24;00:13:21;0.0;0.0;0.0;0.0;0.0;0.0
01:00:0A:00:00:00:00;1725581602;06/09/24;00:13:22;0.0;0.0;0.0;0.0;0.0;0.0
01:00:0A:00:00:00:00;1725581603;06/09/24;00:13:23;0.0;0.0;0.0;0.0;0.0;0.0
01:00:0A:00:00:00:00;1725581604;06/09/24;00:13:24;0.0;0.0;0.0;0.0;0.0;0.0
01:00:0A:00:00:00:00;1725581605;06/09/24;00:13:25;0.0;0.0;0.0;0.0;0.0;0.0
01:00:0A:00:00:00:00;1725581606;06/09/24;00:13:26;0.0;0.0;0.0;0.0;0.0;0.0
01:00:0A:00:00:00:00;1725581607;06/09/24;00:13:27;0.0;0.0;0.0;0.0;0.0;0.0
01:00:0A:00:00:00:00;1725581608;06/09/24;00:13:28;0.0;0.0;0.0;0.0;0.0;0.0
01:00:0A:00:00:00:00;1725581609;06/09/24;00:13:29;0.0;0.0;0.0;0.0;0.0;0.0
01:00:0A:00:00:00:00;1725581610;06/09/24;00:13:30;0.0;0.0;0.0;0.0;0.0;0.0
01:00:0A:00:00:00:00;1725581611;06/09/24;00:13:31;0.0;0.0;0.0;0.0;0.0;0.0
01:00:0A:00:00:00:00;1725581612;06/09/24;00:13:32;0.0;0.0;0.0;0.0;0.0;0.0
01:00:0A:00:00:00:00;1725581613;06/09/24;00:13:33;0.0;0.0;0.0;0.0;0.0;0.0
01:00:0A:00:00:00:00;1725581614;06/09/24;00:13:34;0.0;0.0;0.0;0.0;0.0;0.0
01:00:0A:00:00:00:00;1725581615;06/09/24;00:13:35;0.0;0.0;0.0;0.0;0.0;0.0
01:00:0A:00:00:00:00;1725581616;06/09/24;00:13:36;0.0;0.0;0.0;0.0;0.0;0.0
01:00:0A:00:00:00:00;1725581617;06/09/24;00:13:37;0.0;0.0;0.0;0.0;0.0;0.0
01:00:0A:00:00:00:00;1725581618;06/09/24;00:13:38;0.0;0.0;0.0;0.0;0.0;0.0
01:00:0A:00:00:00:00;1725581619;06/09/24;00:13:39;0.0;0.0;0.0;0.0;0.0;0.0
01:00:0A:00:00:00:00;1725581620;06/09/24;00:13:40;0.0;0.0;0.0;0.0;0.0;0.0
01:00:0A:00:00:00:00;1725581621;06/09/24;00:13:41;0.0;0.0;0.0;0.0;0.0;0.0
01:00:0A:00:00:00:00;1725581622;06/09/24;00:13:42;0.0;0.0;0.0;0.0;0.0;0.0
01:00:0A:00:00:00:00;1725581623;06/09/24;00:13:43;0.0;0.0;0.0;0.0;0.0;0.0
01:00:0A:00:00:00:00;1725581624;06/09/24;00:13:44;0.0;0.0;0.0;0.0;0.0;0.0
01:00:0A:00:00:00:00;1725581625;06/09/24;00:13:45;0.0;0.0;0.0;0.0;0.0;0.0
01:00:0A:00:00:00:00;1725581626;06/09/24;00:13:46;0.0;0.0;0.0;0.0;0.0;0.0
01:00:0A:00:00:00:00;1725581627;06/09/24;00:13:47;0.0;0.0;0.0;0.0;0.0;0.0
01:00:0A:00:00:00:00;1725581628;06/09/24;00:13:48;0.0;0.0;0.0;0.0;0.0;0.0
01:00:0A:00:00:00:00;1725581629;06/09/24;00:13:49;0.0;0.0;0.0;0.0;0.0;0.0
01:00:0A:00:00:00:00;1725581630;06/09/24;00:13:50;0.0;0.0;0.0;0.0;0.0;0.0
01:00:0A:00:00:00:00;1725581631;06/09/24;00:13:51;0.0;0.0;0.0;0.0;0.0;0.0
01:00:0A:00:00:00:00;1725581632;06/09/24;00:13:52;0.0;0.0;0.0;0.0;0.0;0.0
01:00:0A:00:00:00:00;1725581633;06/09/24;00:13:53;0.0;0.0;0.0;0.0;0.0;0.0
01:00:0A:00:00:00:00;1725581634;06/09/24;00:13:54;0.0;0.0;0.0;0.0;0.0;0.0
01:00:0A:00:00:00:00;1725581635;06/09/24;00:13:55;0.0;0.0;0.0;0.0;0.0;0.0
01:00:0A:00:00:00:00;1725581636;06/09/24;00:13:56;0.0;0.0;0.0;0.0;0.0;0.0
01:00:0A:00:00:00:00;1725581637;06/09/24;00:13:57;0.0;0.0;0.0;0.0;0.0;0.0
01:00:0A:00:00:00:00;1725581638;06/09/24;00:13:58;0.0;0.0;0.0;0.0;0.0;0.0
01:00:0A:00:00:00:00;1725581639;06/09/24;00:13:59;0.0;0.0;0.0;0.0;0.0;0.0
01:00:0A:00:00:00:00;1725581640;06/09/24;00:14:00;0.0;0.0;0.0;0.0;0.0;0.0
01:00:0A:00:00:00:00;1725581641;06/09/24;00:14:01;0.0;0.0;0.0;0.0;0.0;0.0
01:00:0A:00:00:00:00;1725581642;06/09/24;00:14:02;0.0;0.0;0.0;0.0;0.0;0.0
01:00:0A:00:00:00:00;1725581643;06/09/24;00:14:03;0.0;0.0;0.0;0.0;0.0;0.0
01:00:0A:00:00:00:00;1725581644;06/09/24;00:14:04;0.0;0.0;0.0;0.0;0.0;0.0
01:00:0A:00:00:00:00;1725581645;06/09/24;00:14:05;0.0;0.0;0.0;0.0;0.0;0.0
01:00:0A:00:00:00:00;1725581646;06/09/24;00:14:06;0.0;0.0;0.0;0.0;0.0;0.0
01:00:0A:00:00:00:00;1725581647;06/09/24;00:14:07;0.0;0.0;0.0;0.0;0.0;0.0
01:00:0A:00:00:00:00;1725581648;06/09/24;00:14:08;0.0;0.0;0.0;0.0;0.0;0.0
01:00:0A:00:00:00:00;1725581649;06/09/24;00:14:09;0.0;0.0;0.0;0.0;0.0;0.0
01:00:0A:00:00:00:00;1725581650;06/09/24;00:14:10;0.0;0.0;0.0;0.0;0.0;0.0
01:00:0A:00:00:00:00;1725581651;06/09/24;00:14:11;0.0;0.0;0.0;0.0;0.0;0.0
01:00:0A:00:00:00:00;1725581652;06/09/24;00:14:12;0.0;0.0;0.0;0.0;0.0;0.0
01:00:0A:00:00:00:00;1725581653;06/09/24;00:14:13;0.0;0.0;0.0;0.0;0.0;0.0
01:00:0A:00:00:00:00;1725581654;06/09/24;00:14:14;0.0;0.0;0.0;0.0;0.0;0.0
01:00:0A:00:00:00:00;1725581655;06/09/24;00:14:15;0.0;0.0;0.0;0.0;0.0;0.0
01:00:0A:00:00:00:00;1725581656;06/09/24;00:14:16;0.0;0.0;0.0;0.0;0.0;0.0
01:00:0A:00:00:00:00;1725581657;06/09/24;00:14:17;0.0;0.0;0.0;0.0;0.0;0.0
01:00:0A:00:00:00:00;1725581658;06/09/24;00:14:18;0.0;0.0;0.0;0.0;0.0;0.0
01:00:0A:00:00:00:00;1725581659;06/09/24;00:14:19;0.0;0.0;0.0;0.0;0.0;0.0
01:00:0A:00:00:00:00;1725581660;06/09/24;00:14:20;0.0;0.0;0.0;0.0;0.0;0.0
01:00:0A:00:00:00:00;1725581661;06/09/24;00:14:21;0.0;0.0;0.0;0.0;0.0;0.0
01:00:0A:00:00:00:00;1725581662;06/09/24;00:14:22;0.0;0.0;0.0;0.0;0.0;0.0
01:00:0A:00:00:00:00;1725581663;06/09/24;00:14:23;0.0;0.0;0.0;0.0;0.0;0.0
01:00:0A:00:00:00:00;1725581664;06/09/24;00:14:24;0.0;0.0;0.0;0.0;0.0;0.0
01:00:0A:00:00:00:00;1725581665;06/09/24;00:14:25;0.0;0.0;0.0;0.0;0.0;0.0
01:00:0A:00:00:00:00;1725581666;06/09/24;00:14:26;0.0;0.0;0.0;0.0;0.0;0.0
01:00:0A:00:00:00:00;1725581667;06/09/24;00:14:27;0.0;0.0;0.0;0.0;0.0;0.0
01:00:0A:00:00:00:00;1725581668;06/09/24;00:14:28;0.0;0.0;0.0;0.0;0.0;0.0
01:00:0A:00:00:00:00;1725581669;06/09/24;00:14:29;0.0;0.0;0.0;0.0;0.0;0.0
01:00:0A:00:00:00:00;1725581670;06/09/24;00:14:30;0.0;0.0;0.0;0.0;0.0;0.0
01:00:0A:00:00:00:00;1725581671;06/09/24;00:14:31;0.0;0.0;0.0;0.0;0.0;0.0
01:00:0A:00:00:00:00;1725581672;06/09/24;00:14:32;0.0;0.0;0.0;0.0;0.0;0.0
01:00:0A:00:00:00:00;1725581673;06/09/24;00:14:33;0.0;0.0;0.0;0.0;0.0;0.0
01:00:0A:00:00:00:00;1725581674;06/09/24;00:14:34;0.0;0.0;0.0;0.0;0.0;0.0
01:00:0A:00:00:00:00;1725581675;06/09/24;00:14:35;0.0;0.0;0.0;0.0;0.0;0.0
01:00:0A:00:00:00:00;1725581676;06/09/24;00:14:36;0.0;0.0;0.0;0.0;0.0;0.0
01:00:0A:00:00:00:00;1725581677;06/09/24;00:14:37;0.0;0.0;0.0;0.0;0.0;0.0
01:00:0A:00:00:00:00;1725581678;06/09/24;00:14:38;0.0;0.0;0.0;0.0;0.0;0.0
01:00:0A:00:00:00:00;1725581679;06/09/24;00:14:39;0.0;0.0;0.0;0.0;0.0;0.0
01:00:0A:00:00:00:00;1725581680;06/09/24;00:14:40;0.0;0.0;0.0;0.0;0.0;0.0
01:00:0A:00:00:00:00;1725581681;06/09/24;00:14:41;0.0;0.0;0.0;0.0;0.0;0.0
01:00:0A:00:00:00:00;1725581682;06/09/24;00:14:42;0.0;0.0;0.0;0.0;0.0;0.0
01:00:0A:00:00:00:00;1725581683;06/09/24;00:14:43;0.0;0.0;0.0;0.0;0.0;0.0
01:00:0A:00:00:00:00;1725581679;06/09/24;00:14:39;0.0;0.0;0.0;0.0;0.0;0.0
01:00:0A:00:00:00:00;1725581680;06/09/24;00:14:40;0.0;0.0;0.0;0.0;0.0;0.0
01:00:0A:00:00:00:00;1725581681;06/09/24;00:14:41;0.0;0.0;0.0;0.0;0.0;0.0
01:00:0A:00:00:00:00;1725581682;06/09/24;00:14:42;0.0;0.0;0.0;0.0;0.0;0.0
01:00:0A:00:00:00:00;1725581683;06/09/24;00:14:43;0.0;0.0;0.0;0.0;0.0;0.0
01:00:0A:00:00:00:00;1725581684;06/09/24;00:14:44;0.0;0.0;0.0;0.0;0.0;0.0
01:00:0A:00:00:00:00;1725581685;06/09/24;00:14:45;0.0;0.0;0.0;0.0;0.0;0.0
01:00:0A:00:00:00:00;1725581686;06/09/24;00:14:46;0.0;0.0;0.0;0.0;0.0;0.0
01:00:0A:00:00:00:00;1725581687;06/09/24;00:14:47;0.0;0.0;0.0;0.0;0.0;0.0
01:00:0A:00:00:00:00;1725581688;06/09/24;00:14:48;0.0;0.0;0.0;0.0;0.0;0.0
01:00:0A:00:00:00:00;1725581689;06/09/24;00:14:49;0.0;0.0;0.0;0.0;0.0;0.0
01:00:0A:00:00:00:00;1725581690;06/09/24;00:14:50;0.0;0.0;0.0;0.0;0.0;0.0
01:00:0A:00:00:00:00;1725581691;06/09/24;00:14:51;0.0;0.0;0.0;0.0;0.0;0.0
01:00:0A:00:00:00:00;1725581692;06/09/24;00:14:52;0.0;0.0;0.0;0.0;0.0;0.0
01:00:0A:00:00:00:00;1725581693;06/09/24;00:14:53;0.0;0.0;0.0;0.0;0.0;0.0
01:00:0A:00:00:00:00;1725581694;06/09/24;00:14:54;0.0;0.0;0.0;0.0;0.0;0.0
01:00:0A:00:00:00:00;1725581695;06/09/24;00:14:55;0.0;0.0;0.0;0.0;0.0;0.0
01:00:0A:00:00:00:00;1725581696;06/09/24;00:14:56;0.0;0.0;0.0;0.0;0.0;0.0
01:00:0A:00:00:00:00;1725581697;06/09/24;00:14:57;0.0;0.0;0.0;0.0;0.0;0.0
01:00:0A:00:00:00:00;1725581698;06/09/24;00:14:58;0.0;0.0;0.0;0.0;0.0;0.0
01:00:0A:00:00:00:00;1725581699;06/09/24;00:14:59;0.0;0.0;0.0;0.0;0.0;0.0
01:00:0A:00:00:00:00;1725581700;06/09/24;00:15:00;0.0;0.0;0.0;0.0;0.0;0.0
01:00:0A:00:00:00:00;1725581701;06/09/24;00:15:01;0.0;0.0;0.0;0.0;0.0;0.0
01:00:0A:00:00:00:00;1725581702;06/09/24;00:15:02;0.0;0.0;0.0;0.0;0.0;0.0
01:00:0A:00:00:00:00;1725581703;06/09/24;00:15:03;0.0;0.0;0.0;0.0;0.0;0.0
01:00:0A:00:00:00:00;1725581704;06/09/24;00:15:04;0.0;0.0;0.0;0.0;0.0;0.0
01:00:0A:00:00:00:00;1725581705;06/09/24;00:15:05;0.0;0.0;0.0;0.0;0.0;0.0
01:00:0A:00:00:00:00;1725581706;06/09/24;00:15:06;0.0;0.0;0.0;0.0;0.0;0.0
01:00:0A:00:00:00:00;1725581707;06/09/24;00:15:07;0.0;0.0;0.0;0.0;0.0;0.0
01:00:0A:00:00:00:00;1725581708;06/09/24;00:15:08;0.0;0.0;0.0;0.0;0.0;0.0
01:00:0A:00:00:00:00;1725581709;06/09/24;00:15:09;0.0;0.0;0.0;0.0;0.0;0.0
01:00:0A:00:00:00:00;1725581710;06/09/24;00:15:10;0.0;0.0;0.0;0.0;0.0;0.0
01:00:0A:00:00:00:00;1725581711;06/09/24;00:15:11;0.0;0.0;0.0;0.0;0.0;0.0
01:00:0A:00:00:00:00;1725581712;06/09/24;00:15:12;0.0;0.0;0.0;0.0;0.0;0.0
01:00:0A:00:00:00:00;1725581713;06/09/24;00:15:13;0.0;0.0;0.0;0.0;0.0;0.0
01:00:0A:00:00:00:00;1725581714;06/09/24;00:15:14;0.0;0.0;0.0;0.0;0.0;0.0
01:00:0A:00:00:00:00;1725581715;06/09/24;00:15:15;0.0;0.0;0.0;0.0;0.0;0.0
01:00:0A:00:00:00:00;1725581716;06/09/24;00:15:16;0.0;0.0;0.0;0.0;0.0;0.0
01:00:0A:00:00:00:00;1725581717;06/09/24;00:15:17;0.0;0.0;0.0;0.0;0.0;0.0
01:00:0A:00:00:00:00;1725581718;06/09/24;00:15:18;0.0;0.0;0.0;0.0;0.0;0.0
01:00:0A:00:00:00:00;1725581719;06/09/24;00:15:19;0.0;0.0;0.0;0.0;0.0;0.0
01:00:0A:00:00:00:00;1725581720;06/09/24;00:15:20;0.0;0.0;0.0;0.0;0.0;0.0
01:00:0A:00:00:00:00;1725581721;06/09/24;00:15:21;0.0;0.0;0.0;0.0;0.0;0.0
01:00:0A:00:00:00:00;1725581722;06/09/24;00:15:22;0.0;0.0;0.0;0.0;0.0;0.0
01:00:0A:00:00:00:00;1725581723;06/09/24;00:15:23;0.0;0.0;0.0;0.0;0.0;0.0
01:00:0A:00:00:00:00;1725581724;06/09/24;00:15:24;0.0;0.0;0.0;0.0;0.0;0.0
01:00:0A:00:00:00:00;1725581725;06/09/24;00:15:25;0.0;0.0;0.0;0.0;0.0;0.0
01:00:0A:00:00:00:00;1725581726;06/09/24;00:15:26;0.0;0.0;0.0;0.0;0.0;0.0
01:00:0A:00:00:00:00;1725581727;06/09/24;00:15:27;0.0;0.0;0.0;0.0;0.0;0.0
01:00:0A:00:00:00:00;1725581728;06/09/24;00:15:28;0.0;0.0;0.0;0.0;0.0;0.0
01:00:0A:00:00:00:00;1725581729;06/09/24;00:15:29;0.0;0.0;0.0;0.0;0.0;0.0
01:00:0A:00:00:00:00;1725581730;06/09/24;00:15:30;0.0;0.0;0.0;0.0;0.0;0.0
01:00:0A:00:00:00:00;1725581731;06/09/24;00:15:31;0.0;0.0;0.0;0.0;0.0;0.0
01:00:0A:00:00:00:00;1725581732;06/09/24;00:15:32;0.0;0.0;0.0;0.0;0.0;0.0
01:00:0A:00:00:00:00;1725581733;06/09/24;00:15:33;0.0;0.0;0.0;0.0;0.0;0.0
01:00:0A:00:00:00:00;1725581734;06/09/24;00:15:34;0.0;0.0;0.0;0.0;0.0;0.0
01:00:0A:00:00:00:00;1725581735;06/09/24;00:15:35;0.0;0.0;0.0;0.0;0.0;0.0
01:00:0A:00:00:00:00;1725581736;06/09/24;00:15:36;0.0;0.0;0.0;0.0;0.0;0.0
01:00:0A:00:00:00:00;1725581737;06/09/24;00:15:37;0.0;0.0;0.0;0.0;0.0;0.0
01:00:0A:00:00:00:00;1725581738;06/09/24;00:15:38;0.0;0.0;0.0;0.0;0.0;0.0
01:00:0A:00:00:00:00;1725581739;06/09/24;00:15:39;0.0;0.0;0.0;0.0;0.0;0.0
01:00:0A:00:00:00:00;1725581740;06/09/24;00:15:40;0.0;0.0;0.0;0.0;0.0;0.0
01:00:0A:00:00:00:00;1725581741;06/09/24;00:15:41;0.0;0.0;0.0;0.0;0.0;0.0
01:00:0A:00:00:00:00;1725581742;06/09/24;00:15:42;0.0;0.0;0.0;0.0;0.0;0.0
01:00:0A:00:00:00:00;1725581743;06/09/24;00:15:43;0.0;0.0;0.0;0.0;0.0;0.0
01:00:0A:00:00:00:00;1725581744;06/09/24;00:15:44;0.0;0.0;0.0;0.0;0.0;0.0
01:00:0A:00:00:00:00;1725581745;06/09/24;00:15:45;0.0;0.0;0.0;0.0;0.0;0.0
01:00:0A:00:00:00:00;1725581746;06/09/24;00:15:46;0.0;0.0;0.0;0.0;0.0;0.0
01:00:0A:00:00:00:00;1725581747;06/09/24;00:15:47;0.0;0.0;0.0;0.0;0.0;0.0
01:00:0A:00:00:00:00;1725581748;06/09/24;00:15:48;0.0;0.0;0.0;0.0;0.0;0.0
01:00:0A:00:00:00:00;1725581749;06/09/24;00:15:49;0.0;0.0;0.0;0.0;0.0;0.0
01:00:0A:00:00:00:00;1725581750;06/09/24;00:15:50;0.0;0.0;0.0;0.0;0.0;0.0
01:00:0A:00:00:00:00;1725581751;06/09/24;00:15:51;0.0;0.0;0.0;0.0;0.0;0.0
01:00:0A:00:00:00:00;1725581752;06/09/24;00:15:52;0.0;0.0;0.0;0.0;0.0;0.0
01:00:0A:00:00:00:00;1725581753;06/09/24;00:15:53;0.0;0.0;0.0;0.0;0.0;0.0
01:00:0A:00:00:00:00;1725581754;06/09/24;00:15:54;0.0;0.0;0.0;0.0;0.0;0.0
01:00:0A:00:00:00:00;1725581755;06/09/24;00:15:55;0.0;0.0;0.0;0.0;0.0;0.0
01:00:0A:00:00:00:00;1725581756;06/09/24;00:15:56;0.0;0.0;0.0;0.0;0.0;0.0
01:00:0A:00:00:00:00;1725581757;06/09/24;00:15:57;0.0;0.0;0.0;0.0;0.0;0.0
01:00:0A:00:00:00:00;1725581758;06/09/24;00:15:58;0.0;0.0;0.0;0.0;0.0;0.0
01:00:0A:00:00:00:00;1725581759;06/09/24;00:15:59;0.0;0.0;0.0;0.0;0.0;0.0
01:00:0A:00:00:00:00;1725581760;06/09/24;00:16:00;0.0;0.0;0.0;0.0;0.0;0.0
01:00:0A:00:00:00:00;1725581761;06/09/24;00:16:01;0.0;0.0;0.0;0.0;0.0;0.0
01:00:0A:00:00:00:00;1725581762;06/09/24;00:16:02;0.0;0.0;0.0;0.0;0.0;0.0
01:00:0A:00:00:00:00;1725581763;06/09/24;00:16:03;0.0;0.0;0.0;0.0;0.0;0.0
01:00:0A:00:00:00:00;1725581764;06/09/24;00:16:04;0.0;0.0;0.0;0.0;0.0;0.0
01:00:0A:00:00:00:00;1725581765;06/09/24;00:16:05;0.0;0.0;0.0;0.0;0.0;0.0
01:00:0A:00:00:00:00;1725581766;06/09/24;00:16:06;0.0;0.0;0.0;0.0;0.0;0.0
01:00:0A:00:00:00:00;1725581767;06/09/24;00:16:07;0.0;0.0;0.0;0.0;0.0;0.0
01:00:0A:00:00:00:00;1725581768;06/09/24;00:16:08;0.0;0.0;0.0;0.0;0.0;0.0
01:00:0A:00:00:00:00;1725581769;06/09/24;00:16:09;0.0;0.0;0.0;0.0;0.0;0.0
01:00:0A:00:00:00:00;1725581770;06/09/24;00:16:10;0.0;0.0;0.0;0.0;0.0;0.0
01:00:0A:00:00:00:00;1725581771;06/09/24;00:16:11;0.0;0.0;0.0;0.0;0.0;0.0
01:00:0A:00:00:00:00;1725581772;06/09/24;00:16:12;0.0;0.0;0.0;0.0;0.0;0.0
01:00:0A:00:00:00:00;1725581773;06/09/24;00:16:13;0.0;0.0;0.0;0.0;0.0;0.0
01:00:0A:00:00:00:00;1725581774;06/09/24;00:16:14;0.0;0.0;0.0;0.0;0.0;0.0
01:00:0A:00:00:00:00;1725581775;06/09/24;00:16:15;0.0;0.0;0.0;0.0;0.0;0.0
01:00:0A:00:00:00:00;1725581776;06/09/24;00:16:16;0.0;0.0;0.0;0.0;0.0;0.0
01:00:0A:00:00:00:00;1725581777;06/09/24;00:16:17;0.0;0.0;0.0;0.0;0.0;0.0
01:00:0A:00:00:00:00;1725581778;06/09/24;00:16:18;0.0;0.0;0.0;0.0;0.0;0.0
01:00:0A:00:00:00:00;1725581779;06/09/24;00:16:19;0.0;0.0;0.0;0.0;0.0;0.0
01:00:0A:00:00:00:00;1725581780;06/09/24;00:16:20;0.0;0.0;0.0;0.0;0.0;0.0
01:00:0A:00:00:00:00;1725581781;06/09/24;00:16:21;0.0;0.0;0.0;0.0;0.0;0.0
01:00:0A:00:00:00:00;1725581782;06/09/24;00:16:22;0.0;0.0;0.0;0.0;0.0;0.0
01:00:0A:00:00:00:00;1725581783;06/09/24;00:16:23;0.0;0.0;0.0;0.0;0.0;0.0
01:00:0A:00:00:00:00;1725581784;06/09/24;00:16:24;0.0;0.0;0.0;0.0;0.0;0.0
01:00:0A:00:00:00:00;1725581785;06/09/24;00:16:25;0.0;0.0;0.0;0.0;0.0;0.0
01:00:0A:00:00:00:00;1725581786;06/09/24;00:16:26;0.0;0.0;0.0;0.0;0.0;0.0
01:00:0A:00:00:00:00;1725581787;06/09/24;00:16:27;0.0;0.0;0.0;0.0;0.0;0.0
01:00:0A:00:00:00:00;1725581788;06/09/24;00:16:28;0.0;0.0;0.0;0.0;0.0;0.0
01:00:0A:00:00:00:00;1725581789;06/09/24;00:16:29;0.0;0.0;0.0;0.0;0.0;0.0
01:00:0A:00:00:00:00;1725581790;06/09/24;00:16:30;0.0;0.0;0.0;0.0;0.0;0.0
01:00:0A:00:00:00:00;1725581791;06/09/24;00:16:31;0.0;0.0;0.0;0.0;0.0;0.0
01:00:0A:00:00:00:00;1725581792;06/09/24;00:16:32;0.0;0.0;0.0;0.0;0.0;0.0
01:00:0A:00:00:00:00;1725581793;06/09/24;00:16:33;0.0;0.0;0.0;0.0;0.0;0.0
01:00:0A:00:00:00:00;1725581794;06/09/24;00:16:34;0.0;0.0;0.0;0.0;0.0;0.0
01:00:0A:00:00:00:00;1725581795;06/09/24;00:16:35;0.0;0.0;0.0;0.0;0.0;0.0
01:00:0A:00:00:00:00;1725581796;06/09/24;00:16:36;0.0;0.0;0.0;0.0;0.0;0.0
01:00:0A:00:00:00:00;1725581797;06/09/24;00:16:37;0.0;0.0;0.0;0.0;0.0;0.0
01:00:0A:00:00:00:00;1725581798;06/09/24;00:16:38;0.0;0.0;0.0;0.0;0.0;0.0
01:00:0A:00:00:00:00;1725581799;06/09/24;00:16:39;0.0;0.0;0.0;0.0;0.0;0.0
01:00:0A:00:00:00:00;1725581800;06/09/24;00:16:40;0.0;0.0;0.0;0.0;0.0;0.0
01:00:0A:00:00:00:00;1725581801;06/09/24;00:16:41;0.0;0.0;0.0;0.0;0.0;0.0
01:00:0A:00:00:00:00;1725581802;06/09/24;00:16:42;0.0;0.0;0.0;0.0;0.0;0.0
01:00:0A:00:00:00:00;1725581803;06/09/24;00:16:43;0.0;0.0;0.0;0.0;0.0;0.0
01:00:0A:00:00:00:00;1725581804;06/09/24;00:16:44;0.0;0.0;0.0;0.0;0.0;0.0
01:00:0A:00:00:00:00;1725581805;06/09/24;00:16:45;0.0;0.0;0.0;0.0;0.0;0.0
01:00:0A:00:00:00:00;1725581806;06/09/24;00:16:46;0.0;0.0;0.0;0.0;0.0;0.0
01:00:0A:00:00:00:00;1725581807;06/09/24;00:16:47;0.0;0.0;0.0;0.0;0.0;0.0
01:00:0A:00:00:00:00;1725581808;06/09/24;00:16:48;0.0;0.0;0.0;0.0;0.0;0.0
01:00:0A:00:00:00:00;1725581809;06/09/24;00:16:49;0.0;0.0;0.0;0.0;0.0;0.0
01:00:0A:00:00:00:00;1725581810;06/09/24;00:16:50;0.0;0.0;0.0;0.0;0.0;0.0
01:00:0A:00:00:00:00;1725581811;06/09/24;00:16:51;0.0;0.0;0.0;0.0;0.0;0.0
01:00:0A:00:00:00:00;1725581812;06/09/24;00:16:52;0.0;0.0;0.0;0.0;0.0;0.0
01:00:0A:00:00:00:00;1725581813;06/09/24;00:16:53;0.0;0.0;0.0;0.0;0.0;0.0
01:00:0A:00:00:00:00;1725581814;06/09/24;00:16:54;0.0;0.0;0.0;0.0;0.0;0.0
01:00:0A:00:00:00:00;1725581815;06/09/24;00:16:55;0.0;0.0;0.0;0.0;0.0;0.0
01:00:0A:00:00:00:00;1725581816;06/09/24;00:16:56;0.0;0.0;0.0;0.0;0.0;0.0
01:00:0A:00:00:00:00;1725581817;06/09/24;00:16:57;0.0;0.0;0.0;0.0;0.0;0.0
01:00:0A:00:00:00:00;1725581818;06/09/24;00:16:58;0.0;0.0;0.0;0.0;0.0;0.0
01:00:0A:00:00:00:00;1725581819;06/09/24;00:16:59;0.0;0.0;0.0;0.0;0.0;0.0
01:00:0A:00:00:00:00;1725581820;06/09/24;00:17:00;0.0;0.0;0.0;0.0;0.0;0.0
01:00:0A:00:00:00:00;1725581821;06/09/24;00:17:01;0.0;0.0;0.0;0.0;0.0;0.0
01:00:0A:00:00:00:00;1725581822;06/09/24;00:17:02;0.0;0.0;0.0;0.0;0.0;0.0
01:00:0A:00:00:00:00;1725581823;06/09/24;00:17:03;0.0;0.0;0.0;0.0;0.0;0.0
01:00:0A:00:00:00:00;1725581824;06/09/24;00:17:04;0.0;0.0;0.0;0.0;0.0;0.0
01:00:0A:00:00:00:00;1725581825;06/09/24;00:17:05;0.0;0.0;0.0;0.0;0.0;0.0
01:00:0A:00:00:00:00;1725581826;06/09/24;00:17:06;0.0;0.0;0.0;0.0;0.0;0.0
01:00:0A:00:00:00:00;1725581827;06/09/24;00:17:07;0.0;0.0;0.0;0.0;0.0;0.0
01:00:0A:00:00:00:00;1725581828;06/09/24;00:17:08;0.0;0.0;0.0;0.0;0.0;0.0
01:00:0A:00:00:00:00;1725581829;06/09/24;00:17:09;0.0;0.0;0.0;0.0;0.0;0.0
01:00:0A:00:00:00:00;1725581830;06/09/24;00:17:10;0.0;0.0;0.0;0.0;0.0;0.0
01:00:0A:00:00:00:00;1725581831;06/09/24;00:17:11;0.0;0.0;0.0;0.0;0.0;0.0
01:00:0A:00:00:00:00;1725581832;06/09/24;00:17:12;0.0;0.0;0.0;0.0;0.0;0.0
01:00:0A:00:00:00:00;1725581833;06/09/24;00:17:13;0.0;0.0;0.0;0.0;0.0;0.0
01:00:0A:00:00:00:00;1725581834;06/09/24;00:17:14;0.0;0.0;0.0;0.0;0.0;0.0
01:00:0A:00:00:00:00;1725581835;06/09/24;00:17:15;0.0;0.0;0.0;0.0;0.0;0.0
01:00:0A:00:00:00:00;1725581836;06/09/24;00:17:16;0.0;0.0;0.0;0.0;0.0;0.0
01:00:0A:00:00:00:00;1725581837;06/09/24;00:17:17;0.0;0.0;0.0;0.0;0.0;0.0
01:00:0A:00:00:00:00;1725581838;06/09/24;00:17:18;0.0;0.0;0.0;0.0;0.0;0.0
01:00:0A:00:00:00:00;1725581839;06/09/24;00:17:19;0.0;0.0;0.0;0.0;0.0;0.0
01:00:0A:00:00:00:00;1725581840;06/09/24;00:17:20;0.0;0.0;0.0;0.0;0.0;0.0
01:00:0A:00:00:00:00;1725581841;06/09/24;00:17:21;0.0;0.0;0.0;0.0;0.0;0.0
01:00:0A:00:00:00:00;1725581842;06/09/24;00:17:22;0.0;0.0;0.0;0.0;0.0;0.0
01:00:0A:00:00:00:00;1725581843;06/09/24;00:17:23;0.0;0.0;0.0;0.0;0.0;0.0
01:00:0A:00:00:00:00;1725581844;06/09/24;00:17:24;0.0;0.0;0.0;0.0;0.0;0.0
01:00:0A:00:00:00:00;1725581845;06/09/24;00:17:25;0.0;0.0;0.0;0.0;0.0;0.0
01:00:0A:00:00:00:00;1725581846;06/09/24;00:17:26;0.0;0.0;0.0;0.0;0.0;0.0
01:00:0A:00:00:00:00;1725581847;06/09/24;00:17:27;0.0;0.0;0.0;0.0;0.0;0.0
01:00:0A:00:00:00:00;1725581848;06/09/24;00:17:28;0.0;0.0;0.0;0.0;0.0;0.0
01:00:0A:00:00:00:00;1725581849;06/09/24;00:17:29;0.0;0.0;0.0;0.0;0.0;0.0
01:00:0A:00:00:00:00;1725581850;06/09/24;00:17:30;0.0;0.0;0.0;0.0;0.0;0.0
01:00:0A:00:00:00:00;1725581851;06/09/24;00:17:31;0.0;0.0;0.0;0.0;0.0;0.0
01:00:0A:00:00:00:00;1725581852;06/09/24;00:17:32;0.0;0.0;0.0;0.0;0.0;0.0
01:00:0A:00:00:00:00;1725581853;06/09/24;00:17:33;0.0;0.0;0.0;0.0;0.0;0.0
01:00:0A:00:00:00:00;1725581854;06/09/24;00:17:34;0.0;0.0;0.0;0.0;0.0;0.0
01:00:0A:00:00:00:00;1725581855;06/09/24;00:17:35;0.0;0.0;0.0;0.0;0.0;0.0
01:00:0A:00:00:00:00;1725581856;06/09/24;00:17:36;0.0;0.0;0.0;0.0;0.0;0.0
01:00:0A:00:00:00:00;1725581857;06/09/24;00:17:37;0.0;0.0;0.0;0.0;0.0;0.0
01:00:0A:00:00:00:00;1725581858;06/09/24;00:17:38;0.0;0.0;0.0;0.0;0.0;0.0
01:00:0A:00:00:00:00;1725581859;06/09/24;00:17:39;0.0;0.0;0.0;0.0;0.0;0.0
01:00:0A:00:00:00:00;1725581860;06/09/24;00:17:40;0.0;0.0;0.0;0.0;0.0;0.0
01:00:0A:00:00:00:00;1725581861;06/09/24;00:17:41;0.0;0.0;0.0;0.0;0.0;0.0
01:00:0A:00:00:00:00;1725581862;06/09/24;00:17:42;0.0;0.0;0.0;0.0;0.0;0.0
01:00:0A:00:00:00:00;1725581863;06/09/24;00:17:43;0.0;0.0;0.0;0.0;0.0;0.0
01:00:0A:00:00:00:00;1725581864;06/09/24;00:17:44;0.0;0.0;0.0;0.0;0.0;0.0
01:00:0A:00:00:00:00;1725581865;06/09/24;00:17:45;0.0;0.0;0.0;0.0;0.0;0.0
01:00:0A:00:00:00:00;1725581866;06/09/24;00:17:46;0.0;0.0;0.0;0.0;0.0;0.0
01:00:0A:00:00:00:00;1725581867;06/09/24;00:17:47;0.0;0.0;0.0;0.0;0.0;0.0
01:00:0A:00:00:00:00;1725581868;06/09/24;00:17:48;0.0;0.0;0.0;0.0;0.0;0.0
01:00:0A:00:00:00:00;1725581869;06/09/24;00:17:49;0.0;0.0;0.0;0.0;0.0;0.0
01:00:0A:00:00:00:00;1725581870;06/09/24;00:17:50;0.0;0.0;0.0;0.0;0.0;0.0
01:00:0A:00:00:00:00;1725581871;06/09/24;00:17:51;0.0;0.0;0.0;0.0;0.0;0.0
01:00:0A:00:00:00:00;1725581872;06/09/24;00:17:52;0.0;0.0;0.0;0.0;0.0;0.0
01:00:0A:00:00:00:00;1725581873;06/09/24;00:17:53;0.0;0.0;0.0;0.0;0.0;0.0
01:00:0A:00:00:00:00;1725581874;06/09/24;00:17:54;0.0;0.0;0.0;0.0;0.0;0.0
01:00:0A:00:00:00:00;1725581875;06/09/24;00:17:55;0.0;0.0;0.0;0.0;0.0;0.0
01:00:0A:00:00:00:00;1725581876;06/09/24;00:17:56;0.0;0.0;0.0;0.0;0.0;0.0
01:00:0A:00:00:00:00;1725581877;06/09/24;00:17:57;0.0;0.0;0.0;0.0;0.0;0.0
01:00:0A:00:00:00:00;1725581878;06/09/24;00:17:58;0.0;0.0;0.0;0.0;0.0;0.0
01:00:0A:00:00:00:00;1725581879;06/09/24;00:17:59;0.0;0.0;0.0;0.0;0.0;0.0
01:00:0A:00:00:00:00;1725581880;06/09/24;00:18:00;0.0;0.0;0.0;0.0;0.0;0.0
01:00:0A:00:00:00:00;1725581881;06/09/24;00:18:01;0.0;0.0;0.0;0.0;0.0;0.0
01:00:0A:00:00:00:00;1725581882;06/09/24;00:18:02;0.0;0.0;0.0;0.0;0.0;0.0
01:00:0A:00:00:00:00;1725581883;06/09/24;00:18:03;0.0;0.0;0.0;0.0;0.0;0.0
01:00:0A:00:00:00:00;1725581884;06/09/24;00:18:04;0.0;0.0;0.0;0.0;0.0;0.0
01:00:0A:00:00:00:00;1725581885;06/09/24;00:18:05;0.0;0.0;0.0;0.0;0.0;0.0
01:00:0A:00:00:00:00;1725581886;06/09/24;00:18:06;0.0;0.0;0.0;0.0;0.0;0.0
01:00:0A:00:00:00:00;1725581887;06/09/24;00:18:07;0.0;0.0;0.0;0.0;0.0;0.0
01:00:0A:00:00:00:00;1725581888;06/09/24;00:18:08;0.0;0.0;0.0;0.0;0.0;0.0
01:00:0A:00:00:00:00;1725581889;06/09/24;00:18:09;0.0;0.0;0.0;0.0;0.0;0.0
01:00:0A:00:00:00:00;1725581890;06/09/24;00:18:10;0.0;0.0;0.0;0.0;0.0;0.0
01:00:0A:00:00:00:00;1725581891;06/09/24;00:18:11;0.0;0.0;0.0;0.0;0.0;0.0
01:00:0A:00:00:00:00;1725581892;06/09/24;00:18:12;0.0;0.0;0.0;0.0;0.0;0.0
01:00:0A:00:00:00:00;1725581893;06/09/24;00:18:13;0.0;0.0;0.0;0.0;0.0;0.0
01:00:0A:00:00:00:00;1725581894;06/09/24;00:18:14;0.0;0.0;0.0;0.0;0.0;0.0
01:00:0A:00:00:00:00;1725581895;06/09/24;00:18:15;0.0;0.0;0.0;0.0;0.0;0.0
01:00:0A:00:00:00:00;1725581896;06/09/24;00:18:16;0.0;0.0;0.0;0.0;0.0;0.0
01:00:0A:00:00:00:00;1725581897;06/09/24;00:18:17;0.0;0.0;0.0;0.0;0.0;0.0
01:00:0A:00:00:00:00;1725581898;06/09/24;00:18:18;0.0;0.0;0.0;0.0;0.0;0.0
01:00:0A:00:00:00:00;1725581899;06/09/24;00:18:19;0.0;0.0;0.0;0.0;0.0;0.0
01:00:0A:00:00:00:00;1725581900;06/09/24;00:18:20;0.0;0.0;0.0;0.0;0.0;0.0
01:00:0A:00:00:00:00;1725581901;06/09/24;00:18:21;0.0;0.0;0.0;0.0;0.0;0.0
01:00:0A:00:00:00:00;1725581902;06/09/24;00:18:22;0.0;0.0;0.0;0.0;0.0;0.0
01:00:0A:00:00:00:00;1725581903;06/09/24;00:18:23;0.0;0.0;0.0;0.0;0.0;0.0
01:00:0A:00:00:00:00;1725581904;06/09/24;00:18:24;0.0;0.0;0.0;0.0;0.0;0.0
01:00:0A:00:00:00:00;1725581905;06/09/24;00:18:25;0.0;0.0;0.0;0.0;0.0;0.0
01:00:0A:00:00:00:00;1725581906;06/09/24;00:18:26;0.0;0.0;0.0;0.0;0.0;0.0
01:00:0A:00:00:00:00;1725581907;06/09/24;00:18:27;0.0;0.0;0.0;0.0;0.0;0.0
01:00:0A:00:00:00:00;1725581908;06/09/24;00:18:28;0.0;0.0;0.0;0.0;0.0;0.0
01:00:0A:00:00:00:00;1725581909;06/09/24;00:18:29;0.0;0.0;0.0;0.0;0.0;0.0
01:00:0A:00:00:00:00;1725581910;06/09/24;00:18:30;0.0;0.0;0.0;0.0;0.0;0.0
01:00:0A:00:00:00:00;1725581911;06/09/24;00:18:31;0.0;0.0;0.0;0.0;0.0;0.0
01:00:0A:00:00:00:00;1725581912;06/09/24;00:18:32;0.0;0.0;0.0;0.0;0.0;0.0
01:00:0A:00:00:00:00;1725581913;06/09/24;00:18:33;0.0;0.0;0.0;0.0;0.0;0.0
01:00:0A:00:00:00:00;1725581914;06/09/24;00:18:34;0.0;0.0;0.0;0.0;0.0;0.0
01:00:0A:00:00:00:00;1725581915;06/09/24;00:18:35;0.0;0.0;0.0;0.0;0.0;0.0
01:00:0A:00:00:00:00;1725581916;06/09/24;00:18:36;0.0;0.0;0.0;0.0;0.0;0.0
01:00:0A:00:00:00:00;1725581917;06/09/24;00:18:37;0.0;0.0;0.0;0.0;0.0;0.0
01:00:0A:00:00:00:00;1725581918;06/09/24;00:18:38;0.0;0.0;0.0;0.0;0.0;0.0
01:00:0A:00:00:00:00;1725581919;06/09/24;00:18:39;0.0;0.0;0.0;0.0;0.0;0.0
01:00:0A:00:00:00:00;1725581920;06/09/24;00:18:40;0.0;0.0;0.0;0.0;0.0;0.0
01:00:0A:00:00:00:00;1725581921;06/09/24;00:18:41;0.0;0.0;0.0;0.0;0.0;0.0
01:00:0A:00:00:00:00;1725581922;06/09/24;00:18:42;0.0;0.0;0.0;0.0;0.0;0.0
01:00:0A:00:00:00:00;1725581923;06/09/24;00:18:43;0.0;0.0;0.0;0.0;0.0;0.0
01:00:0A:00:00:00:00;1725581924;06/09/24;00:18:44;0.0;0.0;0.0;0.0;0.0;0.0
01:00:0A:00:00:00:00;1725581925;06/09/24;00:18:45;0.0;0.0;0.0;0.0;0.0;0.0
01:00:0A:00:00:00:00;1725581926;06/09/24;00:18:46;0.0;0.0;0.0;0.0;0.0;0.0
01:00:0A:00:00:00:00;1725581927;06/09/24;00:18:47;0.0;0.0;0.0;0.0;0.0;0.0
01:00:0A:00:00:00:00;1725581928;06/09/24;00:18:48;0.0;0.0;0.0;0.0;0.0;0.0
01:00:0A:00:00:00:00;1725581929;06/09/24;00:18:49;0.0;0.0;0.0;0.0;0.0;0.0
01:00:0A:00:00:00:00;1725581930;06/09/24;00:18:50;0.0;0.0;0.0;0.0;0.0;0.0
01:00:0A:00:00:00:00;1725581931;06/09/24;00:18:51;0.0;0.0;0.0;0.0;0.0;0.0
01:00:0A:00:00:00:00;1725581932;06/09/24;00:18:52;0.0;0.0;0.0;0.0;0.0;0.0
01:00:0A:00:00:00:00;1725581933;06/09/24;00:18:53;0.0;0.0;0.0;0.0;0.0;0.0
01:00:0A:00:00:00:00;1725581934;06/09/24;00:18:54;0.0;0.0;0.0;0.0;0.0;0.0
01:00:0A:00:00:00:00;1725581935;06/09/24;00:18:55;0.0;0.0;0.0;0.0;0.0;0.0
01:00:0A:00:00:00:00;1725581936;06/09/24;00:18:56;0.0;0.0;0.0;0.0;0.0;0.0
01:00:0A:00:00:00:00;1725581937;06/09/24;00:18:57;0.0;0.0;0.0;0.0;0.0;0.0
01:00:0A:00:00:00:00;1725581938;06/09/24;00:18:58;0.0;0.0;0.0;0.0;0.0;0.0
01:00:0A:00:00:00:00;1725581939;06/09/24;00:18:59;0.0;0.0;0.0;0.0;0.0;0.0
01:00:0A:00:00:00:00;1725581940;06/09/24;00:19:00;0.0;0.0;0.0;0.0;0.0;0.0
01:00:0A:00:00:00:00;1725581941;06/09/24;00:19:01;0.0;0.0;0.0;0.0;0.0;0.0
01:00:0A:00:00:00:00;1725581942;06/09/24;00:19:02;0.0;0.0;0.0;0.0;0.0;0.0
01:00:0A:00:00:00:00;1725581943;06/09/24;00:19:03;0.0;0.0;0.0;0.0;0.0;0.0
01:00:0A:00:00:00:00;1725581944;06/09/24;00:19:04;0.0;0.0;0.0;0.0;0.0;0.0
01:00:0A:00:00:00:00;1725581945;06/09/24;00:19:05;0.0;0.0;0.0;0.0;0.0;0.0
01:00:0A:00:00:00:00;1725581946;06/09/24;00:19:06;0.0;0.0;0.0;0.0;0.0;0.0
01:00:0A:00:00:00:00;1725581947;06/09/24;00:19:07;0.0;0.0;0.0;0.0;0.0;0.0
01:00:0A:00:00:00:00;1725581948;06/09/24;00:19:08;0.0;0.0;0.0;0.0;0.0;0.0
01:00:0A:00:00:00:00;1725581949;06/09/24;00:19:09;0.0;0.0;0.0;0.0;0.0;0.0
01:00:0A:00:00:00:00;1725581950;06/09/24;00:19:10;0.0;0.0;0.0;0.0;0.0;0.0
01:00:0A:00:00:00:00;1725581951;06/09/24;00:19:11;0.0;0.0;0.0;0.0;0.0;0.0
01:00:0A:00:00:00:00;1725581952;06/09/24;00:19:12;0.0;0.0;0.0;0.0;0.0;0.0
01:00:0A:00:00:00:00;1725581953;06/09/24;00:19:13;0.0;0.0;0.0;0.0;0.0;0.0
01:00:0A:00:00:00:00;1725581954;06/09/24;00:19:14;0.0;0.0;0.0;0.0;0.0;0.0
01:00:0A:00:00:00:00;1725581955;06/09/24;00:19:15;0.0;0.0;0.0;0.0;0.0;0.0
01:00:0A:00:00:00:00;1725581956;06/09/24;00:19:16;0.0;0.0;0.0;0.0;0.0;0.0
01:00:0A:00:00:00:00;1725581957;06/09/24;00:19:17;0.0;0.0;0.0;0.0;0.0;0.0
01:00:0A:00:00:00:00;1725581958;06/09/24;00:19:18;0.0;0.0;0.0;0.0;0.0;0.0
01:00:0A:00:00:00:00;1725581959;06/09/24;00:19:19;0.0;0.0;0.0;0.0;0.0;0.0
01:00:0A:00:00:00:00;1725581960;06/09/24;00:19:20;0.0;0.0;0.0;0.0;0.0;0.0
01:00:0A:00:00:00:00;1725581961;06/09/24;00:19:21;0.0;0.0;0.0;0.0;0.0;0.0
01:00:0A:00:00:00:00;1725581962;06/09/24;00:19:22;0.0;0.0;0.0;0.0;0.0;0.0
01:00:0A:00:00:00:00;1725581963;06/09/24;00:19:23;0.0;0.0;0.0;0.0;0.0;0.0
01:00:0A:00:00:00:00;1725581964;06/09/24;00:19:24;0.0;0.0;0.0;0.0;0.0;0.0
01:00:0A:00:00:00:00;1725581965;06/09/24;00:19:25;0.0;0.0;0.0;0.0;0.0;0.0
01:00:0A:00:00:00:00;1725581966;06/09/24;00:19:26;0.0;0.0;0.0;0.0;0.0;0.0
01:00:0A:00:00:00:00;1725581967;06/09/24;00:19:27;0.0;0.0;0.0;0.0;0.0;0.0
01:00:0A:00:00:00:00;1725581968;06/09/24;00:19:28;0.0;0.0;0.0;0.0;0.0;0.0
01:00:0A:00:00:00:00;1725581969;06/09/24;00:19:29;0.0;0.0;0.0;0.0;0.0;0.0
01:00:0A:00:00:00:00;1725581970;06/09/24;00:19:30;0.0;0.0;0.0;0.0;0.0;0.0
01:00:0A:00:00:00:00;1725581971;06/09/24;00:19:31;0.0;0.0;0.0;0.0;0.0;0.0
01:00:0A:00:00:00:00;1725581972;06/09/24;00:19:32;0.0;0.0;0.0;0.0;0.0;0.0
01:00:0A:00:00:00:00;1725581973;06/09/24;00:19:33;0.0;0.0;0.0;0.0;0.0;0.0
01:00:0A:00:00:00:00;1725581974;06/09/24;00:19:34;0.0;0.0;0.0;0.0;0.0;0.0
01:00:0A:00:00:00:00;1725581975;06/09/24;00:19:35;0.0;0.0;0.0;0.0;0.0;0.0
01:00:0A:00:00:00:00;1725581976;06/09/24;00:19:36;0.0;0.0;0.0;0.0;0.0;0.0
01:00:0A:00:00:00:00;1725581977;06/09/24;00:19:37;0.0;0.0;0.0;0.0;0.0;0.0
01:00:0A:00:00:00:00;1725581978;06/09/24;00:19:38;0.0;0.0;0.0;0.0;0.0;0.0
01:00:0A:00:00:00:00;1725581979;06/09/24;00:19:39;0.0;0.0;0.0;0.0;0.0;0.0
01:00:0A:00:00:00:00;1725581980;06/09/24;00:19:40;0.0;0.0;0.0;0.0;0.0;0.0
01:00:0A:00:00:00:00;1725581981;06/09/24;00:19:41;0.0;0.0;0.0;0.0;0.0;0.0
01:00:0A:00:00:00:00;1725581982;06/09/24;00:19:42;0.0;0.0;0.0;0.0;0.0;0.0
01:00:0A:00:00:00:00;1725581983;06/09/24;00:19:43;0.0;0.0;0.0;0.0;0.0;0.0
01:00:0A:00:00:00:00;1725581984;06/09/24;00:19:44;0.0;0.0;0.0;0.0;0.0;0.0
01:00:0A:00:00:00:00;1725581985;06/09/24;00:19:45;0.0;0.0;0.0;0.0;0.0;0.0
01:00:0A:00:00:00:00;1725581986;06/09/24;00:19:46;0.0;0.0;0.0;0.0;0.0;0.0
01:00:0A:00:00:00:00;1725581987;06/09/24;00:19:47;0.0;0.0;0.0;0.0;0.0;0.0
01:00:0A:00:00:00:00;1725581988;06/09/24;00:19:48;0.0;0.0;0.0;0.0;0.0;0.0
01:00:0A:00:00:00:00;1725581989;06/09/24;00:19:49;0.0;0.0;0.0;0.0;0.0;0.0
01:00:0A:00:00:00:00;1725581990;06/09/24;00:19:50;0.0;0.0;0.0;0.0;0.0;0.0
01:00:0A:00:00:00:00;1725581991;06/09/24;00:19:51;0.0;0.0;0.0;0.0;0.0;0.0
01:00:0A:00:00:00:00;1725581992;06/09/24;00:19:52;0.0;0.0;0.0;0.0;0.0;0.0
01:00:0A:00:00:00:00;1725581993;06/09/24;00:19:53;0.0;0.0;0.0;0.0;0.0;0.0
01:00:0A:00:00:00:00;1725581994;06/09/24;00:19:54;0.0;0.0;0.0;0.0;0.0;0.0
01:00:0A:00:00:00:00;1725581995;06/09/24;00:19:55;0.0;0.0;0.0;0.0;0.0;0.0
01:00:0A:00:00:00:00;1725581996;06/09/24;00:19:56;0.0;0.0;0.0;0.0;0.0;0.0
01:00:0A:00:00:00:00;1725581997;06/09/24;00:19:57;0.0;0.0;0.0;0.0;0.0;0.0
01:00:0A:00:00:00:00;1725581998;06/09/24;00:19:58;0.0;0.0;0.0;0.0;0.0;0.0
01:00:0A:00:00:00:00;1725581999;06/09/24;00:19:59;0.0;0.0;0.0;0.0;0.0;0.0
01:00:0A:00:00:00:00;1725582000;06/09/24;00:20:00;0.0;0.0;0.0;0.0;0.0;0.0
01:00:0A:00:00:00:00;1725582001;06/09/24;00:20:01;0.0;0.0;0.0;0.0;0.0;0.0
01:00:0A:00:00:00:00;1725582002;06/09/24;00:20:02;0.0;0.0;0.0;0.0;0.0;0.0
01:00:0A:00:00:00:00;1725582003;06/09/24;00:20:03;0.0;0.0;0.0;0.0;0.0;0.0
01:00:0A:00:00:00:00;1725582004;06/09/24;00:20:04;0.0;0.0;0.0;0.0;0.0;0.0
01:00:0A:00:00:00:00;1725582005;06/09/24;00:20:05;0.0;0.0;0.0;0.0;0.0;0.0
01:00:0A:00:00:00:00;1725582006;06/09/24;00:20:06;0.0;0.0;0.0;0.0;0.0;0.0
01:00:0A:00:00:00:00;1725582007;06/09/24;00:20:07;0.0;0.0;0.0;0.0;0.0;0.0
01:00:0A:00:00:00:00;1725582008;06/09/24;00:20:08;0.0;0.0;0.0;0.0;0.0;0.0
01:00:0A:00:00:00:00;1725582009;06/09/24;00:20:09;0.0;0.0;0.0;0.0;0.0;0.0
01:00:0A:00:00:00:00;1725582010;06/09/24;00:20:10;0.0;0.0;0.0;0.0;0.0;0.0
01:00:0A:00:00:00:00;1725582011;06/09/24;00:20:11;0.0;0.0;0.0;0.0;0.0;0.0
01:00:0A:00:00:00:00;1725582012;06/09/24;00:20:12;0.0;0.0;0.0;0.0;0.0;0.0
01:00:0A:00:00:00:00;1725582013;06/09/24;00:20:13;0.0;0.0;0.0;0.0;0.0;0.0
01:00:0A:00:00:00:00;1725582014;06/09/24;00:20:14;0.0;0.0;0.0;0.0;0.0;0.0
01:00:0A:00:00:00:00;1725582015;06/09/24;00:20:15;0.0;0.0;0.0;0.0;0.0;0.0
01:00:0A:00:00:00:00;1725582016;06/09/24;00:20:16;0.0;0.0;0.0;0.0;0.0;0.0
01:00:0A:00:00:00:00;1725582017;06/09/24;00:20:17;0.0;0.0;0.0;0.0;0.0;0.0
01:00:0A:00:00:00:00;1725582018;06/09/24;00:20:18;0.0;0.0;0.0;0.0;0.0;0.0
01:00:0A:00:00:00:00;1725582019;06/09/24;00:20:19;0.0;0.0;0.0;0.0;0.0;0.0
01:00:0A:00:00:00:00;1725582020;06/09/24;00:20:20;0.0;0.0;0.0;0.0;0.0;0.0
01:00:0A:00:00:00:00;1725582021;06/09/24;00:20:21;0.0;0.0;0.0;0.0;0.0;0.0
01:00:0A:00:00:00:00;1725582022;06/09/24;00:20:22;0.0;0.0;0.0;0.0;0.0;0.0
01:00:0A:00:00:00:00;1725582023;06/09/24;00:20:23;0.0;0.0;0.0;0.0;0.0;0.0
01:00:0A:00:00:00:00;1725582024;06/09/24;00:20:24;0.0;0.0;0.0;0.0;0.0;0.0
01:00:0A:00:00:00:00;1725582025;06/09/24;00:20:25;0.0;0.0;0.0;0.0;0.0;0.0
01:00:0A:00:00:00:00;1725582026;06/09/24;00:20:26;0.0;0.0;0.0;0.0;0.0;0.0
01:00:0A:00:00:00:00;1725582027;06/09/24;00:20:27;0.0;0.0;0.0;0.0;0.0;0.0
01:00:0A:00:00:00:00;1725582028;06/09/24;00:20:28;0.0;0.0;0.0;0.0;0.0;0.0
01:00:0A:00:00:00:00;1725582029;06/09/24;00:20:29;0.0;0.0;0.0;0.0;0.0;0.0
01:00:0A:00:00:00:00;1725582030;06/09/24;00:20:30;0.0;0.0;0.0;0.0;0.0;0.0
01:00:0A:00:00:00:00;1725582031;06/09/24;00:20:31;0.0;0.0;0.0;0.0;0.0;0.0
01:00:0A:00:00:00:00;1725582032;06/09/24;00:20:32;0.0;0.0;0.0;0.0;0.0;0.0
01:00:0A:00:00:00:00;1725582033;06/09/24;00:20:33;0.0;0.0;0.0;0.0;0.0;0.0
01:00:0A:00:00:00:00;1725582034;06/09/24;00:20:34;0.0;0.0;0.0;0.0;0.0;0.0
01:00:0A:00:00:00:00;1725582035;06/09/24;00:20:35;0.0;0.0;0.0;0.0;0.0;0.0
01:00:0A:00:00:00:00;1725582036;06/09/24;00:20:36;0.0;0.0;0.0;0.0;0.0;0.0
01:00:0A:00:00:00:00;1725582037;06/09/24;00:20:37;0.0;0.0;0.0;0.0;0.0;0.0
01:00:0A:00:00:00:00;1725582038;06/09/24;00:20:38;0.0;0.0;0.0;0.0;0.0;0.0
01:00:0A:00:00:00:00;1725582039;06/09/24;00:20:39;0.0;0.0;0.0;0.0;0.0;0.0
01:00:0A:00:00:00:00;1725582040;06/09/24;00:20:40;0.0;0.0;0.0;0.0;0.0;0.0
01:00:0A:00:00:00:00;1725582041;06/09/24;00:20:41;0.0;0.0;0.0;0.0;0.0;0.0
01:00:0A:00:00:00:00;1725582042;06/09/24;00:20:42;0.0;0.0;0.0;0.0;0.0;0.0
01:00:0A:00:00:00:00;1725582043;06/09/24;00:20:43;0.0;0.0;0.0;0.0;0.0;0.0
01:00:0A:00:00:00:00;1725582044;06/09/24;00:20:44;0.0;0.0;0.0;0.0;0.0;0.0
01:00:0A:00:00:00:00;1725582045;06/09/24;00:20:45;0.0;0.0;0.0;0.0;0.0;0.0
01:00:0A:00:00:00:00;1725582046;06/09/24;00:20:46;0.0;0.0;0.0;0.0;0.0;0.0
01:00:0A:00:00:00:00;1725582047;06/09/24;00:20:47;0.0;0.0;0.0;0.0;0.0;0.0
01:00:0A:00:00:00:00;1725582048;06/09/24;00:20:48;0.0;0.0;0.0;0.0;0.0;0.0
01:00:0A:00:00:00:00;1725582049;06/09/24;00:20:49;0.0;0.0;0.0;0.0;0.0;0.0
01:00:0A:00:00:00:00;1725582050;06/09/24;00:20:50;0.0;0.0;0.0;0.0;0.0;0.0
01:00:0A:00:00:00:00;1725582051;06/09/24;00:20:51;0.0;0.0;0.0;0.0;0.0;0.0
01:00:0A:00:00:00:00;1725582052;06/09/24;00:20:52;0.0;0.0;0.0;0.0;0.0;0.0
01:00:0A:00:00:00:00;1725582053;06/09/24;00:20:53;0.0;0.0;0.0;0.0;0.0;0.0
01:00:0A:00:00:00:00;1725582054;06/09/24;00:20:54;0.0;0.0;0.0;0.0;0.0;0.0
01:00:0A:00:00:00:00;1725582055;06/09/24;00:20:55;0.0;0.0;0.0;0.0;0.0;0.0
01:00:0A:00:00:00:00;1725582056;06/09/24;00:20:56;0.0;0.0;0.0;0.0;0.0;0.0
01:00:0A:00:00:00:00;1725582057;06/09/24;00:20:57;0.0;0.0;0.0;0.0;0.0;0.0
01:00:0A:00:00:00:00;1725582058;06/09/24;00:20:58;0.0;0.0;0.0;0.0;0.0;0.0
01:00:0A:00:00:00:00;1725582059;06/09/24;00:20:59;0.0;0.0;0.0;0.0;0.0;0.0
01:00:0A:00:00:00:00;1725582060;06/09/24;00:21:00;0.0;0.0;0.0;0.0;0.0;0.0
01:00:0A:00:00:00:00;1725582061;06/09/24;00:21:01;0.0;0.0;0.0;0.0;0.0;0.0
01:00:0A:00:00:00:00;1725582062;06/09/24;00:21:02;0.0;0.0;0.0;0.0;0.0;0.0
01:00:0A:00:00:00:00;1725582063;06/09/24;00:21:03;0.0;0.0;0.0;0.0;0.0;0.0
01:00:0A:00:00:00:00;1725582064;06/09/24;00:21:04;0.0;0.0;0.0;0.0;0.0;0.0
01:00:0A:00:00:00:00;1725582065;06/09/24;00:21:05;0.0;0.0;0.0;0.0;0.0;0.0
01:00:0A:00:00:00:00;1725582066;06/09/24;00:21:06;0.0;0.0;0.0;0.0;0.0;0.0
01:00:0A:00:00:00:00;1725582067;06/09/24;00:21:07;0.0;0.0;0.0;0.0;0.0;0.0
01:00:0A:00:00:00:00;1725582068;06/09/24;00:21:08;0.0;0.0;0.0;0.0;0.0;0.0
01:00:0A:00:00:00:00;1725582069;06/09/24;00:21:09;0.0;0.0;0.0;0.0;0.0;0.0
01:00:0A:00:00:00:00;1725582070;06/09/24;00:21:10;0.0;0.0;0.0;0.0;0.0;0.0
01:00:0A:00:00:00:00;1725582071;06/09/24;00:21:11;0.0;0.0;0.0;0.0;0.0;0.0
01:00:0A:00:00:00:00;1725582072;06/09/24;00:21:12;0.0;0.0;0.0;0.0;0.0;0.0
01:00:0A:00:00:00:00;1725582073;06/09/24;00:21:13;0.0;0.0;0.0;0.0;0.0;0.0
01:00:0A:00:00:00:00;1725582074;06/09/24;00:21:14;0.0;0.0;0.0;0.0;0.0;0.0
01:00:0A:00:00:00:00;1725582075;06/09/24;00:21:15;0.0;0.0;0.0;0.0;0.0;0.0
01:00:0A:00:00:00:00;1725582076;06/09/24;00:21:16;0.0;0.0;0.0;0.0;0.0;0.0
01:00:0A:00:00:00:00;1725582077;06/09/24;00:21:17;0.0;0.0;0.0;0.0;0.0;0.0
01:00:0A:00:00:00:00;1725582078;06/09/24;00:21:18;0.0;0.0;0.0;0.0;0.0;0.0
01:00:0A:00:00:00:00;1725582079;06/09/24;00:21:19;0.0;0.0;0.0;0.0;0.0;0.0
01:00:0A:00:00:00:00;1725582080;06/09/24;00:21:20;0.0;0.0;0.0;0.0;0.0;0.0
01:00:0A:00:00:00:00;1725582081;06/09/24;00:21:21;0.0;0.0;0.0;0.0;0.0;0.0
01:00:0A:00:00:00:00;1725582082;06/09/24;00:21:22;0.0;0.0;0.0;0.0;0.0;0.0
01:00:0A:00:00:00:00;1725582083;06/09/24;00:21:23;0.0;0.0;0.0;0.0;0.0;0.0
01:00:0A:00:00:00:00;1725582084;06/09/24;00:21:24;0.0;0.0;0.0;0.0;0.0;0.0
01:00:0A:00:00:00:00;1725582085;06/09/24;00:21:25;0.0;0.0;0.0;0.0;0.0;0.0
01:00:0A:00:00:00:00;1725582086;06/09/24;00:21:26;0.0;0.0;0.0;0.0;0.0;0.0
01:00:0A:00:00:00:00;1725582087;06/09/24;00:21:27;0.0;0.0;0.0;0.0;0.0;0.0
01:00:0A:00:00:00:00;1725582088;06/09/24;00:21:28;0.0;0.0;0.0;0.0;0.0;0.0
01:00:0A:00:00:00:00;1725582089;06/09/24;00:21:29;0.0;0.0;0.0;0.0;0.0;0.0
01:00:0A:00:00:00:00;1725582090;06/09/24;00:21:30;0.0;0.0;0.0;0.0;0.0;0.0
01:00:0A:00:00:00:00;1725582091;06/09/24;00:21:31;0.0;0.0;0.0;0.0;0.0;0.0
01:00:0A:00:00:00:00;1725582092;06/09/24;00:21:32;0.0;0.0;0.0;0.0;0.0;0.0
01:00:0A:00:00:00:00;1725582093;06/09/24;00:21:33;0.0;0.0;0.0;0.0;0.0;0.0
01:00:0A:00:00:00:00;1725582094;06/09/24;00:21:34;0.0;0.0;0.0;0.0;0.0;0.0
01:00:0A:00:00:00:00;1725582095;06/09/24;00:21:35;0.0;0.0;0.0;0.0;0.0;0.0
01:00:0A:00:00:00:00;1725582096;06/09/24;00:21:36;0.0;0.0;0.0;0.0;0.0;0.0
01:00:0A:00:00:00:00;1725582097;06/09/24;00:21:37;0.0;0.0;0.0;0.0;0.0;0.0
01:00:0A:00:00:00:00;1725582098;06/09/24;00:21:38;0.0;0.0;0.0;0.0;0.0;0.0
01:00:0A:00:00:00:00;1725582099;06/09/24;00:21:39;0.0;0.0;0.0;0.0;0.0;0.0
01:00:0A:00:00:00:00;1725582100;06/09/24;00:21:40;0.0;0.0;0.0;0.0;0.0;0.0
01:00:0A:00:00:00:00;1725582101;06/09/24;00:21:41;0.0;0.0;0.0;0.0;0.0;0.0
01:00:0A:00:00:00:00;1725582102;06/09/24;00:21:42;0.0;0.0;0.0;0.0;0.0;0.0
01:00:0A:00:00:00:00;1725582103;06/09/24;00:21:43;0.0;0.0;0.0;0.0;0.0;0.0
01:00:0A:00:00:00:00;1725582104;06/09/24;00:21:44;0.0;0.0;0.0;0.0;0.0;0.0
01:00:0A:00:00:00:00;1725582105;06/09/24;00:21:45;0.0;0.0;0.0;0.0;0.0;0.0
01:00:0A:00:00:00:00;1725582106;06/09/24;00:21:46;0.0;0.0;0.0;0.0;0.0;0.0
01:00:0A:00:00:00:00;1725582107;06/09/24;00:21:47;0.0;0.0;0.0;0.0;0.0;0.0
01:00:0A:00:00:00:00;1725582108;06/09/24;00:21:48;0.0;0.0;0.0;0.0;0.0;0.0
01:00:0A:00:00:00:00;1725582109;06/09/24;00:21:49;0.0;0.0;0.0;0.0;0.0;0.0
01:00:0A:00:00:00:00;1725582110;06/09/24;00:21:50;0.0;0.0;0.0;0.0;0.0;0.0
01:00:0A:00:00:00:00;1725582111;06/09/24;00:21:51;0.0;0.0;0.0;0.0;0.0;0.0
01:00:0A:00:00:00:00;1725582112;06/09/24;00:21:52;0.0;0.0;0.0;0.0;0.0;0.0
01:00:0A:00:00:00:00;1725582113;06/09/24;00:21:53;0.0;0.0;0.0;0.0;0.0;0.0
01:00:0A:00:00:00:00;1725582114;06/09/24;00:21:54;0.0;0.0;0.0;0.0;0.0;0.0
01:00:0A:00:00:00:00;1725582115;06/09/24;00:21:55;0.0;0.0;0.0;0.0;0.0;0.0
01:00:0A:00:00:00:00;1725582116;06/09/24;00:21:56;0.0;0.0;0.0;0.0;0.0;0.0
01:00:0A:00:00:00:00;1725582117;06/09/24;00:21:57;0.0;0.0;0.0;0.0;0.0;0.0
01:00:0A:00:00:00:00;1725582118;06/09/24;00:21:58;0.0;0.0;0.0;0.0;0.0;0.0
01:00:0A:00:00:00:00;1725582119;06/09/24;00:21:59;0.0;0.0;0.0;0.0;0.0;0.0
01:00:0A:00:00:00:00;1725582120;06/09/24;00:22:00;0.0;0.0;0.0;0.0;0.0;0.0
01:00:0A:00:00:00:00;1725582121;06/09/24;00:22:01;0.0;0.0;0.0;0.0;0.0;0.0
01:00:0A:00:00:00:00;1725582122;06/09/24;00:22:02;0.0;0.0;0.0;0.0;0.0;0.0
01:00:0A:00:00:00:00;1725582123;06/09/24;00:22:03;0.0;0.0;0.0;0.0;0.0;0.0
01:00:0A:00:00:00:00;1725582124;06/09/24;00:22:04;0.0;0.0;0.0;0.0;0.0;0.0
01:00:0A:00:00:00:00;1725582125;06/09/24;00:22:05;0.0;0.0;0.0;0.0;0.0;0.0
01:00:0A:00:00:00:00;1725582126;06/09/24;00:22:06;0.0;0.0;0.0;0.0;0.0;0.0
01:00:0A:00:00:00:00;1725582127;06/09/24;00:22:07;0.0;0.0;0.0;0.0;0.0;0.0
01:00:0A:00:00:00:00;1725582128;06/09/24;00:22:08;0.0;0.0;0.0;0.0;0.0;0.0
01:00:0A:00:00:00:00;1725582129;06/09/24;00:22:09;0.0;0.0;0.0;0.0;0.0;0.0
01:00:0A:00:00:00:00;1725582130;06/09/24;00:22:10;0.0;0.0;0.0;0.0;0.0;0.0
01:00:0A:00:00:00:00;1725582131;06/09/24;00:22:11;0.0;0.0;0.0;0.0;0.0;0.0
01:00:0A:00:00:00:00;1725582132;06/09/24;00:22:12;0.0;0.0;0.0;0.0;0.0;0.0
01:00:0A:00:00:00:00;1725582133;06/09/24;00:22:13;0.0;0.0;0.0;0.0;0.0;0.0
01:00:0A:00:00:00:00;1725582134;06/09/24;00:22:14;0.0;0.0;0.0;0.0;0.0;0.0
01:00:0A:00:00:00:00;1725582135;06/09/24;00:22:15;0.0;0.0;0.0;0.0;0.0;0.0
01:00:0A:00:00:00:00;1725582136;06/09/24;00:22:16;0.0;0.0;0.0;0.0;0.0;0.0
01:00:0A:00:00:00:00;1725582137;06/09/24;00:22:17;0.0;0.0;0.0;0.0;0.0;0.0
01:00:0A:00:00:00:00;1725582138;06/09/24;00:22:18;0.0;0.0;0.0;0.0;0.0;0.0
01:00:0A:00:00:00:00;1725582139;06/09/24;00:22:19;0.0;0.0;0.0;0.0;0.0;0.0
01:00:0A:00:00:00:00;1725582140;06/09/24;00:22:20;0.0;0.0;0.0;0.0;0.0;0.0
01:00:0A:00:00:00:00;1725582141;06/09/24;00:22:21;0.0;0.0;0.0;0.0;0.0;0.0
01:00:0A:00:00:00:00;1725582142;06/09/24;00:22:22;0.0;0.0;0.0;0.0;0.0;0.0
01:00:0A:00:00:00:00;1725582143;06/09/24;00:22:23;0.0;0.0;0.0;0.0;0.0;0.0
01:00:0A:00:00:00:00;1725582144;06/09/24;00:22:24;0.0;0.0;0.0;0.0;0.0;0.0
01:00:0A:00:00:00:00;1725582145;06/09/24;00:22:25;0.0;0.0;0.0;0.0;0.0;0.0
01:00:0A:00:00:00:00;1725582146;06/09/24;00:22:26;0.0;0.0;0.0;0.0;0.0;0.0
01:00:0A:00:00:00:00;1725582147;06/09/24;00:22:27;0.0;0.0;0.0;0.0;0.0;0.0
01:00:0A:00:00:00:00;1725582148;06/09/24;00:22:28;0.0;0.0;0.0;0.0;0.0;0.0
01:00:0A:00:00:00:00;1725582149;06/09/24;00:22:29;0.0;0.0;0.0;0.0;0.0;0.0
01:00:0A:00:00:00:00;1725582150;06/09/24;00:22:30;0.0;0.0;0.0;0.0;0.0;0.0
01:00:0A:00:00:00:00;1725582151;06/09/24;00:22:31;0.0;0.0;0.0;0.0;0.0;0.0
01:00:0A:00:00:00:00;1725582152;06/09/24;00:22:32;0.0;0.0;0.0;0.0;0.0;0.0
01:00:0A:00:00:00:00;1725582153;06/09/24;00:22:33;0.0;0.0;0.0;0.0;0.0;0.0
01:00:0A:00:00:00:00;1725582154;06/09/24;00:22:34;0.0;0.0;0.0;0.0;0.0;0.0
01:00:0A:00:00:00:00;1725582155;06/09/24;00:22:35;0.0;0.0;0.0;0.0;0.0;0.0
01:00:0A:00:00:00:00;1725582156;06/09/24;00:22:36;0.0;0.0;0.0;0.0;0.0;0.0
01:00:0A:00:00:00:00;1725582157;06/09/24;00:22:37;0.0;0.0;0.0;0.0;0.0;0.0
01:00:0A:00:00:00:00;1725582158;06/09/24;00:22:38;0.0;0.0;0.0;0.0;0.0;0.0
01:00:0A:00:00:00:00;1725582159;06/09/24;00:22:39;0.0;0.0;0.0;0.0;0.0;0.0
01:00:0A:00:00:00:00;1725582160;06/09/24;00:22:40;0.0;0.0;0.0;0.0;0.0;0.0
01:00:0A:00:00:00:00;1725582161;06/09/24;00:22:41;0.0;0.0;0.0;0.0;0.0;0.0
01:00:0A:00:00:00:00;1725582162;06/09/24;00:22:42;0.0;0.0;0.0;0.0;0.0;0.0
01:00:0A:00:00:00:00;1725582163;06/09/24;00:22:43;0.0;0.0;0.0;0.0;0.0;0.0
01:00:0A:00:00:00:00;1725582164;06/09/24;00:22:44;0.0;0.0;0.0;0.0;0.0;0.0
01:00:0A:00:00:00:00;1725582165;06/09/24;00:22:45;0.0;0.0;0.0;0.0;0.0;0.0
01:00:0A:00:00:00:00;1725582166;06/09/24;00:22:46;0.0;0.0;0.0;0.0;0.0;0.0
01:00:0A:00:00:00:00;1725582167;06/09/24;00:22:47;0.0;0.0;0.0;0.0;0.0;0.0
01:00:0A:00:00:00:00;1725582168;06/09/24;00:22:48;0.0;0.0;0.0;0.0;0.0;0.0
01:00:0A:00:00:00:00;1725582169;06/09/24;00:22:49;0.0;0.0;0.0;0.0;0.0;0.0
01:00:0A:00:00:00:00;1725582170;06/09/24;00:22:50;0.0;0.0;0.0;0.0;0.0;0.0
01:00:0A:00:00:00:00;1725582171;06/09/24;00:22:51;0.0;0.0;0.0;0.0;0.0;0.0
01:00:0A:00:00:00:00;1725582172;06/09/24;00:22:52;0.0;0.0;0.0;0.0;0.0;0.0
01:00:0A:00:00:00:00;1725582173;06/09/24;00:22:53;0.0;0.0;0.0;0.0;0.0;0.0
01:00:0A:00:00:00:00;1725582174;06/09/24;00:22:54;0.0;0.0;0.0;0.0;0.0;0.0
01:00:0A:00:00:00:00;1725582175;06/09/24;00:22:55;0.0;0.0;0.0;0.0;0.0;0.0
01:00:0A:00:00:00:00;1725582176;06/09/24;00:22:56;0.0;0.0;0.0;0.0;0.0;0.0
01:00:0A:00:00:00:00;1725582177;06/09/24;00:22:57;0.0;0.0;0.0;0.0;0.0;0.0
01:00:0A:00:00:00:00;1725582178;06/09/24;00:22:58;0.0;0.0;0.0;0.0;0.0;0.0
01:00:0A:00:00:00:00;1725582179;06/09/24;00:22:59;0.0;0.0;0.0;0.0;0.0;0.0
01:00:0A:00:00:00:00;1725582180;06/09/24;00:23:00;0.0;0.0;0.0;0.0;0.0;0.0
01:00:0A:00:00:00:00;1725582181;06/09/24;00:23:01;0.0;0.0;0.0;0.0;0.0;0.0
01:00:0A:00:00:00:00;1725582182;06/09/24;00:23:02;0.0;0.0;0.0;0.0;0.0;0.0
01:00:0A:00:00:00:00;1725582183;06/09/24;00:23:03;0.0;0.0;0.0;0.0;0.0;0.0
01:00:0A:00:00:00:00;1725582184;06/09/24;00:23:04;0.0;0.0;0.0;0.0;0.0;0.0
01:00:0A:00:00:00:00;1725582185;06/09/24;00:23:05;0.0;0.0;0.0;0.0;0.0;0.0
01:00:0A:00:00:00:00;1725582186;06/09/24;00:23:06;0.0;0.0;0.0;0.0;0.0;0.0
01:00:0A:00:00:00:00;1725582187;06/09/24;00:23:07;0.0;0.0;0.0;0.0;0.0;0.0
01:00:0A:00:00:00:00;1725582188;06/09/24;00:23:08;0.0;0.0;0.0;0.0;0.0;0.0
01:00:0A:00:00:00:00;1725582189;06/09/24;00:23:09;0.0;0.0;0.0;0.0;0.0;0.0
01:00:0A:00:00:00:00;1725582190;06/09/24;00:23:10;0.0;0.0;0.0;0.0;0.0;0.0
01:00:0A:00:00:00:00;1725582191;06/09/24;00:23:11;0.0;0.0;0.0;0.0;0.0;0.0
01:00:0A:00:00:00:00;1725582192;06/09/24;00:23:12;0.0;0.0;0.0;0.0;0.0;0.0
01:00:0A:00:00:00:00;1725582193;06/09/24;00:23:13;0.0;0.0;0.0;0.0;0.0;0.0
01:00:0A:00:00:00:00;1725582194;06/09/24;00:23:14;0.0;0.0;0.0;0.0;0.0;0.0
01:00:0A:00:00:00:00;1725582195;06/09/24;00:23:15;0.0;0.0;0.0;0.0;0.0;0.0
01:00:0A:00:00:00:00;1725582196;06/09/24;00:23:16;0.0;0.0;0.0;0.0;0.0;0.0
01:00:0A:00:00:00:00;1725582197;06/09/24;00:23:17;0.0;0.0;0.0;0.0;0.0;0.0
01:00:0A:00:00:00:00;1725582198;06/09/24;00:23:18;0.0;0.0;0.0;0.0;0.0;0.0
01:00:0A:00:00:00:00;1725582199;06/09/24;00:23:19;0.0;0.0;0.0;0.0;0.0;0.0
01:00:0A:00:00:00:00;1725582200;06/09/24;00:23:20;0.0;0.0;0.0;0.0;0.0;0.0
01:00:0A:00:00:00:00;1725582201;06/09/24;00:23:21;0.0;0.0;0.0;0.0;0.0;0.0
01:00:0A:00:00:00:00;1725582202;06/09/24;00:23:22;0.0;0.0;0.0;0.0;0.0;0.0
01:00:0A:00:00:00:00;1725582203;06/09/24;00:23:23;0.0;0.0;0.0;0.0;0.0;0.0
01:00:0A:00:00:00:00;1725582204;06/09/24;00:23:24;0.0;0.0;0.0;0.0;0.0;0.0
01:00:0A:00:00:00:00;1725582205;06/09/24;00:23:25;0.0;0.0;0.0;0.0;0.0;0.0
01:00:0A:00:00:00:00;1725582206;06/09/24;00:23:26;0.0;0.0;0.0;0.0;0.0;0.0
01:00:0A:00:00:00:00;1725582207;06/09/24;00:23:27;0.0;0.0;0.0;0.0;0.0;0.0
01:00:0A:00:00:00:00;1725582208;06/09/24;00:23:28;0.0;0.0;0.0;0.0;0.0;0.0
01:00:0A:00:00:00:00;1725582209;06/09/24;00:23:29;0.0;0.0;0.0;0.0;0.0;0.0
01:00:0A:00:00:00:00;1725582210;06/09/24;00:23:30;0.0;0.0;0.0;0.0;0.0;0.0
01:00:0A:00:00:00:00;1725582211;06/09/24;00:23:31;0.0;0.0;0.0;0.0;0.0;0.0
01:00:0A:00:00:00:00;1725582212;06/09/24;00:23:32;0.0;0.0;0.0;0.0;0.0;0.0
01:00:0A:00:00:00:00;1725582213;06/09/24;00:23:33;0.0;0.0;0.0;0.0;0.0;0.0
01:00:0A:00:00:00:00;1725582214;06/09/24;00:23:34;0.0;0.0;0.0;0.0;0.0;0.0
01:00:0A:00:00:00:00;1725582215;06/09/24;00:23:35;0.0;0.0;0.0;0.0;0.0;0.0
01:00:0A:00:00:00:00;1725582216;06/09/24;00:23:36;0.0;0.0;0.0;0.0;0.0;0.0
01:00:0A:00:00:00:00;1725582217;06/09/24;00:23:37;0.0;0.0;0.0;0.0;0.0;0.0
01:00:0A:00:00:00:00;1725582218;06/09/24;00:23:38;0.0;0.0;0.0;0.0;0.0;0.0
01:00:0A:00:00:00:00;1725582219;06/09/24;00:23:39;0.0;0.0;0.0;0.0;0.0;0.0
01:00:0A:00:00:00:00;1725582220;06/09/24;00:23:40;0.0;0.0;0.0;0.0;0.0;0.0
01:00:0A:00:00:00:00;1725582221;06/09/24;00:23:41;0.0;0.0;0.0;0.0;0.0;0.0
01:00:0A:00:00:00:00;1725582222;06/09/24;00:23:42;0.0;0.0;0.0;0.0;0.0;0.0
01:00:0A:00:00:00:00;1725582223;06/09/24;00:23:43;0.0;0.0;0.0;0.0;0.0;0.0
01:00:0A:00:00:00:00;1725582224;06/09/24;00:23:44;0.0;0.0;0.0;0.0;0.0;0.0
01:00:0A:00:00:00:00;1725582225;06/09/24;00:23:45;0.0;0.0;0.0;0.0;0.0;0.0
01:00:0A:00:00:00:00;1725582226;06/09/24;00:23:46;0.0;0.0;0.0;0.0;0.0;0.0
01:00:0A:00:00:00:00;1725582227;06/09/24;00:23:47;0.0;0.0;0.0;0.0;0.0;0.0
01:00:0A:00:00:00:00;1725582228;06/09/24;00:23:48;0.0;0.0;0.0;0.0;0.0;0.0
01:00:0A:00:00:00:00;1725582229;06/09/24;00:23:49;0.0;0.0;0.0;0.0;0.0;0.0
01:00:0A:00:00:00:00;1725582230;06/09/24;00:23:50;0.0;0.0;0.0;0.0;0.0;0.0
01:00:0A:00:00:00:00;1725582231;06/09/24;00:23:51;0.0;0.0;0.0;0.0;0.0;0.0
01:00:0A:00:00:00:00;1725582232;06/09/24;00:23:52;0.0;0.0;0.0;0.0;0.0;0.0
01:00:0A:00:00:00:00;1725582233;06/09/24;00:23:53;0.0;0.0;0.0;0.0;0.0;0.0
01:00:0A:00:00:00:00;1725582234;06/09/24;00:23:54;0.0;0.0;0.0;0.0;0.0;0.0
01:00:0A:00:00:00:00;1725582235;06/09/24;00:23:55;0.0;0.0;0.0;0.0;0.0;0.0
01:00:0A:00:00:00:00;1725582236;06/09/24;00:23:56;0.0;0.0;0.0;0.0;0.0;0.0
01:00:0A:00:00:00:00;1725582237;06/09/24;00:23:57;0.0;0.0;0.0;0.0;0.0;0.0
01:00:0A:00:00:00:00;1725582238;06/09/24;00:23:58;0.0;0.0;0.0;0.0;0.0;0.0
01:00:0A:00:00:00:00;1725582239;06/09/24;00:23:59;0.0;0.0;0.0;0.0;0.0;0.0
01:00:0A:00:00:00:00;1725582240;06/09/24;00:24:00;0.0;0.0;0.0;0.0;0.0;0.0
01:00:0A:00:00:00:00;1725582241;06/09/24;00:24:01;0.0;0.0;0.0;0.0;0.0;0.0
01:00:0A:00:00:00:00;1725582242;06/09/24;00:24:02;0.0;0.0;0.0;0.0;0.0;0.0
01:00:0A:00:00:00:00;1725582243;06/09/24;00:24:03;0.0;0.0;0.0;0.0;0.0;0.0
01:00:0A:00:00:00:00;1725582244;06/09/24;00:24:04;0.0;0.0;0.0;0.0;0.0;0.0
01:00:0A:00:00:00:00;1725582245;06/09/24;00:24:05;0.0;0.0;0.0;0.0;0.0;0.0
01:00:0A:00:00:00:00;1725582246;06/09/24;00:24:06;0.0;0.0;0.0;0.0;0.0;0.0
01:00:0A:00:00:00:00;1725582247;06/09/24;00:24:07;0.0;0.0;0.0;0.0;0.0;0.0
01:00:0A:00:00:00:00;1725582248;06/09/24;00:24:08;0.0;0.0;0.0;0.0;0.0;0.0
01:00:0A:00:00:00:00;1725582249;06/09/24;00:24:09;0.0;0.0;0.0;0.0;0.0;0.0
01:00:0A:00:00:00:00;1725582250;06/09/24;00:24:10;0.0;0.0;0.0;0.0;0.0;0.0
01:00:0A:00:00:00:00;1725582251;06/09/24;00:24:11;0.0;0.0;0.0;0.0;0.0;0.0
01:00:0A:00:00:00:00;1725582252;06/09/24;00:24:12;0.0;0.0;0.0;0.0;0.0;0.0
01:00:0A:00:00:00:00;1725582253;06/09/24;00:24:13;0.0;0.0;0.0;0.0;0.0;0.0
01:00:0A:00:00:00:00;1725582254;06/09/24;00:24:14;0.0;0.0;0.0;0.0;0.0;0.0
01:00:0A:00:00:00:00;1725582255;06/09/24;00:24:15;0.0;0.0;0.0;0.0;0.0;0.0
01:00:0A:00:00:00:00;1725582256;06/09/24;00:24:16;0.0;0.0;0.0;0.0;0.0;0.0
01:00:0A:00:00:00:00;1725582257;06/09/24;00:24:17;0.0;0.0;0.0;0.0;0.0;0.0
01:00:0A:00:00:00:00;1725582258;06/09/24;00:24:18;0.0;0.0;0.0;0.0;0.0;0.0
01:00:0A:00:00:00:00;1725582259;06/09/24;00:24:19;0.0;0.0;0.0;0.0;0.0;0.0
01:00:0A:00:00:00:00;1725582260;06/09/24;00:24:20;0.0;0.0;0.0;0.0;0.0;0.0
01:00:0A:00:00:00:00;1725582261;06/09/24;00:24:21;0.0;0.0;0.0;0.0;0.0;0.0
01:00:0A:00:00:00:00;1725582262;06/09/24;00:24:22;0.0;0.0;0.0;0.0;0.0;0.0
01:00:0A:00:00:00:00;1725582263;06/09/24;00:24:23;0.0;0.0;0.0;0.0;0.0;0.0
01:00:0A:00:00:00:00;1725582264;06/09/24;00:24:24;0.0;0.0;0.0;0.0;0.0;0.0
01:00:0A:00:00:00:00;1725582265;06/09/24;00:24:25;0.0;0.0;0.0;0.0;0.0;0.0
01:00:0A:00:00:00:00;1725582266;06/09/24;00:24:26;0.0;0.0;0.0;0.0;0.0;0.0
01:00:0A:00:00:00:00;1725582267;06/09/24;00:24:27;0.0;0.0;0.0;0.0;0.0;0.0
01:00:0A:00:00:00:00;1725582268;06/09/24;00:24:28;0.0;0.0;0.0;0.0;0.0;0.0
01:00:0A:00:00:00:00;1725582269;06/09/24;00:24:29;0.0;0.0;0.0;0.0;0.0;0.0
01:00:0A:00:00:00:00;1725582270;06/09/24;00:24:30;0.0;0.0;0.0;0.0;0.0;0.0
01:00:0A:00:00:00:00;1725582271;06/09/24;00:24:31;0.0;0.0;0.0;0.0;0.0;0.0
01:00:0A:00:00:00:00;1725582272;06/09/24;00:24:32;0.0;0.0;0.0;0.0;0.0;0.0
01:00:0A:00:00:00:00;1725582273;06/09/24;00:24:33;0.0;0.0;0.0;0.0;0.0;0.0
01:00:0A:00:00:00:00;1725582274;06/09/24;00:24:34;0.0;0.0;0.0;0.0;0.0;0.0
01:00:0A:00:00:00:00;1725582275;06/09/24;00:24:35;0.0;0.0;0.0;0.0;0.0;0.0
01:00:0A:00:00:00:00;1725582276;06/09/24;00:24:36;0.0;0.0;0.0;0.0;0.0;0.0
01:00:0A:00:00:00:00;1725582277;06/09/24;00:24:37;0.0;0.0;0.0;0.0;0.0;0.0
01:00:0A:00:00:00:00;1725582278;06/09/24;00:24:38;0.0;0.0;0.0;0.0;0.0;0.0
01:00:0A:00:00:00:00;1725582279;06/09/24;00:24:39;0.0;0.0;0.0;0.0;0.0;0.0
01:00:0A:00:00:00:00;1725582280;06/09/24;00:24:40;0.0;0.0;0.0;0.0;0.0;0.0
01:00:0A:00:00:00:00;1725582281;06/09/24;00:24:41;0.0;0.0;0.0;0.0;0.0;0.0
01:00:0A:00:00:00:00;1725582282;06/09/24;00:24:42;0.0;0.0;0.0;0.0;0.0;0.0
01:00:0A:00:00:00:00;1725582283;06/09/24;00:24:43;0.0;0.0;0.0;0.0;0.0;0.0
01:00:0A:00:00:00:00;1725582284;06/09/24;00:24:44;0.0;0.0;0.0;0.0;0.0;0.0
01:00:0A:00:00:00:00;1725582285;06/09/24;00:24:45;0.0;0.0;0.0;0.0;0.0;0.0
01:00:0A:00:00:00:00;1725582286;06/09/24;00:24:46;0.0;0.0;0.0;0.0;0.0;0.0
01:00:0A:00:00:00:00;1725582287;06/09/24;00:24:47;0.0;0.0;0.0;0.0;0.0;0.0
01:00:0A:00:00:00:00;1725582288;06/09/24;00:24:48;0.0;0.0;0.0;0.0;0.0;0.0
01:00:0A:00:00:00:00;1725582289;06/09/24;00:24:49;0.0;0.0;0.0;0.0;0.0;0.0
01:00:0A:00:00:00:00;1725582290;06/09/24;00:24:50;0.0;0.0;0.0;0.0;0.0;0.0
01:00:0A:00:00:00:00;1725582291;06/09/24;00:24:51;0.0;0.0;0.0;0.0;0.0;0.0
01:00:0A:00:00:00:00;1725582292;06/09/24;00:24:52;0.0;0.0;0.0;0.0;0.0;0.0
01:00:0A:00:00:00:00;1725582293;06/09/24;00:24:53;0.0;0.0;0.0;0.0;0.0;0.0
01:00:0A:00:00:00:00;1725582294;06/09/24;00:24:54;0.0;0.0;0.0;0.0;0.0;0.0
01:00:0A:00:00:00:00;1725582295;06/09/24;00:24:55;0.0;0.0;0.0;0.0;0.0;0.0
01:00:0A:00:00:00:00;1725582296;06/09/24;00:24:56;0.0;0.0;0.0;0.0;0.0;0.0
01:00:0A:00:00:00:00;1725582297;06/09/24;00:24:57;0.0;0.0;0.0;0.0;0.0;0.0
01:00:0A:00:00:00:00;1725582298;06/09/24;00:24:58;0.0;0.0;0.0;0.0;0.0;0.0
01:00:0A:00:00:00:00;1725582299;06/09/24;00:24:59;0.0;0.0;0.0;0.0;0.0;0.0
01:00:0A:00:00:00:00;1725582300;06/09/24;00:25:00;0.0;0.0;0.0;0.0;0.0;0.0
01:00:0A:00:00:00:00;1725582301;06/09/24;00:25:01;0.0;0.0;0.0;0.0;0.0;0.0
01:00:0A:00:00:00:00;1725582302;06/09/24;00:25:02;0.0;0.0;0.0;0.0;0.0;0.0
01:00:0A:00:00:00:00;1725582303;06/09/24;00:25:03;0.0;0.0;0.0;0.0;0.0;0.0
01:00:0A:00:00:00:00;1725582304;06/09/24;00:25:04;0.0;0.0;0.0;0.0;0.0;0.0
01:00:0A:00:00:00:00;1725582305;06/09/24;00:25:05;0.0;0.0;0.0;0.0;0.0;0.0
01:00:0A:00:00:00:00;1725582306;06/09/24;00:25:06;0.0;0.0;0.0;0.0;0.0;0.0
01:00:0A:00:00:00:00;1725582307;06/09/24;00:25:07;0.0;0.0;0.0;0.0;0.0;0.0
01:00:0A:00:00:00:00;1725582308;06/09/24;00:25:08;0.0;0.0;0.0;0.0;0.0;0.0
01:00:0A:00:00:00:00;1725582309;06/09/24;00:25:09;0.0;0.0;0.0;0.0;0.0;0.0
01:00:0A:00:00:00:00;1725582310;06/09/24;00:25:10;0.0;0.0;0.0;0.0;0.0;0.0
01:00:0A:00:00:00:00;1725582311;06/09/24;00:25:11;0.0;0.0;0.0;0.0;0.0;0.0
01:00:0A:00:00:00:00;1725582312;06/09/24;00:25:12;0.0;0.0;0.0;0.0;0.0;0.0
01:00:0A:00:00:00:00;1725582313;06/09/24;00:25:13;0.0;0.0;0.0;0.0;0.0;0.0
01:00:0A:00:00:00:00;1725582314;06/09/24;00:25:14;0.0;0.0;0.0;0.0;0.0;0.0
01:00:0A:00:00:00:00;1725582315;06/09/24;00:25:15;0.0;0.0;0.0;0.0;0.0;0.0
01:00:0A:00:00:00:00;1725582316;06/09/24;00:25:16;0.0;0.0;0.0;0.0;0.0;0.0
01:00:0A:00:00:00:00;1725582317;06/09/24;00:25:17;0.0;0.0;0.0;0.0;0.0;0.0
01:00:0A:00:00:00:00;1725582318;06/09/24;00:25:18;0.0;0.0;0.0;0.0;0.0;0.0
01:00:0A:00:00:00:00;1725582319;06/09/24;00:25:19;0.0;0.0;0.0;0.0;0.0;0.0
01:00:0A:00:00:00:00;1725582320;06/09/24;00:25:20;0.0;0.0;0.0;0.0;0.0;0.0
01:00:0A:00:00:00:00;1725582321;06/09/24;00:25:21;0.0;0.0;0.0;0.0;0.0;0.0
01:00:0A:00:00:00:00;1725582322;06/09/24;00:25:22;0.0;0.0;0.0;0.0;0.0;0.0
01:00:0A:00:00:00:00;1725582323;06/09/24;00:25:23;0.0;0.0;0.0;0.0;0.0;0.0
01:00:0A:00:00:00:00;1725582324;06/09/24;00:25:24;0.0;0.0;0.0;0.0;0.0;0.0
01:00:0A:00:00:00:00;1725582325;06/09/24;00:25:25;0.0;0.0;0.0;0.0;0.0;0.0
01:00:0A:00:00:00:00;1725582326;06/09/24;00:25:26;0.0;0.0;0.0;0.0;0.0;0.0
01:00:0A:00:00:00:00;1725582327;06/09/24;00:25:27;0.0;0.0;0.0;0.0;0.0;0.0
01:00:0A:00:00:00:00;1725582328;06/09/24;00:25:28;0.0;0.0;0.0;0.0;0.0;0.0
01:00:0A:00:00:00:00;1725582329;06/09/24;00:25:29;0.0;0.0;0.0;0.0;0.0;0.0
01:00:0A:00:00:00:00;1725582330;06/09/24;00:25:30;0.0;0.0;0.0;0.0;0.0;0.0
01:00:0A:00:00:00:00;1725582331;06/09/24;00:25:31;0.0;0.0;0.0;0.0;0.0;0.0
01:00:0A:00:00:00:00;1725582332;06/09/24;00:25:32;0.0;0.0;0.0;0.0;0.0;0.0
01:00:0A:00:00:00:00;1725582333;06/09/24;00:25:33;0.0;0.0;0.0;0.0;0.0;0.0
01:00:0A:00:00:00:00;1725582334;06/09/24;00:25:34;0.0;0.0;0.0;0.0;0.0;0.0
01:00:0A:00:00:00:00;1725582335;06/09/24;00:25:35;0.0;0.0;0.0;0.0;0.0;0.0
01:00:0A:00:00:00:00;1725582336;06/09/24;00:25:36;0.0;0.0;0.0;0.0;0.0;0.0
01:00:0A:00:00:00:00;1725582337;06/09/24;00:25:37;0.0;0.0;0.0;0.0;0.0;0.0
01:00:0A:00:00:00:00;1725582338;06/09/24;00:25:38;0.0;0.0;0.0;0.0;0.0;0.0
01:00:0A:00:00:00:00;1725582339;06/09/24;00:25:39;0.0;0.0;0.0;0.0;0.0;0.0
01:00:0A:00:00:00:00;1725582340;06/09/24;00:25:40;0.0;0.0;0.0;0.0;0.0;0.0
01:00:0A:00:00:00:00;1725582341;06/09/24;00:25:41;0.0;0.0;0.0;0.0;0.0;0.0
01:00:0A:00:00:00:00;1725582342;06/09/24;00:25:42;0.0;0.0;0.0;0.0;0.0;0.0
01:00:0A:00:00:00:00;1725582343;06/09/24;00:25:43;0.0;0.0;0.0;0.0;0.0;0.0
01:00:0A:00:00:00:00;1725582344;06/09/24;00:25:44;0.0;0.0;0.0;0.0;0.0;0.0
01:00:0A:00:00:00:00;1725582345;06/09/24;00:25:45;0.0;0.0;0.0;0.0;0.0;0.0
01:00:0A:00:00:00:00;1725582346;06/09/24;00:25:46;0.0;0.0;0.0;0.0;0.0;0.0
01:00:0A:00:00:00:00;1725582347;06/09/24;00:25:47;0.0;0.0;0.0;0.0;0.0;0.0
01:00:0A:00:00:00:00;1725582348;06/09/24;00:25:48;0.0;0.0;0.0;0.0;0.0;0.0
01:00:0A:00:00:00:00;1725582349;06/09/24;00:25:49;0.0;0.0;0.0;0.0;0.0;0.0
01:00:0A:00:00:00:00;1725582350;06/09/24;00:25:50;0.0;0.0;0.0;0.0;0.0;0.0
01:00:0A:00:00:00:00;1725582351;06/09/24;00:25:51;0.0;0.0;0.0;0.0;0.0;0.0
01:00:0A:00:00:00:00;1725582352;06/09/24;00:25:52;0.0;0.0;0.0;0.0;0.0;0.0
01:00:0A:00:00:00:00;1725582353;06/09/24;00:25:53;0.0;0.0;0.0;0.0;0.0;0.0
01:00:0A:00:00:00:00;1725582354;06/09/24;00:25:54;0.0;0.0;0.0;0.0;0.0;0.0
01:00:0A:00:00:00:00;1725582355;06/09/24;00:25:55;0.0;0.0;0.0;0.0;0.0;0.0
01:00:0A:00:00:00:00;1725582356;06/09/24;00:25:56;0.0;0.0;0.0;0.0;0.0;0.0
01:00:0A:00:00:00:00;1725582357;06/09/24;00:25:57;0.0;0.0;0.0;0.0;0.0;0.0
01:00:0A:00:00:00:00;1725582358;06/09/24;00:25:58;0.0;0.0;0.0;0.0;0.0;0.0
01:00:0A:00:00:00:00;1725582359;06/09/24;00:25:59;0.0;0.0;0.0;0.0;0.0;0.0
01:00:0A:00:00:00:00;1725582360;06/09/24;00:26:00;0.0;0.0;0.0;0.0;0.0;0.0
01:00:0A:00:00:00:00;1725582361;06/09/24;00:26:01;0.0;0.0;0.0;0.0;0.0;0.0
01:00:0A:00:00:00:00;1725582362;06/09/24;00:26:02;0.0;0.0;0.0;0.0;0.0;0.0
01:00:0A:00:00:00:00;1725582363;06/09/24;00:26:03;0.0;0.0;0.0;0.0;0.0;0.0
01:00:0A:00:00:00:00;1725582364;06/09/24;00:26:04;0.0;0.0;0.0;0.0;0.0;0.0
01:00:0A:00:00:00:00;1725582365;06/09/24;00:26:05;0.0;0.0;0.0;0.0;0.0;0.0
01:00:0A:00:00:00:00;1725582366;06/09/24;00:26:06;0.0;0.0;0.0;0.0;0.0;0.0
01:00:0A:00:00:00:00;1725582367;06/09/24;00:26:07;0.0;0.0;0.0;0.0;0.0;0.0
01:00:0A:00:00:00:00;1725582368;06/09/24;00:26:08;0.0;0.0;0.0;0.0;0.0;0.0
01:00:0A:00:00:00:00;1725582369;06/09/24;00:26:09;0.0;0.0;0.0;0.0;0.0;0.0
01:00:0A:00:00:00:00;1725582370;06/09/24;00:26:10;0.0;0.0;0.0;0.0;0.0;0.0
01:00:0A:00:00:00:00;1725582371;06/09/24;00:26:11;0.0;0.0;0.0;0.0;0.0;0.0
01:00:0A:00:00:00:00;1725582372;06/09/24;00:26:12;0.0;0.0;0.0;0.0;0.0;0.0
01:00:0A:00:00:00:00;1725582373;06/09/24;00:26:13;0.0;0.0;0.0;0.0;0.0;0.0
01:00:0A:00:00:00:00;1725582374;06/09/24;00:26:14;0.0;0.0;0.0;0.0;0.0;0.0
01:00:0A:00:00:00:00;1725582375;06/09/24;00:26:15;0.0;0.0;0.0;0.0;0.0;0.0
01:00:0A:00:00:00:00;1725582376;06/09/24;00:26:16;0.0;0.0;0.0;0.0;0.0;0.0
01:00:0A:00:00:00:00;1725582377;06/09/24;00:26:17;0.0;0.0;0.0;0.0;0.0;0.0
01:00:0A:00:00:00:00;1725582378;06/09/24;00:26:18;0.0;0.0;0.0;0.0;0.0;0.0
01:00:0A:00:00:00:00;1725582379;06/09/24;00:26:19;0.0;0.0;0.0;0.0;0.0;0.0
01:00:0A:00:00:00:00;1725582380;06/09/24;00:26:20;0.0;0.0;0.0;0.0;0.0;0.0
01:00:0A:00:00:00:00;1725582381;06/09/24;00:26:21;0.0;0.0;0.0;0.0;0.0;0.0
01:00:0A:00:00:00:00;1725582382;06/09/24;00:26:22;0.0;0.0;0.0;0.0;0.0;0.0
01:00:0A:00:00:00:00;1725582383;06/09/24;00:26:23;0.0;0.0;0.0;0.0;0.0;0.0
01:00:0A:00:00:00:00;1725582384;06/09/24;00:26:24;0.0;0.0;0.0;0.0;0.0;0.0
01:00:0A:00:00:00:00;1725582385;06/09/24;00:26:25;0.0;0.0;0.0;0.0;0.0;0.0
01:00:0A:00:00:00:00;1725582386;06/09/24;00:26:26;0.0;0.0;0.0;0.0;0.0;0.0
01:00:0A:00:00:00:00;1725582387;06/09/24;00:26:27;0.0;0.0;0.0;0.0;0.0;0.0
01:00:0A:00:00:00:00;1725582388;06/09/24;00:26:28;0.0;0.0;0.0;0.0;0.0;0.0
01:00:0A:00:00:00:00;1725582389;06/09/24;00:26:29;0.0;0.0;0.0;0.0;0.0;0.0
01:00:0A:00:00:00:00;1725582390;06/09/24;00:26:30;0.0;0.0;0.0;0.0;0.0;0.0
01:00:0A:00:00:00:00;1725582391;06/09/24;00:26:31;0.0;0.0;0.0;0.0;0.0;0.0
01:00:0A:00:00:00:00;1725582392;06/09/24;00:26:32;0.0;0.0;0.0;0.0;0.0;0.0
01:00:0A:00:00:00:00;1725582393;06/09/24;00:26:33;0.0;0.0;0.0;0.0;0.0;0.0
01:00:0A:00:00:00:00;1725582394;06/09/24;00:26:34;0.0;0.0;0.0;0.0;0.0;0.0
01:00:0A:00:00:00:00;1725582395;06/09/24;00:26:35;0.0;0.0;0.0;0.0;0.0;0.0
01:00:0A:00:00:00:00;1725582396;06/09/24;00:26:36;0.0;0.0;0.0;0.0;0.0;0.0
01:00:0A:00:00:00:00;1725582397;06/09/24;00:26:37;0.0;0.0;0.0;0.0;0.0;0.0
01:00:0A:00:00:00:00;1725582398;06/09/24;00:26:38;0.0;0.0;0.0;0.0;0.0;0.0
01:00:0A:00:00:00:00;1725582399;06/09/24;00:26:39;0.0;0.0;0.0;0.0;0.0;0.0
01:00:0A:00:00:00:00;1725582400;06/09/24;00:26:40;0.0;0.0;0.0;0.0;0.0;0.0
01:00:0A:00:00:00:00;1725582401;06/09/24;00:26:41;0.0;0.0;0.0;0.0;0.0;0.0
01:00:0A:00:00:00:00;1725582402;06/09/24;00:26:42;0.0;0.0;0.0;0.0;0.0;0.0
01:00:0A:00:00:00:00;1725582403;06/09/24;00:26:43;0.0;0.0;0.0;0.0;0.0;0.0
01:00:0A:00:00:00:00;1725582404;06/09/24;00:26:44;0.0;0.0;0.0;0.0;0.0;0.0
01:00:0A:00:00:00:00;1725582405;06/09/24;00:26:45;0.0;0.0;0.0;0.0;0.0;0.0
01:00:0A:00:00:00:00;1725582406;06/09/24;00:26:46;0.0;0.0;0.0;0.0;0.0;0.0
01:00:0A:00:00:00:00;1725582407;06/09/24;00:26:47;0.0;0.0;0.0;0.0;0.0;0.0
01:00:0A:00:00:00:00;1725582408;06/09/24;00:26:48;0.0;0.0;0.0;0.0;0.0;0.0
01:00:0A:00:00:00:00;1725582409;06/09/24;00:26:49;0.0;0.0;0.0;0.0;0.0;0.0
01:00:0A:00:00:00:00;1725582410;06/09/24;00:26:50;0.0;0.0;0.0;0.0;0.0;0.0
01:00:0A:00:00:00:00;1725582411;06/09/24;00:26:51;0.0;0.0;0.0;0.0;0.0;0.0
01:00:0A:00:00:00:00;1725582412;06/09/24;00:26:52;0.0;0.0;0.0;0.0;0.0;0.0
01:00:0A:00:00:00:00;1725582413;06/09/24;00:26:53;0.0;0.0;0.0;0.0;0.0;0.0
01:00:0A:00:00:00:00;1725582414;06/09/24;00:26:54;0.0;0.0;0.0;0.0;0.0;0.0
01:00:0A:00:00:00:00;1725582415;06/09/24;00:26:55;0.0;0.0;0.0;0.0;0.0;0.0
01:00:0A:00:00:00:00;1725582416;06/09/24;00:26:56;0.0;0.0;0.0;0.0;0.0;0.0
01:00:0A:00:00:00:00;1725582417;06/09/24;00:26:57;0.0;0.0;0.0;0.0;0.0;0.0
01:00:0A:00:00:00:00;1725582418;06/09/24;00:26:58;0.0;0.0;0.0;0.0;0.0;0.0
01:00:0A:00:00:00:00;1725582419;06/09/24;00:26:59;0.0;0.0;0.0;0.0;0.0;0.0
01:00:0A:00:00:00:00;1725582420;06/09/24;00:27:00;0.0;0.0;0.0;0.0;0.0;0.0
01:00:0A:00:00:00:00;1725582421;06/09/24;00:27:01;0.0;0.0;0.0;0.0;0.0;0.0
01:00:0A:00:00:00:00;1725582422;06/09/24;00:27:02;0.0;0.0;0.0;0.0;0.0;0.0
01:00:0A:00:00:00:00;1725582423;06/09/24;00:27:03;0.0;0.0;0.0;0.0;0.0;0.0
01:00:0A:00:00:00:00;1725582424;06/09/24;00:27:04;0.0;0.0;0.0;0.0;0.0;0.0
01:00:0A:00:00:00:00;1725582425;06/09/24;00:27:05;0.0;0.0;0.0;0.0;0.0;0.0
01:00:0A:00:00:00:00;1725582426;06/09/24;00:27:06;0.0;0.0;0.0;0.0;0.0;0.0
