Source;Epoch timestamp (UTC);Date;Time (UTC);Accel X (G);Accel Y (G);Accel Z (G);Gyro X (rad/s);Gyro Y (rad/s);Gyro Z (rad/s)
01:00:0A:00:00:00:00;1724112002;20/08/24;00:00:02;1.014;-0.025;0.076;0.0073303827084600925;-0.015882495790719986;0.0
01:00:0A:00:00:00:00;1724112003;20/08/24;00:00:03;1.015;-0.027;0.08;0.0073303827084600925;-0.010995574295520782;0.0024434609804302454
01:00:0A:00:00:00:00;1724112004;20/08/24;00:00:04;1.016;-0.026;0.077;0.006108652334660292;-0.004886921960860491;0.004886921960860491
01:00:0A:00:00:00:00;1724112005;20/08/24;00:00:05;1.015;-0.025;0.076;0.006108652334660292;-0.006108652334660292;0.006108652334660292
01:00:0A:00:00:00:00;1724112006;20/08/24;00:00:06;1.016;-0.027;0.075;0.0073303827084600925;-0.009773843921720982;0.004886921960860491
01:00:0A:00:00:00:00;1724112007;20/08/24;00:00:07;1.016;-0.024;0.074;0.006108652334660292;-0.013439035043120384;0.0036651913542300463
01:00:0A:00:00:00:00;1724112008;20/08/24;00:00:08;1.013;-0.026;0.076;0.006108652334660292;-0.014660765416920185;0.0036651913542300463
01:00:0A:00:00:00:00;1724112009;20/08/24;00:00:09;1.013;-0.025;0.077;0.006108652334660292;-0.012217304669320583;0.0036651913542300463
01:00:0A:00:00:00:00;1724112010;20/08/24;00:00:10;1.013;-0.026;0.077;0.006108652334660292;-0.009773843921720982;0.0024434609804302454
01:00:0A:00:00:00:00;1724112011;20/08/24;00:00:11;1.016;-0.026;0.077;0.006108652334660292;-0.00855211354792118;0.0036651913542300463
01:00:0A:00:00:00:00;1724112012;20/08/24;00:00:12;1.016;-0.025;0.075;0.006108652334660292;-0.010995574295520782;0.0024434609804302454
01:00:0A:00:00:00:00;1724112013;20/08/24;00:00:13;1.017;-0.025;0.076;0.006108652334660292;-0.012217304669320583;0.0036651913542300463
01:00:0A:00:00:00:00;1724112014;20/08/24;00:00:14;1.016;-0.027;0.075;0.006108652334660292;-0.013439035043120384;0.0024434609804302454
01:00:0A:00:00:00:00;1724112015;20/08/24;00:00:15;1.015;-0.028;0.079;0.006108652334660292;-0.013439035043120384;0.0024434609804302454
01:00:0A:00:00:00:00;1724112016;20/08/24;00:00:16;1.014;-0.026;0.077;0.006108652334660292;-0.012217304669320583;0.004886921960860491
01:00:0A:00:00:00:00;1724112017;20/08/24;00:00:17;1.013;-0.025;0.076;0.006108652334660292;-0.009773843921720982;0.0036651913542300463
01:00:0A:00:00:00:00;1724112018;20/08/24;00:00:18;1.015;-0.025;0.077;0.006108652334660292;-0.009773843921720982;0.0024434609804302454
01:00:0A:00:00:00:00;1724112019;20/08/24;00:00:19;1.016;-0.026;0.075;0.006108652334660292;-0.010995574295520782;0.0036651913542300463
01:00:0A:00:00:00:00;1724112020;20/08/24;00:00:20;1.016;-0.026;0.076;0.006108652334660292;-0.010995574295520782;0.004886921960860491
01:00:0A:00:00:00:00;1724112021;20/08/24;00:00:21;1.015;-0.025;0.076;0.006108652334660292;-0.013439035043120384;0.0036651913542300463
01:00:0A:00:00:00:00;1724112022;20/08/24;00:00:22;1.013;-0.025;0.076;0.006108652334660292;-0.013439035043120384;0.0036651913542300463
01:00:0A:00:00:00:00;1724112023;20/08/24;00:00:23;1.014;-0.026;0.077;0.006108652334660292;-0.010995574295520782;0.0036651913542300463
01:00:0A:00:00:00:00;1724112024;20/08/24;00:00:24;1.014;-0.026;0.078;0.006108652334660292;-0.009773843921720982;0.0036651913542300463
01:00:0A:00:00:00:00;1724112025;20/08/24;00:00:25;1.014;-0.025;0.077;0.006108652334660292;-0.010995574295520782;0.0036651913542300463
01:00:0A:00:00:00:00;1724112026;20/08/24;00:00:26;1.016;-0.026;0.077;0.006108652334660292;-0.00855211354792118;0.004886921960860491
01:00:0A:00:00:00:00;1724112027;20/08/24;00:00:27;1.016;-0.026;0.075;0.006108652334660292;-0.009773843921720982;0.0036651913542300463
01:00:0A:00:00:00:00;1724112028;20/08/24;00:00:28;1.015;-0.025;0.076;0.006108652334660292;-0.010995574295520782;0.004886921960860491
01:00:0A:00:00:00:00;1724112029;20/08/24;00:00:29;1.015;-0.025;0.076;0.006108652334660292;-0.010995574295520782;0.004886921960860491
01:00:0A:00:00:00:00;1724112030;20/08/24;00:00:30;1.013;-0.026;0.077;0.006108652334660292;-0.010995574295520782;0.0036651913542300463
01:00:0A:00:00:00:00;1724112031;20/08/24;00:00:31;1.013;-0.026;0.077;0.006108652334660292;-0.009773843921720982;0.0036651913542300463
01:00:0A:00:00:00:00;1724112032;20/08/24;00:00:32;1.016;-0.026;0.076;0.006108652334660292;-0.009773843921720982;0.004886921960860491
01:00:0A:00:00:00:00;1724112033;20/08/24;00:00:33;1.015;-0.026;0.076;0.006108652334660292;-0.009773843921720982;0.004886921960860491
01:00:0A:00:00:00:00;1724112034;20/08/24;00:00:34;1.015;-0.025;0.076;0.006108652334660292;-0.010995574295520782;0.0036651913542300463
01:00:0A:00:00:00:00;1724112035;20/08/24;00:00:35;1.016;-0.025;0.077;0.006108652334660292;-0.012217304669320583;0.0036651913542300463
01:00:0A:00:00:00:00;1724112036;20/08/24;00:00:36;1.013;-0.025;0.076;0.006108652334660292;-0.012217304669320583;0.0036651913542300463
01:00:0A:00:00:00:00;1724112037;20/08/24;00:00:37;1.013;-0.026;0.077;0.006108652334660292;-0.012217304669320583;0.0036651913542300463
01:00:0A:00:00:00:00;1724112038;20/08/24;00:00:38;1.015;-0.025;0.076;0.006108652334660292;-0.009773843921720982;0.0036651913542300463
01:00:0A:00:00:00:00;1724112039;20/08/24;00:00:39;1.018;-0.026;0.077;0.006108652334660292;-0.009773843921720982;0.0036651913542300463
01:00:0A:00:00:00:00;1724112040;20/08/24;00:00:40;1.018;-0.025;0.075;0.006108652334660292;-0.010995574295520782;0.004886921960860491
01:00:0A:00:00:00:00;1724112041;20/08/24;00:00:41;1.016;-0.026;0.075;0.006108652334660292;-0.010995574295520782;0.004886921960860491
01:00:0A:00:00:00:00;1724112042;20/08/24;00:00:42;1.013;-0.025;0.075;0.006108652334660292;-0.013439035043120384;0.0024434609804302454
01:00:0A:00:00:00:00;1724112043;20/08/24;00:00:43;1.011;-0.026;0.076;0.006108652334660292;-0.013439035043120384;0.0024434609804302454
01:00:0A:00:00:00:00;1724112044;20/08/24;00:00:44;1.013;-0.026;0.077;0.006108652334660292;-0.012217304669320583;0.0024434609804302454
01:00:0A:00:00:00:00;1724112045;20/08/24;00:00:45;1.016;-0.026;0.077;0.006108652334660292;-0.012217304669320583;0.0024434609804302454
01:00:0A:00:00:00:00;1724112046;20/08/24;00:00:46;1.019;-0.026;0.077;0.006108652334660292;-0.00855211354792118;0.0036651913542300463
01:00:0A:00:00:00:00;1724112047;20/08/24;00:00:47;1.019;-0.026;0.075;0.006108652334660292;-0.009773843921720982;0.006108652334660292
01:00:0A:00:00:00:00;1724112048;20/08/24;00:00:48;1.016;-0.027;0.076;0.006108652334660292;-0.009773843921720982;0.006108652334660292
01:00:0A:00:00:00:00;1724112049;20/08/24;00:00:49;1.011;-0.025;0.075;0.006108652334660292;-0.010995574295520782;0.004886921960860491
01:00:0A:00:00:00:00;1724112050;20/08/24;00:00:50;1.009;-0.025;0.077;0.006108652334660292;-0.010995574295520782;0.0036651913542300463
01:00:0A:00:00:00:00;1724112051;20/08/24;00:00:51;1.013;-0.027;0.076;0.006108652334660292;-0.012217304669320583;0.0024434609804302454
01:00:0A:00:00:00:00;1724112052;20/08/24;00:00:52;1.016;-0.026;0.076;0.006108652334660292;-0.010995574295520782;0.0024434609804302454
01:00:0A:00:00:00:00;1724112053;20/08/24;00:00:53;1.018;-0.027;0.077;0.006108652334660292;-0.010995574295520782;0.004886921960860491
01:00:0A:00:00:00:00;1724112054;20/08/24;00:00:54;1.018;-0.027;0.077;0.006108652334660292;-0.010995574295520782;0.0036651913542300463
01:00:0A:00:00:00:00;1724112055;20/08/24;00:00:55;1.014;-0.026;0.076;0.006108652334660292;-0.010995574295520782;0.004886921960860491
01:00:0A:00:00:00:00;1724112056;20/08/24;00:00:56;1.012;-0.026;0.077;0.006108652334660292;-0.010995574295520782;0.0036651913542300463
01:00:0A:00:00:00:00;1724112057;20/08/24;00:00:57;1.011;-0.026;0.077;0.006108652334660292;-0.012217304669320583;0.0024434609804302454
01:00:0A:00:00:00:00;1724112058;20/08/24;00:00:58;1.016;-0.025;0.076;0.006108652334660292;-0.010995574295520782;0.0024434609804302454
01:00:0A:00:00:00:00;1724112059;20/08/24;00:00:59;1.017;-0.026;0.076;0.006108652334660292;-0.010995574295520782;0.0036651913542300463
01:00:0A:00:00:00:00;1724112060;20/08/24;00:01:00;1.016;-0.025;0.076;0.006108652334660292;-0.010995574295520782;0.004886921960860491
01:00:0A:00:00:00:00;1724112061;20/08/24;00:01:01;1.014;-0.026;0.075;0.006108652334660292;-0.009773843921720982;0.004886921960860491
01:00:0A:00:00:00:00;1724112062;20/08/24;00:01:02;1.01;-0.024;0.076;0.006108652334660292;-0.012217304669320583;0.0036651913542300463
01:00:0A:00:00:00:00;1724112063;20/08/24;00:01:03;1.011;-0.026;0.076;0.006108652334660292;-0.013439035043120384;0.0012217304902151227
01:00:0A:00:00:00:00;1724112064;20/08/24;00:01:04;1.015;-0.026;0.076;0.006108652334660292;-0.012217304669320583;0.0024434609804302454
01:00:0A:00:00:00:00;1724112065;20/08/24;00:01:05;1.019;-0.026;0.077;0.006108652334660292;-0.012217304669320583;0.0036651913542300463
01:00:0A:00:00:00:00;1724112066;20/08/24;00:01:06;1.018;-0.026;0.076;0.006108652334660292;-0.010995574295520782;0.0036651913542300463
01:00:0A:00:00:00:00;1724112067;20/08/24;00:01:07;1.016;-0.025;0.076;0.006108652334660292;-0.010995574295520782;0.004886921960860491
01:00:0A:00:00:00:00;1724112068;20/08/24;00:01:08;1.014;-0.025;0.077;0.006108652334660292;-0.009773843921720982;0.004886921960860491
01:00:0A:00:00:00:00;1724112069;20/08/24;00:01:09;1.011;-0.025;0.076;0.006108652334660292;-0.012217304669320583;0.0036651913542300463
01:00:0A:00:00:00:00;1724112070;20/08/24;00:01:10;1.013;-0.026;0.075;0.006108652334660292;-0.012217304669320583;0.0024434609804302454
01:00:0A:00:00:00:00;1724112071;20/08/24;00:01:11;1.015;-0.026;0.076;0.006108652334660292;-0.013439035043120384;0.0024434609804302454
01:00:0A:00:00:00:00;1724112072;20/08/24;00:01:12;1.016;-0.026;0.076;0.006108652334660292;-0.013439035043120384;0.0024434609804302454
01:00:0A:00:00:00:00;1724112069;20/08/24;00:01:09;1.016;-0.025;0.076;0.006108652334660292;-0.010995574295520782;0.004886921960860491
01:00:0A:00:00:00:00;1724112070;20/08/24;00:01:10;1.016;-0.025;0.077;0.006108652334660292;-0.009773843921720982;0.004886921960860491
01:00:0A:00:00:00:00;1724112071;20/08/24;00:01:11;1.015;-0.026;0.076;0.006108652334660292;-0.009773843921720982;0.004886921960860491
01:00:0A:00:00:00:00;1724112072;20/08/24;00:01:12;1.014;-0.026;0.077;0.006108652334660292;-0.010995574295520782;0.004886921960860491
01:00:0A:00:00:00:00;1724112073;20/08/24;00:01:13;1.014;-0.025;0.077;0.006108652334660292;-0.010995574295520782;0.0036651913542300463
01:00:0A:00:00:00:00;1724112074;20/08/24;00:01:14;1.015;-0.026;0.077;0.006108652334660292;-0.012217304669320583;0.0024434609804302454
01:00:0A:00:00:00:00;1724112075;20/08/24;00:01:15;1.015;-0.025;0.076;0.006108652334660292;-0.010995574295520782;0.0036651913542300463
01:00:0A:00:00:00:00;1724112076;20/08/24;00:01:16;1.016;-0.026;0.077;0.006108652334660292;-0.010995574295520782;0.004886921960860491
01:00:0A:00:00:00:00;1724112077;20/08/24;00:01:17;1.015;-0.026;0.076;0.006108652334660292;-0.009773843921720982;0.004886921960860491
01:00:0A:00:00:00:00;1724112078;20/08/24;00:01:18;1.014;-0.024;0.075;0.004886921960860491;-0.010995574295520782;0.004886921960860491
01:00:0A:00:00:00:00;1724112079;20/08/24;00:01:19;1.013;-0.026;0.076;0.006108652334660292;-0.010995574295520782;0.0036651913542300463
01:00:0A:00:00:00:00;1724112080;20/08/24;00:01:20;1.014;-0.026;0.076;0.006108652334660292;-0.013439035043120384;0.0024434609804302454
01:00:0A:00:00:00:00;1724112081;20/08/24;00:01:21;1.016;-0.026;0.076;0.006108652334660292;-0.012217304669320583;0.0024434609804302454
01:00:0A:00:00:00:00;1724112082;20/08/24;00:01:22;1.016;-0.026;0.076;0.006108652334660292;-0.010995574295520782;0.0036651913542300463
01:00:0A:00:00:00:00;1724112083;20/08/24;00:01:23;1.016;-0.025;0.077;0.006108652334660292;-0.010995574295520782;0.0036651913542300463
01:00:0A:00:00:00:00;1724112084;20/08/24;00:01:24;1.016;-0.026;0.077;0.006108652334660292;-0.00855211354792118;0.004886921960860491
01:00:0A:00:00:00:00;1724112085;20/08/24;00:01:25;1.013;-0.026;0.076;0.006108652334660292;-0.009773843921720982;0.004886921960860491
01:00:0A:00:00:00:00;1724112086;20/08/24;00:01:26;1.012;-0.025;0.075;0.006108652334660292;-0.010995574295520782;0.0036651913542300463
01:00:0A:00:00:00:00;1724112087;20/08/24;00:01:27;1.014;-0.024;0.076;0.006108652334660292;-0.013439035043120384;0.0012217304902151227
01:00:0A:00:00:00:00;1724112088;20/08/24;00:01:28;1.016;-0.026;0.077;0.006108652334660292;-0.012217304669320583;0.0024434609804302454
01:00:0A:00:00:00:00;1724112089;20/08/24;00:01:29;1.017;-0.026;0.077;0.006108652334660292;-0.012217304669320583;0.0036651913542300463
01:00:0A:00:00:00:00;1724112090;20/08/24;00:01:30;1.016;-0.026;0.076;0.006108652334660292;-0.00855211354792118;0.004886921960860491
01:00:0A:00:00:00:00;1724112091;20/08/24;00:01:31;1.015;-0.025;0.077;0.006108652334660292;-0.00855211354792118;0.004886921960860491
01:00:0A:00:00:00:00;1724112092;20/08/24;00:01:32;1.012;-0.025;0.076;0.006108652334660292;-0.010995574295520782;0.0036651913542300463
01:00:0A:00:00:00:00;1724112093;20/08/24;00:01:33;1.013;-0.025;0.076;0.006108652334660292;-0.012217304669320583;0.0024434609804302454
01:00:0A:00:00:00:00;1724112094;20/08/24;00:01:34;1.015;-0.025;0.076;0.006108652334660292;-0.014660765416920185;0.0012217304902151227
01:00:0A:00:00:00:00;1724112095;20/08/24;00:01:35;1.017;-0.026;0.077;0.006108652334660292;-0.013439035043120384;0.0012217304902151227
01:00:0A:00:00:00:00;1724112096;20/08/24;00:01:36;1.017;-0.027;0.078;0.006108652334660292;-0.010995574295520782;0.004886921960860491
01:00:0A:00:00:00:00;1724112097;20/08/24;00:01:37;1.016;-0.027;0.076;0.006108652334660292;-0.00855211354792118;0.006108652334660292
01:00:0A:00:00:00:00;1724112098;20/08/24;00:01:38;1.014;-0.026;0.077;0.006108652334660292;-0.009773843921720982;0.004886921960860491
01:00:0A:00:00:00:00;1724112099;20/08/24;00:01:39;1.013;-0.024;0.076;0.006108652334660292;-0.012217304669320583;0.0024434609804302454
01:00:0A:00:00:00:00;1724112100;20/08/24;00:01:40;1.014;-0.026;0.075;0.006108652334660292;-0.014660765416920185;0.0012217304902151227
01:00:0A:00:00:00:00;1724112101;20/08/24;00:01:41;1.016;-0.026;0.077;0.006108652334660292;-0.013439035043120384;0.0012217304902151227
01:00:0A:00:00:00:00;1724112102;20/08/24;00:01:42;1.018;-0.026;0.078;0.006108652334660292;-0.012217304669320583;0.0036651913542300463
01:00:0A:00:00:00:00;1724112103;20/08/24;00:01:43;1.017;-0.027;0.077;0.006108652334660292;-0.00855211354792118;0.004886921960860491
01:00:0A:00:00:00:00;1724112104;20/08/24;00:01:44;1.014;-0.025;0.076;0.006108652334660292;-0.00855211354792118;0.006108652334660292
01:00:0A:00:00:00:00;1724112105;20/08/24;00:01:45;1.013;-0.026;0.074;0.006108652334660292;-0.010995574295520782;0.004886921960860491
01:00:0A:00:00:00:00;1724112106;20/08/24;00:01:46;1.014;-0.025;0.075;0.006108652334660292;-0.013439035043120384;0.0012217304902151227
01:00:0A:00:00:00:00;1724112107;20/08/24;00:01:47;1.015;-0.025;0.076;0.006108652334660292;-0.014660765416920185;0.0012217304902151227
01:00:0A:00:00:00:00;1724112108;20/08/24;00:01:48;1.016;-0.027;0.078;0.006108652334660292;-0.012217304669320583;0.0036651913542300463
01:00:0A:00:00:00:00;1724112109;20/08/24;00:01:49;1.016;-0.027;0.078;0.006108652334660292;-0.009773843921720982;0.004886921960860491
01:00:0A:00:00:00:00;1724112110;20/08/24;00:01:50;1.016;-0.025;0.076;0.006108652334660292;-0.00855211354792118;0.006108652334660292
01:00:0A:00:00:00:00;1724112111;20/08/24;00:01:51;1.014;-0.025;0.075;0.006108652334660292;-0.009773843921720982;0.004886921960860491
01:00:0A:00:00:00:00;1724112112;20/08/24;00:01:52;1.013;-0.026;0.075;0.006108652334660292;-0.012217304669320583;0.0024434609804302454
01:00:0A:00:00:00:00;1724112113;20/08/24;00:01:53;1.014;-0.024;0.076;0.006108652334660292;-0.013439035043120384;0.0024434609804302454
01:00:0A:00:00:00:00;1724112114;20/08/24;00:01:54;1.016;-0.025;0.076;0.006108652334660292;-0.012217304669320583;0.0024434609804302454
01:00:0A:00:00:00:00;1724112115;20/08/24;00:01:55;1.016;-0.026;0.077;0.006108652334660292;-0.010995574295520782;0.0036651913542300463
01:00:0A:00:00:00:00;1724112116;20/08/24;00:01:56;1.016;-0.025;0.077;0.006108652334660292;-0.009773843921720982;0.004886921960860491
01:00:0A:00:00:00:00;1724112117;20/08/24;00:01:57;1.016;-0.025;0.076;0.006108652334660292;-0.009773843921720982;0.006108652334660292
01:00:0A:00:00:00:00;1724112118;20/08/24;00:01:58;1.013;-0.026;0.074;0.006108652334660292;-0.010995574295520782;0.0036651913542300463
01:00:0A:00:00:00:00;1724112119;20/08/24;00:01:59;1.014;-0.025;0.077;0.006108652334660292;-0.012217304669320583;0.0024434609804302454
01:00:0A:00:00:00:00;1724112120;20/08/24;00:02:00;1.016;-0.026;0.077;0.006108652334660292;-0.013439035043120384;0.0024434609804302454
01:00:0A:00:00:00:00;1724112121;20/08/24;00:02:01;1.016;-0.026;0.077;0.006108652334660292;-0.012217304669320583;0.0036651913542300463
01:00:0A:00:00:00:00;1724112122;20/08/24;00:02:02;1.016;-0.026;0.077;0.006108652334660292;-0.010995574295520782;0.004886921960860491
01:00:0A:00:00:00:00;1724112123;20/08/24;00:02:03;1.015;-0.026;0.077;0.006108652334660292;-0.009773843921720982;0.004886921960860491
01:00:0A:00:00:00:00;1724112124;20/08/24;00:02:04;1.015;-0.025;0.076;0.006108652334660292;-0.009773843921720982;0.0036651913542300463
01:00:0A:00:00:00:00;1724112125;20/08/24;00:02:05;1.016;-0.025;0.076;0.006108652334660292;-0.010995574295520782;0.0036651913542300463
01:00:0A:00:00:00:00;1724112126;20/08/24;00:02:06;1.015;-0.026;0.075;0.006108652334660292;-0.012217304669320583;0.0024434609804302454
01:00:0A:00:00:00:00;1724112127;20/08/24;00:02:07;1.014;-0.026;0.075;0.006108652334660292;-0.012217304669320583;0.0024434609804302454
01:00:0A:00:00:00:00;1724112128;20/08/24;00:02:08;1.016;-0.026;0.077;0.006108652334660292;-0.010995574295520782;0.0036651913542300463
01:00:0A:00:00:00:00;1724112129;20/08/24;00:02:09;1.015;-0.026;0.077;0.006108652334660292;-0.010995574295520782;0.0036651913542300463
01:00:0A:00:00:00:00;1724112130;20/08/24;00:02:10;1.015;-0.026;0.077;0.006108652334660292;-0.010995574295520782;0.0036651913542300463
01:00:0A:00:00:00:00;1724112131;20/08/24;00:02:11;1.015;-0.027;0.077;0.006108652334660292;-0.009773843921720982;0.0036651913542300463
01:00:0A:00:00:00:00;1724112132;20/08/24;00:02:12;1.016;-0.026;0.076;0.006108652334660292;-0.009773843921720982;0.0036651913542300463
01:00:0A:00:00:00:00;1724112133;20/08/24;00:02:13;1.015;-0.025;0.076;0.006108652334660292;-0.012217304669320583;0.0024434609804302454
01:00:0A:00:00:00:00;1724112134;20/08/24;00:02:14;1.014;-0.025;0.075;0.006108652334660292;-0.012217304669320583;0.0036651913542300463
01:00:0A:00:00:00:00;1724112135;20/08/24;00:02:15;1.016;-0.026;0.076;0.006108652334660292;-0.012217304669320583;0.0024434609804302454
01:00:0A:00:00:00:00;1724112136;20/08/24;00:02:16;1.016;-0.026;0.078;0.006108652334660292;-0.010995574295520782;0.0024434609804302454
01:00:0A:00:00:00:00;1724112137;20/08/24;00:02:17;1.016;-0.026;0.076;0.006108652334660292;-0.009773843921720982;0.004886921960860491
01:00:0A:00:00:00:00;1724112138;20/08/24;00:02:18;1.016;-0.026;0.076;0.0073303827084600925;-0.009773843921720982;0.004886921960860491
01:00:0A:00:00:00:00;1724112139;20/08/24;00:02:19;1.015;-0.026;0.075;0.0073303827084600925;-0.009773843921720982;0.0036651913542300463
01:00:0A:00:00:00:00;1724112140;20/08/24;00:02:20;1.014;-0.025;0.075;0.0073303827084600925;-0.012217304669320583;0.0024434609804302454
01:00:0A:00:00:00:00;1724112141;20/08/24;00:02:21;1.016;-0.026;0.077;0.0073303827084600925;-0.012217304669320583;0.0024434609804302454
01:00:0A:00:00:00:00;1724112142;20/08/24;00:02:22;1.015;-0.025;0.077;0.0073303827084600925;-0.012217304669320583;0.0024434609804302454
01:00:0A:00:00:00:00;1724112143;20/08/24;00:02:23;1.015;-0.026;0.077;0.0073303827084600925;-0.009773843921720982;0.0036651913542300463
01:00:0A:00:00:00:00;1724112144;20/08/24;00:02:24;1.015;-0.026;0.077;0.0073303827084600925;-0.009773843921720982;0.004886921960860491
01:00:0A:00:00:00:00;1724112145;20/08/24;00:02:25;1.015;-0.025;0.076;0.0073303827084600925;-0.009773843921720982;0.004886921960860491
01:00:0A:00:00:00:00;1724112146;20/08/24;00:02:26;1.014;-0.026;0.075;0.0073303827084600925;-0.010995574295520782;0.0036651913542300463
01:00:0A:00:00:00:00;1724112147;20/08/24;00:02:27;1.015;-0.025;0.076;0.0073303827084600925;-0.012217304669320583;0.0024434609804302454
01:00:0A:00:00:00:00;1724112148;20/08/24;00:02:28;1.016;-0.025;0.076;0.0073303827084600925;-0.013439035043120384;0.0012217304902151227
01:00:0A:00:00:00:00;1724112149;20/08/24;00:02:29;1.015;-0.027;0.077;0.00855211354792118;-0.010995574295520782;0.004886921960860491
01:00:0A:00:00:00:00;1724112150;20/08/24;00:02:30;1.016;-0.026;0.077;0.00855211354792118;-0.009773843921720982;0.004886921960860491
01:00:0A:00:00:00:00;1724112151;20/08/24;00:02:31;1.015;-0.025;0.076;0.00855211354792118;-0.00855211354792118;0.004886921960860491
01:00:0A:00:00:00:00;1724112152;20/08/24;00:02:32;1.016;-0.025;0.076;0.00855211354792118;-0.009773843921720982;0.0036651913542300463
01:00:0A:00:00:00:00;1724112153;20/08/24;00:02:33;1.016;-0.025;0.076;0.00855211354792118;-0.013439035043120384;0.0024434609804302454
01:00:0A:00:00:00:00;1724112154;20/08/24;00:02:34;1.015;-0.025;0.077;0.00855211354792118;-0.013439035043120384;0.0024434609804302454
01:00:0A:00:00:00:00;1724112155;20/08/24;00:02:35;1.016;-0.026;0.078;0.00855211354792118;-0.012217304669320583;0.0036651913542300463
01:00:0A:00:00:00:00;1724112156;20/08/24;00:02:36;1.015;-0.027;0.078;0.00855211354792118;-0.009773843921720982;0.0036651913542300463
01:00:0A:00:00:00:00;1724112157;20/08/24;00:02:37;1.015;-0.025;0.076;0.00855211354792118;-0.00855211354792118;0.004886921960860491
01:00:0A:00:00:00:00;1724112158;20/08/24;00:02:38;1.016;-0.026;0.076;0.00855211354792118;-0.009773843921720982;0.004886921960860491
01:00:0A:00:00:00:00;1724112159;20/08/24;00:02:39;1.015;-0.026;0.075;0.009773843921720982;-0.010995574295520782;0.0036651913542300463
01:00:0A:00:00:00:00;1724112160;20/08/24;00:02:40;1.015;-0.026;0.077;0.009773843921720982;-0.013439035043120384;0.0024434609804302454
01:00:0A:00:00:00:00;1724112161;20/08/24;00:02:41;1.014;-0.026;0.076;0.009773843921720982;-0.013439035043120384;0.0036651913542300463
01:00:0A:00:00:00:00;1724112162;20/08/24;00:02:42;1.015;-0.026;0.077;0.009773843921720982;-0.010995574295520782;0.0036651913542300463
01:00:0A:00:00:00:00;1724112163;20/08/24;00:02:43;1.015;-0.026;0.078;0.009773843921720982;-0.009773843921720982;0.0036651913542300463
01:00:0A:00:00:00:00;1724112164;20/08/24;00:02:44;1.014;-0.026;0.075;0.009773843921720982;-0.00855211354792118;0.0036651913542300463
01:00:0A:00:00:00:00;1724112165;20/08/24;00:02:45;1.015;-0.026;0.076;0.009773843921720982;-0.009773843921720982;0.0036651913542300463
01:00:0A:00:00:00:00;1724112166;20/08/24;00:02:46;1.015;-0.025;0.076;0.009773843921720982;-0.012217304669320583;0.0036651913542300463
01:00:0A:00:00:00:00;1724112167;20/08/24;00:02:47;1.014;-0.026;0.078;0.009773843921720982;-0.012217304669320583;0.0024434609804302454
01:00:0A:00:00:00:00;1724112168;20/08/24;00:02:48;1.015;-0.026;0.077;0.009773843921720982;-0.010995574295520782;0.0024434609804302454
01:00:0A:00:00:00:00;1724112169;20/08/24;00:02:49;1.016;-0.027;0.077;0.010995574295520782;-0.009773843921720982;0.0036651913542300463
01:00:0A:00:00:00:00;1724112170;20/08/24;00:02:50;1.015;-0.026;0.077;0.010995574295520782;-0.009773843921720982;0.006108652334660292
01:00:0A:00:00:00:00;1724112171;20/08/24;00:02:51;1.015;-0.026;0.076;0.010995574295520782;-0.009773843921720982;0.0036651913542300463
01:00:0A:00:00:00:00;1724112172;20/08/24;00:02:52;1.015;-0.025;0.077;0.010995574295520782;-0.010995574295520782;0.0036651913542300463
01:00:0A:00:00:00:00;1724112173;20/08/24;00:02:53;1.016;-0.026;0.076;0.010995574295520782;-0.012217304669320583;0.0036651913542300463
01:00:0A:00:00:00:00;1724112174;20/08/24;00:02:54;1.016;-0.026;0.076;0.010995574295520782;-0.012217304669320583;0.0036651913542300463
01:00:0A:00:00:00:00;1724112175;20/08/24;00:02:55;1.014;-0.025;0.078;0.010995574295520782;-0.010995574295520782;0.0036651913542300463
01:00:0A:00:00:00:00;1724112176;20/08/24;00:02:56;1.015;-0.025;0.077;0.010995574295520782;-0.009773843921720982;0.0036651913542300463
01:00:0A:00:00:00:00;1724112177;20/08/24;00:02:57;1.016;-0.026;0.076;0.010995574295520782;-0.009773843921720982;0.0036651913542300463
01:00:0A:00:00:00:00;1724112178;20/08/24;00:02:58;1.016;-0.026;0.076;0.010995574295520782;-0.010995574295520782;0.0036651913542300463
01:00:0A:00:00:00:00;1724112179;20/08/24;00:02:59;1.014;-0.026;0.077;0.010995574295520782;-0.010995574295520782;0.0036651913542300463
01:00:0A:00:00:00:00;1724112180;20/08/24;00:03:00;1.015;-0.026;0.077;0.012217304669320583;-0.010995574295520782;0.0024434609804302454
01:00:0A:00:00:00:00;1724112181;20/08/24;00:03:01;1.015;-0.026;0.077;0.010995574295520782;-0.012217304669320583;0.0036651913542300463
01:00:0A:00:00:00:00;1724112182;20/08/24;00:03:02;1.015;-0.027;0.077;0.010995574295520782;-0.010995574295520782;0.004886921960860491
01:00:0A:00:00:00:00;1724112183;20/08/24;00:03:03;1.014;-0.025;0.077;0.010995574295520782;-0.010995574295520782;0.0036651913542300463
01:00:0A:00:00:00:00;1724112184;20/08/24;00:03:04;1.015;-0.026;0.078;0.010995574295520782;-0.010995574295520782;0.0036651913542300463
01:00:0A:00:00:00:00;1724112185;20/08/24;00:03:05;1.014;-0.025;0.077;0.010995574295520782;-0.010995574295520782;0.0036651913542300463
01:00:0A:00:00:00:00;1724112186;20/08/24;00:03:06;1.015;-0.027;0.076;0.010995574295520782;-0.010995574295520782;0.0036651913542300463
01:00:0A:00:00:00:00;1724112187;20/08/24;00:03:07;1.016;-0.021;0.076;0.009773843921720982;-0.012217304669320583;0.0012217304902151227
01:00:0A:00:00:00:00;1724112188;20/08/24;00:03:08;1.019;-0.022;0.071;0.010995574295520782;-0.01710422709584236;-0.012217304669320583
01:00:0A:00:00:00:00;1724112189;20/08/24;00:03:09;1.016;-0.032;0.079;0.009773843921720982;-0.018325956538319588;-0.0073303827084600925
01:00:0A:00:00:00:00;1724112190;20/08/24;00:03:10;1.015;-0.039;0.08;0.006108652334660292;-0.018325956538319588;0.013439035043120384
01:00:0A:00:00:00:00;1724112191;20/08/24;00:03:11;1.01;-0.026;0.086;-0.0012217304902151227;-0.009773843921720982;0.03787364438176155
01:00:0A:00:00:00:00;1724112192;20/08/24;00:03:12;1.007;-0.01;0.084;-0.006108652334660292;0.0;0.025656338781118393
01:00:0A:00:00:00:00;1724112193;20/08/24;00:03:13;1.013;-0.004;0.072;-0.004886921960860491;0.0073303827084600925;-0.018325956538319588
01:00:0A:00:00:00:00;1724112194;20/08/24;00:03:14;1.018;-0.021;0.065;-0.00855211354792118;-0.02076941914856434;-0.03176499158143997
01:00:0A:00:00:00:00;1724112195;20/08/24;00:03:15;1.021;-0.031;0.072;-0.014660765416920185;-0.036651913076639175;-0.014660765416920185
01:00:0A:00:00:00:00;1724112196;20/08/24;00:03:16;1.018;-0.037;0.085;-0.01710422709584236;-0.03298672288656235;0.02076941914856434
01:00:0A:00:00:00:00;1724112197;20/08/24;00:03:17;1.016;-0.032;0.084;-0.00855211354792118;-0.0012217304902151227;0.02687807008624077
01:00:0A:00:00:00:00;1724112198;20/08/24;00:03:18;1.008;-0.019;0.077;-0.004886921960860491;0.019547687843441963;0.02687807008624077
01:00:0A:00:00:00:00;1724112199;20/08/24;00:03:19;1.002;-0.016;0.067;-0.0012217304902151227;-0.010995574295520782;0.0073303827084600925
01:00:0A:00:00:00:00;1724112200;20/08/24;00:03:20;1.008;-0.017;0.065;0.012217304669320583;-0.01710422709584236;-0.03176499158143997
01:00:0A:00:00:00:00;1724112201;20/08/24;00:03:21;1.017;-0.029;0.077;0.013439035043120384;-0.039095375686883926;-0.025656338781118393
01:00:0A:00:00:00:00;1724112202;20/08/24;00:03:22;1.035;-0.047;0.081;0.019547687843441963;-0.014660765416920185;0.009773843921720982
01:00:0A:00:00:00:00;1724112203;20/08/24;00:03:23;1.036;-0.034;0.082;0.024434609338641167;0.015882495790719986;0.021991148591041565
01:00:0A:00:00:00:00;1724112204;20/08/24;00:03:24;1.011;-0.028;0.077;0.014660765416920185;0.0024434609804302454;0.04153883829712868
01:00:0A:00:00:00:00;1724112205;20/08/24;00:03:25;0.987;-0.017;0.056;0.018325956538319588;-0.03298672288656235;0.0012217304902151227
01:00:0A:00:00:00:00;1724112206;20/08/24;00:03:26;0.985;-0.017;0.07;0.024434609338641167;-0.010995574295520782;-0.0024434609804302454
01:00:0A:00:00:00:00;1724112207;20/08/24;00:03:27;1.02;-0.012;0.098;0.0024434609804302454;-0.05619959905743599;-0.024434609338641167
01:00:0A:00:00:00:00;1724112208;20/08/24;00:03:28;1.044;-0.039;0.08;-0.006108652334660292;-0.030543262138962746;0.010995574295520782
01:00:0A:00:00:00:00;1724112209;20/08/24;00:03:29;1.043;-0.047;0.047;0.06108652427792549;0.018325956538319588;-0.0354301817715168
01:00:0A:00:00:00:00;1724112210;20/08/24;00:03:30;1.016;-0.001;0.103;0.08307767659425735;0.06963863223791122;0.04398229718208313
01:00:0A:00:00:00:00;1724112211;20/08/24;00:03:31;0.991;-0.025;0.086;-0.5277875661849976;0.024434609338641167;-0.11239919811487198
01:00:0A:00:00:00:00;1724112212;20/08/24;00:03:32;0.988;0.008;0.003;-0.36651912331581116;-0.12095131725072861;-0.03298672288656235
01:00:0A:00:00:00:00;1724112213;20/08/24;00:03:33;1.003;-0.034;0.101;-0.21502456068992615;0.11972958594560623;0.09162978082895279
01:00:0A:00:00:00:00;1724112214;20/08/24;00:03:34;1.021;-0.118;0.112;0.018325956538319588;-0.10384709388017654;-0.1673770695924759
01:00:0A:00:00:00:00;1724112215;20/08/24;00:03:35;1.034;0.029;0.007;0.24434609711170197;-0.00855211354792118;0.0073303827084600925
01:00:0A:00:00:00:00;1724112216;20/08/24;00:03:36;1.019;-0.057;0.187;0.3799581527709961;0.12461651116609573;0.09040805697441101
01:00:0A:00:00:00:00;1724112217;20/08/24;00:03:37;1.02;0.056;0.028;0.5057964324951172;-0.02687807008624077;-0.2028072476387024
01:00:0A:00:00:00:00;1724112218;20/08/24;00:03:38;0.993;0.056;0.08;0.5668829083442688;0.21013763546943665;0.4251621961593628
01:00:0A:00:00:00:00;1724112219;20/08/24;00:03:39;0.957;-0.215;0.122;0.7159340977668762;-0.23090705275535583;0.39706242084503174
01:00:0A:00:00:00:00;1724112220;20/08/24;00:03:40;0.989;0.281;-0.071;2.610837936401367;-0.07330382615327835;-0.739146888256073
01:00:0A:00:00:00:00;1724112221;20/08/24;00:03:41;1.014;-0.139;0.183;2.280970811843872;0.42760565876960754;0.26511549949645996
01:00:0A:00:00:00:00;1724112222;20/08/24;00:03:42;1.02;-0.086;0.031;1.9755382537841797;-0.4300491213798523;0.21868975460529327
01:00:0A:00:00:00:00;1724112223;20/08/24;00:03:43;1.006;-0.045;0.06;2.102598190307617;-0.16982054710388184;-0.40072759985923767
01:00:0A:00:00:00:00;1724112224;20/08/24;00:03:44;0.998;0.209;-0.04;1.7177530527114868;0.14416420459747314;-0.24678954482078552
01:00:0A:00:00:00:00;1724112225;20/08/24;00:03:45;1.018;0.013;0.077;1.841147780418396;0.2015855312347412;0.3701843321323395
01:00:0A:00:00:00:00;1724112226;20/08/24;00:03:46;0.993;-0.111;0.144;1.6774358749389648;-0.24556782841682434;0.22602014243602753
01:00:0A:00:00:00:00;1724112227;20/08/24;00:03:47;0.976;-0.114;-0.082;1.7470746040344238;-0.22357667982578278;-0.2015855312347412
01:00:0A:00:00:00:00;1724112228;20/08/24;00:03:48;0.982;0.044;0.108;0.26511549949645996;0.3799581527709961;0.11728612333536148
01:00:0A:00:00:00:00;1724112229;20/08/24;00:03:49;0.971;-0.343;0.1;0.5668829083442688;-0.8185594081878662;0.05375614017248154
01:00:0A:00:00:00:00;1724112230;20/08/24;00:03:50;1.038;0.125;-0.022;0.6780604124069214;0.2785545289516449;0.13316862285137177
01:00:0A:00:00:00:00;1724112231;20/08/24;00:03:51;1.016;-0.252;0.219;1.0140362977981567;-0.045204028487205505;0.1722639948129654
01:00:0A:00:00:00:00;1724112232;20/08/24;00:03:52;1.017;-0.036;0.149;0.919963002204895;0.02076941914856434;0.01710422709584236
01:00:0A:00:00:00:00;1724112233;20/08/24;00:03:53;0.979;-0.1;-0.018;0.9004153609275818;-0.07330382615327835;0.4312708377838135
01:00:0A:00:00:00:00;1724112234;20/08/24;00:03:54;0.966;0.006;-0.015;1.1594222784042358;0.06230825558304787;-0.445931613445282
01:00:0A:00:00:00:00;1724112235;20/08/24;00:03:55;0.963;0.085;-0.032;1.1985175609588623;0.39828410744667053;0.49357908964157104
01:00:0A:00:00:00:00;1724112236;20/08/24;00:03:56;0.983;-0.235;0.253;1.177748203277588;-0.5803219676017761;-0.010995574295520782
01:00:0A:00:00:00:00;1724112237;20/08/24;00:03:57;1.023;-0.102;-0.163;1.4941763877868652;0.3946189284324646;-0.7134906053543091
01:00:0A:00:00:00:00;1724112238;20/08/24;00:03:58;1.005;0.218;0.251;1.3658946752548218;0.5045746564865112;0.0024434609804302454
01:00:0A:00:00:00:00;1724112239;20/08/24;00:03:59;1.013;-0.022;-0.033;1.252273678779602;0.16982054710388184;0.17348572611808777
01:00:0A:00:00:00:00;1724112240;20/08/24;00:04:00;0.979;-0.012;0.0;1.3548990488052368;-0.23579397797584534;-0.01710422709584236
01:00:0A:00:00:00:00;1724112241;20/08/24;00:04:01;0.982;-0.1;0.063;1.569923758506775;0.2785545289516449;-0.05742133408784866
01:00:0A:00:00:00:00;1724112242;20/08/24;00:04:02;0.956;0.036;0.238;1.1264355182647705;-0.7586946487426758;0.7244861721992493
01:00:0A:00:00:00:00;1724112243;20/08/24;00:04:03;1.0;-0.25;0.006;1.5259413719177246;-0.6499606370925903;-0.6194173693656921
01:00:0A:00:00:00:00;1724112244;20/08/24;00:04:04;1.021;-0.073;-0.269;1.8093827962875366;-0.10873401165008545;-0.18081611394882202
01:00:0A:00:00:00:00;1724112245;20/08/24;00:04:05;0.982;0.351;-0.039;1.762956976890564;0.6328563690185547;-0.8271114826202393
01:00:0A:00:00:00:00;1724112246;20/08/24;00:04:06;1.006;0.008;0.297;1.969429612159729;0.33108896017074585;0.375071257352829
01:00:0A:00:00:00:00;1724112247;20/08/24;00:04:07;0.951;0.015;0.288;2.287079334259033;0.5290092825889587;0.38606682419776917
01:00:0A:00:00:00:00;1724112248;20/08/24;00:04:08;0.978;0.029;0.234;1.6920967102050781;-0.294437050819397;0.5717698335647583
01:00:0A:00:00:00:00;1724112249;20/08/24;00:04:09;0.992;-0.132;0.195;1.5796974897384644;-0.3933972120285034;-0.30543261766433716
01:00:0A:00:00:00:00;1724112250;20/08/24;00:04:10;1.042;0.021;-0.122;1.567480206489563;-0.012217304669320583;-0.1111774742603302
01:00:0A:00:00:00:00;1724112251;20/08/24;00:04:11;1.014;-0.033;0.32;1.5393803119659424;0.2834414541721344;0.32620203495025635
01:00:0A:00:00:00:00;1724112252;20/08/24;00:04:12;0.991;-0.061;-0.278;1.4844024181365967;-0.48380526900291443;0.13072516024112701
01:00:0A:00:00:00:00;1724112253;20/08/24;00:04:13;1.001;-0.016;0.141;1.8118263483047485;0.44715335965156555;0.20036379992961884
01:00:0A:00:00:00:00;1724112254;20/08/24;00:04:14;0.965;-0.122;0.177;1.4917329549789429;-0.05742133408784866;0.8161159753799438
01:00:0A:00:00:00:00;1724112255;20/08/24;00:04:15;0.93;-0.334;0.147;1.4636330604553223;-0.8784241676330566;0.3579670488834381
01:00:0A:00:00:00:00;1724112256;20/08/24;00:04:16;0.97;-0.255;0.049;1.919338583946228;-0.8246681094169617;-0.9456194043159485
01:00:0A:00:00:00:00;1724112257;20/08/24;00:04:17;1.016;-0.04;-0.037;2.0231857299804688;0.23579397797584534;-0.17348572611808777
01:00:0A:00:00:00:00;1724112258;20/08/24;00:04:18;0.979;0.003;0.188;1.7886134386062622;-0.45814892649650574;0.16859880089759827
01:00:0A:00:00:00:00;1724112259;20/08/24;00:04:19;0.958;-0.097;-0.085;1.7348573207855225;-0.6829473376274109;-0.21135938167572021
01:00:0A:00:00:00:00;1724112260;20/08/24;00:04:20;0.972;-0.128;-0.058;2.0867154598236084;0.26633724570274353;-0.41172316670417786
01:00:0A:00:00:00:00;1724112261;20/08/24;00:04:21;0.964;-0.074;-0.105;2.0390682220458984;-0.4899139106273651;-0.2174680233001709
01:00:0A:00:00:00:00;1724112262;20/08/24;00:04:22;0.915;-0.172;-0.063;2.41413950920105;-0.47769662737846375;-1.127657175064087
01:00:0A:00:00:00:00;1724112263;20/08/24;00:04:23;0.949;-0.268;-0.056;2.5314254760742188;-0.42271876335144043;-0.4080579876899719
01:00:0A:00:00:00:00;1724112264;20/08/24;00:04:24;0.995;-0.221;0.135;2.344500780105591;-0.5497786998748779;0.015882495790719986
01:00:0A:00:00:00:00;1724112265;20/08/24;00:04:25;1.023;-0.165;0.206;2.107485055923462;0.08918632566928864;0.32620203495025635
01:00:0A:00:00:00:00;1724112266;20/08/24;00:04:26;0.943;-0.209;0.455;1.510058879852295;-0.18814648687839508;0.9651670455932617
01:00:0A:00:00:00:00;1724112267;20/08/24;00:04:27;0.793;-0.622;0.259;1.350012183189392;-1.1520917415618896;0.43860122561454773
01:00:0A:00:00:00:00;1724112268;20/08/24;00:04:28;0.916;-0.343;0.039;1.5344934463500977;-1.2950342893600464;-0.5314527750015259
01:00:0A:00:00:00:00;1724112269;20/08/24;00:04:29;0.983;-0.178;0.004;1.7898350954055786;-0.12828169763088226;-0.1062905490398407
01:00:0A:00:00:00:00;1724112270;20/08/24;00:04:30;0.996;-0.08;0.126;1.5137239694595337;-0.5522221922874451;0.33597588539123535
01:00:0A:00:00:00:00;1724112271;20/08/24;00:04:31;0.866;-0.749;0.127;1.5723670721054077;-0.7342600226402283;-0.10995574295520782
01:00:0A:00:00:00:00;1724112272;20/08/24;00:04:32;0.94;0.094;-0.18;1.281595230102539;0.6890559792518616;0.2565633952617645
01:00:0A:00:00:00:00;1724112273;20/08/24;00:04:33;0.947;-0.061;0.368;1.225395679473877;0.18081611394882202;0.1820378452539444
01:00:0A:00:00:00:00;1724112274;20/08/24;00:04:34;1.013;-0.247;0.094;1.1007791757583618;-0.20525071024894714;0.12828169763088226
01:00:0A:00:00:00:00;1724112275;20/08/24;00:04:35;1.01;-0.178;0.053;1.9950858354568481;0.15882496535778046;0.0354301817715168
01:00:0A:00:00:00:00;1724112276;20/08/24;00:04:36;1.021;0.026;0.008;2.076941967010498;0.07941248267889023;-0.40194931626319885
01:00:0A:00:00:00:00;1724112277;20/08/24;00:04:37;0.884;0.587;0.19;1.9608774185180664;0.6731734871864319;0.513126790523529
01:00:0A:00:00:00:00;1724112278;20/08/24;00:04:38;0.79;-0.343;0.618;2.431243658065796;-0.41294488310813904;1.4453071355819702
01:00:0A:00:00:00:00;1724112279;20/08/24;00:04:39;1.002;-0.445;0.089;2.2149972915649414;-0.6438519358634949;0.3445279896259308
01:00:0A:00:00:00:00;1724112280;20/08/24;00:04:40;0.979;-0.291;0.113;2.4617867469787598;-0.26511549949645996;-0.2919935882091522
01:00:0A:00:00:00:00;1724112281;20/08/24;00:04:41;0.972;0.04;-0.175;2.41413950920105;-0.2480112910270691;-0.3738495111465454
01:00:0A:00:00:00:00;1724112282;20/08/24;00:04:42;1.006;0.069;0.005;2.4715607166290283;0.3640756905078888;-0.4483751058578491
01:00:0A:00:00:00:00;1724112283;20/08/24;00:04:43;0.993;-0.102;-0.175;2.241875410079956;0.2724458873271942;0.19303341209888458
01:00:0A:00:00:00:00;1724112284;20/08/24;00:04:44;1.03;0.087;0.185;2.129476308822632;-0.2528982162475586;-0.47280970215797424
01:00:0A:00:00:00:00;1724112285;20/08/24;00:04:45;0.95;-0.48;0.013;2.2235496044158936;-0.5204571485519409;-0.8796459436416626
01:00:0A:00:00:00:00;1724112286;20/08/24;00:04:46;0.912;-0.292;-0.481;2.5082125663757324;-0.6914994716644287;-0.8820894360542297
01:00:0A:00:00:00:00;1724112287;20/08/24;00:04:47;0.651;0.627;0.254;0.3274237811565399;1.9804250001907349;0.646295428276062
01:00:0A:00:00:00:00;1724112288;20/08/24;00:04:48;0.836;-0.571;-0.386;0.6597344279289246;-1.9608774185180664;0.10873401165008545
01:00:0A:00:00:00:00;1724112289;20/08/24;00:04:49;1.056;-0.252;-0.059;0.5522221922874451;0.06475171446800232;0.051312677562236786
01:00:0A:00:00:00:00;1724112290;20/08/24;00:04:50;0.958;0.459;0.046;-1.301142930984497;-0.6328563690185547;-0.1661553531885147
01:00:0A:00:00:00:00;1724112291;20/08/24;00:04:51;1.02;0.254;-0.02;-0.7037167549133301;0.3481931686401367;-0.02687807008624077
01:00:0A:00:00:00:00;1724112292;20/08/24;00:04:52;1.003;-0.308;-0.111;-0.02687807008624077;0.16371189057826996;-0.5351179242134094
01:00:0A:00:00:00:00;1724112293;20/08/24;00:04:53;1.003;-0.238;-0.237;-0.021991148591041565;-0.1319468915462494;-0.21502456068992615
01:00:0A:00:00:00:00;1724112294;20/08/24;00:04:54;0.991;0.097;0.078;0.42638394236564636;0.3628539443016052;0.6499606370925903
01:00:0A:00:00:00:00;1724112295;20/08/24;00:04:55;0.953;-0.265;-0.153;0.739146888256073;-0.8234463334083557;0.013439035043120384
01:00:0A:00:00:00:00;1724112296;20/08/24;00:04:56;0.956;0.219;0.051;1.1447614431381226;1.0030406713485718;0.18448130786418915
01:00:0A:00:00:00:00;1724112297;20/08/24;00:04:57;1.006;-0.093;0.019;1.0714576244354248;-0.5754350423812866;0.8967502117156982
01:00:0A:00:00:00:00;1724112298;20/08/24;00:04:58;0.997;-0.114;-0.168;1.6285667419433594;0.27122414112091064;-0.3017674386501312
01:00:0A:00:00:00:00;1724112299;20/08/24;00:04:59;1.018;-0.234;0.162;1.8118263483047485;0.3995058536529541;0.2541199326515198
01:00:0A:00:00:00:00;1724112300;20/08/24;00:05:00;1.045;-0.014;0.196;1.7128660678863525;-0.0659734457731247;0.03298672288656235
01:00:0A:00:00:00:00;1724112301;20/08/24;00:05:01;0.998;-0.118;0.158;1.7727309465408325;-0.22846359014511108;0.051312677562236786
01:00:0A:00:00:00:00;1724112302;20/08/24;00:05:02;0.926;-0.047;-0.129;2.2626447677612305;-1.137431025505066;-0.533896267414093
01:00:0A:00:00:00:00;1724112303;20/08/24;00:05:03;0.849;0.333;-0.419;2.4410176277160645;-0.3543018400669098;-1.510058879852295
01:00:0A:00:00:00:00;1724112304;20/08/24;00:05:04;0.653;0.116;-0.778;0.7489207983016968;-0.08185594528913498;-2.5424211025238037
01:00:0A:00:00:00:00;1724112305;20/08/24;00:05:05;0.805;0.659;0.277;1.1679743528366089;1.9743163585662842;0.7831292152404785
01:00:0A:00:00:00:00;1724112306;20/08/24;00:05:06;0.791;-0.438;0.339;1.204626202583313;-1.557706356048584;0.07330382615327835
01:00:0A:00:00:00:00;1724112307;20/08/24;00:05:07;1.015;-0.023;0.154;2.2064452171325684;-0.7122688889503479;0.16249015927314758
01:00:0A:00:00:00:00;1724112308;20/08/24;00:05:08;0.985;-0.198;0.145;2.138028383255005;-0.2626720666885376;0.49846604466438293
01:00:0A:00:00:00:00;1724112309;20/08/24;00:05:09;0.976;-0.143;-0.078;1.93766450881958;-0.41294488310813904;0.09773843735456467
01:00:0A:00:00:00:00;1724112310;20/08/24;00:05:10;0.961;-0.03;-0.037;2.0036380290985107;-0.21380282938480377;-0.39828410744667053
01:00:0A:00:00:00:00;1724112311;20/08/24;00:05:11;0.944;-0.152;0.139;1.9901989698410034;0.6511822938919067;-0.040317103266716
01:00:0A:00:00:00:00;1724112312;20/08/24;00:05:12;0.961;0.11;0.139;1.4062117338180542;-0.5400049090385437;0.5400049090385437
01:00:0A:00:00:00:00;1724112313;20/08/24;00:05:13;1.003;-0.103;0.175;0.9321803450584412;0.15393804013729095;0.4593706727027893
01:00:0A:00:00:00:00;1724112314;20/08/24;00:05:14;0.985;-0.006;0.244;0.9419541358947754;-0.1368338167667389;0.1160643920302391
01:00:0A:00:00:00:00;1724112315;20/08/24;00:05:15;0.983;-0.13;-0.032;0.8026769161224365;-0.32131510972976685;0.35674530267715454
01:00:0A:00:00:00:00;1724112316;20/08/24;00:05:16;0.981;0.048;0.124;0.740368664264679;-0.17837265133857727;-0.40683624148368835
01:00:0A:00:00:00:00;1724112317;20/08/24;00:05:17;0.968;-0.035;-0.06;0.5314527750015259;0.1258382350206375;0.4862487316131592
01:00:0A:00:00:00:00;1724112318;20/08/24;00:05:18;0.982;-0.057;0.139;0.5656611919403076;0.07452555745840073;-0.35674530267715454
01:00:0A:00:00:00:00;1724112319;20/08/24;00:05:19;0.994;0.054;-0.045;0.3933972120285034;0.07452555745840073;0.2028072476387024
01:00:0A:00:00:00:00;1724112320;20/08/24;00:05:20;1.018;-0.077;0.127;0.4605923891067505;0.31154125928878784;-0.11972958594560623
01:00:0A:00:00:00:00;1724112321;20/08/24;00:05:21;0.999;0.1;0.209;0.1820378452539444;-0.3029891550540924;0.12461651116609573
01:00:0A:00:00:00:00;1724112322;20/08/24;00:05:22;1.035;-0.081;-0.02;0.15271630883216858;0.059864792972803116;0.17104226350784302
01:00:0A:00:00:00:00;1724112323;20/08/24;00:05:23;1.018;-0.085;0.217;0.20525071024894714;0.04153883829712868;-0.15271630883216858
01:00:0A:00:00:00:00;1724112324;20/08/24;00:05:24;1.029;0.092;0.133;0.04886921867728233;-0.1270599663257599;0.0036651913542300463
01:00:0A:00:00:00:00;1724112325;20/08/24;00:05:25;1.032;-0.118;0.022;0.10506881773471832;0.1514945775270462;0.08674286305904388
01:00:0A:00:00:00:00;1724112326;20/08/24;00:05:26;1.012;0.047;0.137;0.15882496535778046;0.2565633952617645;-0.1918116807937622
01:00:0A:00:00:00:00;1724112327;20/08/24;00:05:27;1.001;-0.026;-0.032;0.02076941914856434;-0.13561207056045532;0.1918116807937622
01:00:0A:00:00:00:00;1724112328;20/08/24;00:05:28;0.994;-0.129;-0.023;0.17348572611808777;0.11728612333536148;-0.04642575979232788
01:00:0A:00:00:00:00;1724112329;20/08/24;00:05:29;1.009;-0.012;0.106;0.14538592100143433;-0.12217304855585098;-0.039095375686883926
01:00:0A:00:00:00:00;1724112330;20/08/24;00:05:30;0.996;0.003;0.109;0.02932153083384037;-0.05253440886735916;0.1514945775270462
01:00:0A:00:00:00:00;1724112331;20/08/24;00:05:31;0.98;-0.04;0.144;-0.012217304669320583;-0.059864792972803116;0.0659734457731247
01:00:0A:00:00:00:00;1724112332;20/08/24;00:05:32;0.977;-0.084;0.113;0.587652325630188;-0.31154125928878784;0.34697145223617554
01:00:0A:00:00:00:00;1724112333;20/08/24;00:05:33;0.948;-0.134;0.345;1.529606580734253;-0.3885102868080139;-0.27000245451927185
01:00:0A:00:00:00:00;1724112334;20/08/24;00:05:34;1.027;-0.081;-0.112;0.9346237778663635;0.2272418737411499;-0.010995574295520782
01:00:0A:00:00:00:00;1724112335;20/08/24;00:05:35;1.049;0.05;0.198;0.8051203489303589;0.051312677562236786;-0.1514945775270462
01:00:0A:00:00:00:00;1724112336;20/08/24;00:05:36;1.051;-0.093;-0.015;0.6181955933570862;-0.08674286305904388;0.23335053026676178
01:00:0A:00:00:00:00;1724112337;20/08/24;00:05:37;1.026;-0.034;0.14;0.6377432942390442;0.18448130786418915;-0.039095375686883926
01:00:0A:00:00:00:00;1724112338;20/08/24;00:05:38;0.997;-0.047;-0.032;0.5375614166259766;-0.11972958594560623;0.1563815027475357
01:00:0A:00:00:00:00;1724112339;20/08/24;00:05:39;0.983;-0.138;0.081;0.6291911602020264;0.11484266817569733;-0.05619959905743599
01:00:0A:00:00:00:00;1724112340;20/08/24;00:05:40;0.994;-0.065;0.072;0.5412266254425049;-0.1966986060142517;0.06841690838336945
01:00:0A:00:00:00:00;1724112341;20/08/24;00:05:41;0.989;-0.096;0.074;0.5949827432632446;0.1918116807937622;0.05742133408784866
01:00:0A:00:00:00:00;1724112342;20/08/24;00:05:42;1.003;-0.011;0.112;0.5375614166259766;-0.042760565876960754;-0.1673770695924759
01:00:0A:00:00:00:00;1724112343;20/08/24;00:05:43;1.027;-0.054;0.045;0.4202752709388733;0.04642575979232788;-0.01710422709584236
01:00:0A:00:00:00:00;1724112344;20/08/24;00:05:44;1.022;-0.064;0.226;0.26145032048225403;-0.0036651913542300463;0.010995574295520782
01:00:0A:00:00:00:00;1724112345;20/08/24;00:05:45;1.018;-0.042;0.115;0.09285151958465576;-0.1014036238193512;0.14905111491680145
01:00:0A:00:00:00:00;1724112346;20/08/24;00:05:46;0.991;0.016;0.076;0.07452555745840073;0.059864792972803116;0.009773843921720982
01:00:0A:00:00:00:00;1724112347;20/08/24;00:05:47;0.961;0.082;0.071;-0.018325956538319588;0.021991148591041565;0.08796459436416626
01:00:0A:00:00:00:00;1724112348;20/08/24;00:05:48;0.98;-0.011;0.057;-0.09896016865968704;0.00855211354792118;0.09407324343919754
01:00:0A:00:00:00:00;1724112349;20/08/24;00:05:49;1.031;-0.081;0.09;-0.07330382615327835;-0.07330382615327835;-0.27488934993743896
01:00:0A:00:00:00:00;1724112350;20/08/24;00:05:50;1.061;0.072;0.122;-0.25045475363731384;-0.15882496535778046;0.1319468915462494
01:00:0A:00:00:00:00;1724112351;20/08/24;00:05:51;1.063;-0.28;0.027;-0.2076941877603531;-0.02321287989616394;0.03787364438176155
01:00:0A:00:00:00:00;1724112352;20/08/24;00:05:52;1.016;0.255;0.272;-0.25534167885780334;0.10018189996480942;-0.21135938167572021
01:00:0A:00:00:00:00;1724112353;20/08/24;00:05:53;0.978;-0.31;-0.109;-0.3640756905078888;-0.3689626157283783;0.6426302194595337
01:00:0A:00:00:00:00;1724112354;20/08/24;00:05:54;0.969;0.086;0.18;-0.01710422709584236;0.6304128766059875;-0.5815436840057373
01:00:0A:00:00:00:00;1724112355;20/08/24;00:05:55;0.975;-0.061;0.022;-0.3640756905078888;-0.38728854060173035;0.48380526900291443
01:00:0A:00:00:00:00;1724112356;20/08/24;00:05:56;0.949;-0.035;-0.001;-0.08918632566928864;0.40683624148368835;-0.322536826133728
01:00:0A:00:00:00:00;1724112357;20/08/24;00:05:57;0.968;0.025;0.094;-0.2626720666885376;-0.29565879702568054;0.11239919811487198
01:00:0A:00:00:00:00;1724112358;20/08/24;00:05:58;1.018;-0.076;-0.048;-0.1417207270860672;0.07208210229873657;-0.14905111491680145
01:00:0A:00:00:00:00;1724112359;20/08/24;00:05:59;1.038;0.005;0.101;-0.13439035415649414;-0.08918632566928864;-0.03787364438176155
01:00:0A:00:00:00:00;1724112360;20/08/24;00:06:00;1.046;-0.055;0.035;-0.1368338167667389;-0.10384709388017654;0.02687807008624077
01:00:0A:00:00:00:00;1724112361;20/08/24;00:06:01;1.034;-0.052;0.069;-0.06352998316287994;0.018325956538319588;-0.02076941914856434
01:00:0A:00:00:00:00;1724112362;20/08/24;00:06:02;1.02;-0.03;0.113;-0.07330382615327835;0.014660765416920185;0.013439035043120384
01:00:0A:00:00:00:00;1724112363;20/08/24;00:06:03;1.018;-0.054;0.048;-0.08429940044879913;-0.014660765416920185;0.05619959905743599
01:00:0A:00:00:00:00;1724112364;20/08/24;00:06:04;1.023;-0.059;0.045;-0.03176499158143997;0.08552113175392151;0.04153883829712868
01:00:0A:00:00:00:00;1724112365;20/08/24;00:06:05;1.014;-0.016;0.068;-0.05009094998240471;-0.009773843921720982;0.06230825558304787
01:00:0A:00:00:00:00;1724112366;20/08/24;00:06:06;1.0;-0.02;0.044;-0.07452555745840073;-0.09162978082895279;0.09896016865968704
01:00:0A:00:00:00:00;1724112367;20/08/24;00:06:07;0.978;0.0;0.072;-0.0354301817715168;0.013439035043120384;-0.00855211354792118
01:00:0A:00:00:00:00;1724112368;20/08/24;00:06:08;0.973;0.012;0.097;-0.06230825558304787;-0.06108652427792549;0.0024434609804302454
01:00:0A:00:00:00:00;1724112369;20/08/24;00:06:09;0.998;-0.013;0.07;-0.05497787147760391;-0.0024434609804302454;-0.042760565876960754
01:00:0A:00:00:00:00;1724112370;20/08/24;00:06:10;1.011;-0.025;0.086;-0.04642575979232788;0.02932153083384037;-0.0757472887635231
01:00:0A:00:00:00:00;1724112371;20/08/24;00:06:11;1.038;-0.021;0.088;-0.07819075137376785;-0.03787364438176155;-0.004886921960860491
01:00:0A:00:00:00:00;1724112372;20/08/24;00:06:12;1.059;-0.048;0.04;-0.06719517707824707;0.0012217304902151227;0.03298672288656235
01:00:0A:00:00:00:00;1724112373;20/08/24;00:06:13;1.056;-0.017;0.098;-0.059864792972803116;0.030543262138962746;0.019547687843441963
01:00:0A:00:00:00:00;1724112374;20/08/24;00:06:14;1.035;-0.019;0.04;-0.06475171446800232;-0.04642575979232788;0.009773843921720982
01:00:0A:00:00:00:00;1724112375;20/08/24;00:06:15;1.009;-0.047;0.056;-0.024434609338641167;0.05009094998240471;0.02321287989616394
01:00:0A:00:00:00:00;1724112376;20/08/24;00:06:16;0.976;-0.035;0.058;-0.02321287989616394;-0.07452555745840073;-0.030543262138962746
01:00:0A:00:00:00:00;1724112377;20/08/24;00:06:17;0.987;-0.034;0.047;-0.024434609338641167;-0.06230825558304787;0.04886921867728233
01:00:0A:00:00:00:00;1724112378;20/08/24;00:06:18;1.013;-0.037;0.079;-0.0073303827084600925;-0.024434609338641167;0.024434609338641167
01:00:0A:00:00:00:00;1724112379;20/08/24;00:06:19;1.02;-0.011;0.081;-0.010995574295520782;-0.03420845419168472;-0.0073303827084600925
01:00:0A:00:00:00:00;1724112380;20/08/24;00:06:20;1.006;0.003;0.059;-0.02076941914856434;-0.028099799528717995;0.0024434609804302454
01:00:0A:00:00:00:00;1724112381;20/08/24;00:06:21;0.987;-0.025;0.08;-0.021991148591041565;0.0;-0.006108652334660292
01:00:0A:00:00:00:00;1724112382;20/08/24;00:06:22;0.995;-0.028;0.089;-0.030543262138962746;-0.08429940044879913;-0.1111774742603302
01:00:0A:00:00:00:00;1724112383;20/08/24;00:06:23;1.042;-0.011;0.075;-0.04642575979232788;0.03298672288656235;0.036651913076639175
01:00:0A:00:00:00:00;1724112384;20/08/24;00:06:24;1.062;-0.074;0.102;-0.04153883829712868;0.05497787147760391;0.03176499158143997
01:00:0A:00:00:00:00;1724112385;20/08/24;00:06:25;1.055;0.034;0.036;-0.042760565876960754;0.05009094998240471;0.0073303827084600925
01:00:0A:00:00:00:00;1724112386;20/08/24;00:06:26;1.024;-0.035;0.044;-0.05864306166768074;0.05742133408784866;0.11239919811487198
01:00:0A:00:00:00:00;1724112387;20/08/24;00:06:27;0.97;0.008;0.027;-0.045204028487205505;-0.10018189996480942;-0.11239919811487198
01:00:0A:00:00:00:00;1724112388;20/08/24;00:06:28;0.97;-0.003;0.039;-0.06108652427792549;-0.06963863223791122;0.02687807008624077
01:00:0A:00:00:00:00;1724112389;20/08/24;00:06:29;1.009;-0.047;0.081;-0.042760565876960754;-0.10751228034496307;-0.10018189996480942
01:00:0A:00:00:00:00;1724112390;20/08/24;00:06:30;1.05;-0.01;0.075;-0.04153883829712868;-0.018325956538319588;0.0012217304902151227
01:00:0A:00:00:00:00;1724112391;20/08/24;00:06:31;1.048;-0.057;0.09;-0.0354301817715168;0.02687807008624077;0.05375614017248154
01:00:0A:00:00:00:00;1724112392;20/08/24;00:06:32;1.01;-0.015;0.081;-0.021991148591041565;0.02687807008624077;-0.0073303827084600925
01:00:0A:00:00:00:00;1724112393;20/08/24;00:06:33;0.988;-0.015;0.07;-0.021991148591041565;0.02076941914856434;0.015882495790719986
01:00:0A:00:00:00:00;1724112394;20/08/24;00:06:34;0.985;-0.04;0.063;-0.013439035043120384;0.040317103266716;0.0024434609804302454
01:00:0A:00:00:00:00;1724112395;20/08/24;00:06:35;0.999;-0.032;0.062;-0.019547687843441963;-0.010995574295520782;-0.018325956538319588
01:00:0A:00:00:00:00;1724112396;20/08/24;00:06:36;1.022;-0.024;0.042;-0.025656338781118393;-0.042760565876960754;0.00855211354792118
01:00:0A:00:00:00:00;1724112397;20/08/24;00:06:37;1.023;-0.032;0.058;-0.018325956538319588;-0.05497787147760391;-0.010995574295520782
01:00:0A:00:00:00:00;1724112398;20/08/24;00:06:38;1.023;-0.02;0.076;-0.02076941914856434;-0.08552113175392151;-0.030543262138962746
01:00:0A:00:00:00:00;1724112399;20/08/24;00:06:39;1.022;-0.028;0.072;-0.015882495790719986;-0.06230825558304787;-0.013439035043120384
01:00:0A:00:00:00:00;1724112400;20/08/24;00:06:40;1.026;-0.047;0.094;-0.0012217304902151227;-0.004886921960860491;0.006108652334660292
01:00:0A:00:00:00:00;1724112401;20/08/24;00:06:41;1.023;-0.03;0.095;-0.0036651913542300463;0.010995574295520782;0.04642575979232788
01:00:0A:00:00:00:00;1724112402;20/08/24;00:06:42;1.02;-0.023;0.061;0.006108652334660292;0.02932153083384037;0.06352998316287994
01:00:0A:00:00:00:00;1724112403;20/08/24;00:06:43;1.016;-0.009;0.064;0.021991148591041565;0.04886921867728233;0.01710422709584236
01:00:0A:00:00:00:00;1724112404;20/08/24;00:06:44;1.017;-0.007;0.058;0.014660765416920185;-0.04764748737215996;-0.03298672288656235
01:00:0A:00:00:00:00;1724112405;20/08/24;00:06:45;1.018;-0.042;0.068;0.02321287989616394;-0.04153883829712868;-0.045204028487205505
01:00:0A:00:00:00:00;1724112406;20/08/24;00:06:46;1.012;-0.065;0.112;0.030543262138962746;0.009773843921720982;-0.00855211354792118
01:00:0A:00:00:00:00;1724112407;20/08/24;00:06:47;0.994;-0.052;0.108;0.010995574295520782;0.02932153083384037;0.06475171446800232
01:00:0A:00:00:00:00;1724112408;20/08/24;00:06:48;0.996;-0.027;0.053;0.015882495790719986;0.06841690838336945;0.06719517707824707
01:00:0A:00:00:00:00;1724112409;20/08/24;00:06:49;1.006;-0.01;0.044;0.02076941914856434;0.05742133408784866;-0.0012217304902151227
01:00:0A:00:00:00:00;1724112410;20/08/24;00:06:50;1.023;0.002;0.039;-0.004886921960860491;-0.09529497474431992;-0.03420845419168472
01:00:0A:00:00:00:00;1724112411;20/08/24;00:06:51;1.024;-0.028;0.043;-0.006108652334660292;-0.11728612333536148;-0.059864792972803116
01:00:0A:00:00:00:00;1724112412;20/08/24;00:06:52;1.016;-0.043;0.101;-0.0012217304902151227;-0.08674286305904388;-0.05009094998240471
01:00:0A:00:00:00:00;1724112413;20/08/24;00:06:53;1.01;-0.046;0.11;-0.012217304669320583;-0.045204028487205505;0.02687807008624077
01:00:0A:00:00:00:00;1724112414;20/08/24;00:06:54;1.03;-0.056;0.091;0.012217304669320583;0.06108652427792549;0.0659734457731247
01:00:0A:00:00:00:00;1724112415;20/08/24;00:06:55;1.049;-0.026;0.091;0.03298672288656235;0.09529497474431992;0.04642575979232788
01:00:0A:00:00:00:00;1724112416;20/08/24;00:06:56;1.048;0.0;0.037;0.036651913076639175;0.04398229718208313;0.030543262138962746
01:00:0A:00:00:00:00;1724112417;20/08/24;00:06:57;0.999;-0.027;0.027;0.05742133408784866;-0.013439035043120384;-0.0073303827084600925
01:00:0A:00:00:00:00;1724112418;20/08/24;00:06:58;0.963;-0.028;0.043;0.07452555745840073;-0.039095375686883926;-0.05742133408784866
01:00:0A:00:00:00:00;1724112419;20/08/24;00:06:59;0.965;-0.047;0.062;0.0659734457731247;-0.05742133408784866;0.028099799528717995
01:00:0A:00:00:00:00;1724112420;20/08/24;00:07:00;1.004;-0.058;0.077;0.09773843735456467;-0.045204028487205505;-0.05375614017248154
01:00:0A:00:00:00:00;1724112421;20/08/24;00:07:01;1.063;-0.006;0.071;0.07452555745840073;-0.006108652334660292;0.1062905490398407
01:00:0A:00:00:00:00;1724112422;20/08/24;00:07:02;1.07;-0.079;0.081;0.08918632566928864;0.013439035043120384;0.025656338781118393
01:00:0A:00:00:00:00;1724112423;20/08/24;00:07:03;1.034;0.049;0.047;0.08552113175392151;-0.012217304669320583;-0.08429940044879913
01:00:0A:00:00:00:00;1724112424;20/08/24;00:07:04;0.967;-0.055;0.068;0.05619959905743599;0.040317103266716;0.14782939851284027
01:00:0A:00:00:00:00;1724112425;20/08/24;00:07:05;0.956;-0.01;0.064;0.09896016865968704;-0.08918632566928864;-0.24678954482078552
01:00:0A:00:00:00:00;1724112426;20/08/24;00:07:06;1.011;0.021;0.052;0.03176499158143997;0.06230825558304787;0.17837265133857727
01:00:0A:00:00:00:00;1724112427;20/08/24;00:07:07;1.033;-0.171;0.107;0.09896016865968704;-0.05742133408784866;-0.2272418737411499
01:00:0A:00:00:00:00;1724112428;20/08/24;00:07:08;1.06;0.122;0.037;0.0757472887635231;-0.018325956538319588;0.024434609338641167
01:00:0A:00:00:00:00;1724112429;20/08/24;00:07:09;1.039;-0.188;0.125;0.05253440886735916;0.08552113175392151;0.3066543638706207
01:00:0A:00:00:00:00;1724112430;20/08/24;00:07:10;0.982;0.102;0.031;0.10873401165008545;-0.10995574295520782;-0.3494149148464203
01:00:0A:00:00:00:00;1724112431;20/08/24;00:07:11;0.943;-0.059;0.088;0.01710422709584236;0.2015855312347412;0.485027015209198
01:00:0A:00:00:00:00;1724112432;20/08/24;00:07:12;0.952;-0.03;0.07;0.12217304855585098;-0.21991148591041565;-0.5803219676017761
01:00:0A:00:00:00:00;1724112433;20/08/24;00:07:13;1.004;0.122;-0.019;0.013439035043120384;0.18325956165790558;0.4642575681209564
01:00:0A:00:00:00:00;1724112434;20/08/24;00:07:14;1.0;-0.26;0.154;0.10262535512447357;-0.24068090319633484;-0.4495967924594879
01:00:0A:00:00:00:00;1724112435;20/08/24;00:07:15;1.044;0.215;-0.064;0.06108652427792549;-0.07819075137376785;0.06230825558304787
01:00:0A:00:00:00:00;1724112436;20/08/24;00:07:16;1.038;-0.254;0.192;0.06719517707824707;0.06963863223791122;0.22479839622974396
01:00:0A:00:00:00:00;1724112437;20/08/24;00:07:17;1.03;0.095;0.035;0.10262535512447357;-0.1417207270860672;-0.2638937830924988
01:00:0A:00:00:00:00;1724112438;20/08/24;00:07:18;0.993;-0.043;0.074;0.07696902006864548;0.18570303916931152;0.29688048362731934
01:00:0A:00:00:00:00;1724112439;20/08/24;00:07:19;0.957;-0.024;0.077;0.11728612333536148;-0.06475171446800232;-0.23335053026676178
01:00:0A:00:00:00:00;1724112440;20/08/24;00:07:20;0.979;0.017;0.015;0.06475171446800232;0.010995574295520782;0.1062905490398407
01:00:0A:00:00:00:00;1724112441;20/08/24;00:07:21;1.035;-0.092;0.057;0.10751228034496307;-0.019547687843441963;-0.080634206533432
01:00:0A:00:00:00:00;1724112442;20/08/24;00:07:22;1.056;0.012;0.094;0.05619959905743599;-0.12950342893600464;0.021991148591041565
01:00:0A:00:00:00:00;1724112443;20/08/24;00:07:23;1.056;-0.064;0.038;0.06719517707824707;-0.03298672288656235;0.10995574295520782
01:00:0A:00:00:00:00;1724112444;20/08/24;00:07:24;1.005;-0.002;0.132;0.10873401165008545;0.15515977144241333;-0.045204028487205505
01:00:0A:00:00:00:00;1724112445;20/08/24;00:07:25;0.976;-0.021;0.051;0.040317103266716;-0.09896016865968704;0.06719517707824707
01:00:0A:00:00:00:00;1724112446;20/08/24;00:07:26;0.966;-0.04;0.04;0.11972958594560623;0.1319468915462494;-0.09651670604944229
01:00:0A:00:00:00:00;1724112447;20/08/24;00:07:27;0.992;-0.021;0.074;0.04886921867728233;-0.1270599663257599;0.024434609338641167
01:00:0A:00:00:00:00;1724112448;20/08/24;00:07:28;1.041;-0.056;0.011;0.08307767659425735;0.006108652334660292;0.03176499158143997
01:00:0A:00:00:00:00;1724112449;20/08/24;00:07:29;1.05;-0.02;0.109;0.08185594528913498;-0.05742133408784866;0.018325956538319588
01:00:0A:00:00:00:00;1724112450;20/08/24;00:07:30;1.047;-0.011;0.058;0.06475171446800232;-0.07452555745840073;0.03176499158143997
01:00:0A:00:00:00:00;1724112451;20/08/24;00:07:31;1.021;-0.025;0.084;0.10018189996480942;0.042760565876960754;-0.004886921960860491
01:00:0A:00:00:00:00;1724112452;20/08/24;00:07:32;0.983;-0.027;0.086;0.08918632566928864;0.006108652334660292;-0.0659734457731247
01:00:0A:00:00:00:00;1724112453;20/08/24;00:07:33;0.985;-0.062;0.065;0.06963863223791122;-0.024434609338641167;0.02076941914856434
01:00:0A:00:00:00:00;1724112454;20/08/24;00:07:34;1.002;-0.073;0.079;0.09285151958465576;0.039095375686883926;0.0012217304902151227
01:00:0A:00:00:00:00;1724112455;20/08/24;00:07:35;1.024;-0.029;0.094;0.06475171446800232;0.004886921960860491;0.07819075137376785
01:00:0A:00:00:00:00;1724112456;20/08/24;00:07:36;1.029;-0.031;0.046;0.06230825558304787;-0.0036651913542300463;0.06841690838336945
01:00:0A:00:00:00:00;1724112457;20/08/24;00:07:37;1.028;-0.017;0.05;0.08429940044879913;-0.015882495790719986;-0.036651913076639175
01:00:0A:00:00:00:00;1724112458;20/08/24;00:07:38;1.024;-0.01;0.061;0.06230825558304787;-0.07452555745840073;-0.045204028487205505
01:00:0A:00:00:00:00;1724112459;20/08/24;00:07:39;1.018;-0.06;0.074;0.05253440886735916;-0.08918632566928864;-0.004886921960860491
01:00:0A:00:00:00:00;1724112460;20/08/24;00:07:40;1.016;-0.055;0.101;0.0659734457731247;-0.0354301817715168;-0.02321287989616394
01:00:0A:00:00:00:00;1724112461;20/08/24;00:07:41;1.007;-0.03;0.117;0.04642575979232788;0.03176499158143997;0.06719517707824707
01:00:0A:00:00:00:00;1724112462;20/08/24;00:07:42;1.003;-0.011;0.073;0.042760565876960754;0.06841690838336945;0.05619959905743599
01:00:0A:00:00:00:00;1724112463;20/08/24;00:07:43;1.003;0.003;0.048;0.059864792972803116;0.06230825558304787;-0.036651913076639175
01:00:0A:00:00:00:00;1724112464;20/08/24;00:07:44;1.018;-0.011;0.052;0.04153883829712868;-0.030543262138962746;-0.045204028487205505
01:00:0A:00:00:00:00;1724112465;20/08/24;00:07:45;1.027;-0.053;0.055;0.030543262138962746;-0.05742133408784866;-0.030543262138962746
01:00:0A:00:00:00:00;1724112466;20/08/24;00:07:46;1.026;-0.049;0.075;0.02932153083384037;-0.05619959905743599;0.004886921960860491
01:00:0A:00:00:00:00;1724112467;20/08/24;00:07:47;1.014;-0.041;0.098;0.014660765416920185;-0.006108652334660292;0.06352998316287994
01:00:0A:00:00:00:00;1724112468;20/08/24;00:07:48;0.994;-0.034;0.08;0.0036651913542300463;0.012217304669320583;0.08918632566928864
01:00:0A:00:00:00:00;1724112469;20/08/24;00:07:49;0.989;-0.01;0.065;0.018325956538319588;0.01710422709584236;0.015882495790719986
01:00:0A:00:00:00:00;1724112470;20/08/24;00:07:50;1.016;0.003;0.067;0.009773843921720982;-0.045204028487205505;-0.03298672288656235
01:00:0A:00:00:00:00;1724112471;20/08/24;00:07:51;1.047;-0.04;0.075;0.009773843921720982;-0.04642575979232788;-0.04642575979232788
01:00:0A:00:00:00:00;1724112472;20/08/24;00:07:52;1.054;-0.042;0.081;0.02076941914856434;-0.004886921960860491;-0.025656338781118393
01:00:0A:00:00:00:00;1724112473;20/08/24;00:07:53;1.026;-0.044;0.089;0.013439035043120384;0.036651913076639175;0.05009094998240471
01:00:0A:00:00:00:00;1724112474;20/08/24;00:07:54;0.997;-0.04;0.069;0.009773843921720982;0.019547687843441963;0.07330382615327835
01:00:0A:00:00:00:00;1724112475;20/08/24;00:07:55;0.965;-0.016;0.055;0.02932153083384037;0.03298672288656235;0.0036651913542300463
01:00:0A:00:00:00:00;1724112476;20/08/24;00:07:56;0.972;-0.006;0.054;0.014660765416920185;-0.042760565876960754;-0.0036651913542300463
01:00:0A:00:00:00:00;1724112477;20/08/24;00:07:57;1.016;-0.022;0.048;0.024434609338641167;-0.039095375686883926;-0.039095375686883926
01:00:0A:00:00:00:00;1724112478;20/08/24;00:07:58;1.037;-0.029;0.072;0.025656338781118393;-0.03298672288656235;-0.02076941914856434
01:00:0A:00:00:00:00;1724112479;20/08/24;00:07:59;1.057;-0.033;0.08;0.01710422709584236;-0.02932153083384037;0.006108652334660292
01:00:0A:00:00:00:00;1724112480;20/08/24;00:08:00;1.04;-0.036;0.075;0.015882495790719986;0.006108652334660292;0.05497787147760391
01:00:0A:00:00:00:00;1724112481;20/08/24;00:08:01;1.015;-0.017;0.081;0.018325956538319588;0.02687807008624077;0.04153883829712868
01:00:0A:00:00:00:00;1724112482;20/08/24;00:08:02;0.987;-0.001;0.07;0.00855211354792118;-0.015882495790719986;0.0036651913542300463
01:00:0A:00:00:00:00;1724112483;20/08/24;00:08:03;0.99;-0.008;0.069;0.006108652334660292;-0.019547687843441963;-0.02687807008624077
01:00:0A:00:00:00:00;1724112484;20/08/24;00:08:04;1.002;-0.02;0.075;0.006108652334660292;-0.009773843921720982;-0.036651913076639175
01:00:0A:00:00:00:00;1724112485;20/08/24;00:08:05;1.01;-0.028;0.084;-0.006108652334660292;-0.015882495790719986;-0.03298672288656235
01:00:0A:00:00:00:00;1724112486;20/08/24;00:08:06;1.017;-0.041;0.067;-0.009773843921720982;0.0;-0.019547687843441963
01:00:0A:00:00:00:00;1724112487;20/08/24;00:08:07;1.02;-0.039;0.059;-0.012217304669320583;-0.010995574295520782;0.009773843921720982
01:00:0A:00:00:00:00;1724112488;20/08/24;00:08:08;1.022;-0.032;0.067;-0.021991148591041565;-0.04153883829712868;0.015882495790719986
01:00:0A:00:00:00:00;1724112489;20/08/24;00:08:09;1.028;-0.032;0.069;-0.024434609338641167;-0.05009094998240471;0.02687807008624077
01:00:0A:00:00:00:00;1724112490;20/08/24;00:08:10;1.027;-0.03;0.08;-0.018325956538319588;-0.019547687843441963;0.03298672288656235
01:00:0A:00:00:00:00;1724112491;20/08/24;00:08:11;1.016;-0.016;0.093;-0.02076941914856434;0.0012217304902151227;0.013439035043120384
01:00:0A:00:00:00:00;1724112492;20/08/24;00:08:12;1.009;-0.019;0.077;-0.021991148591041565;-0.0012217304902151227;0.0024434609804302454
01:00:0A:00:00:00:00;1724112493;20/08/24;00:08:13;1.0;-0.027;0.068;-0.006108652334660292;0.03298672288656235;-0.03420845419168472
01:00:0A:00:00:00:00;1724112494;20/08/24;00:08:14;1.0;-0.029;0.071;-0.015882495790719986;-0.009773843921720982;-0.030543262138962746
01:00:0A:00:00:00:00;1724112495;20/08/24;00:08:15;1.015;-0.041;0.059;-0.021991148591041565;-0.021991148591041565;-0.00855211354792118
01:00:0A:00:00:00:00;1724112496;20/08/24;00:08:16;1.026;-0.047;0.067;-0.01710422709584236;-0.009773843921720982;0.006108652334660292
01:00:0A:00:00:00:00;1724112497;20/08/24;00:08:17;1.032;-0.03;0.085;-0.028099799528717995;-0.00855211354792118;0.03298672288656235
01:00:0A:00:00:00:00;1724112498;20/08/24;00:08:18;1.019;-0.026;0.068;-0.0354301817715168;-0.025656338781118393;0.04398229718208313
01:00:0A:00:00:00:00;1724112499;20/08/24;00:08:19;1.007;-0.02;0.079;-0.019547687843441963;0.012217304669320583;0.0073303827084600925
01:00:0A:00:00:00:00;1724112500;20/08/24;00:08:20;0.995;-0.017;0.084;-0.03298672288656235;-0.024434609338641167;-0.018325956538319588
01:00:0A:00:00:00:00;1724112501;20/08/24;00:08:21;0.998;-0.027;0.064;-0.040317103266716;-0.045204028487205505;-0.019547687843441963
01:00:0A:00:00:00:00;1724112502;20/08/24;00:08:22;1.019;-0.039;0.073;-0.021991148591041565;0.01710422709584236;-0.028099799528717995
01:00:0A:00:00:00:00;1724112503;20/08/24;00:08:23;1.033;-0.033;0.094;-0.040317103266716;-0.014660765416920185;0.0
01:00:0A:00:00:00:00;1724112504;20/08/24;00:08:24;1.041;-0.036;0.056;-0.042760565876960754;-0.015882495790719986;0.015882495790719986
01:00:0A:00:00:00:00;1724112505;20/08/24;00:08:25;1.024;-0.031;0.073;-0.025656338781118393;0.03176499158143997;0.012217304669320583
01:00:0A:00:00:00:00;1724112506;20/08/24;00:08:26;0.995;-0.023;0.067;-0.03787364438176155;-0.02687807008624077;0.0012217304902151227
01:00:0A:00:00:00:00;1724112507;20/08/24;00:08:27;0.986;-0.026;0.056;-0.042760565876960754;-0.06108652427792549;0.006108652334660292
01:00:0A:00:00:00:00;1724112508;20/08/24;00:08:28;1.002;-0.028;0.067;-0.02076941914856434;-0.010995574295520782;-0.010995574295520782
01:00:0A:00:00:00:00;1724112509;20/08/24;00:08:29;1.033;-0.031;0.103;-0.03298672288656235;-0.0354301817715168;-0.014660765416920185
01:00:0A:00:00:00:00;1724112510;20/08/24;00:08:30;1.043;-0.037;0.066;-0.025656338781118393;-0.004886921960860491;0.00855211354792118
01:00:0A:00:00:00:00;1724112511;20/08/24;00:08:31;1.029;-0.034;0.078;-0.00855211354792118;0.05864306166768074;0.02321287989616394
01:00:0A:00:00:00:00;1724112512;20/08/24;00:08:32;1.01;-0.026;0.07;-0.02321287989616394;0.010995574295520782;0.02687807008624077
01:00:0A:00:00:00:00;1724112513;20/08/24;00:08:33;0.99;-0.022;0.034;-0.02321287989616394;-0.042760565876960754;0.012217304669320583
01:00:0A:00:00:00:00;1724112514;20/08/24;00:08:34;0.992;-0.017;0.052;-0.0036651913542300463;0.0024434609804302454;-0.0012217304902151227
01:00:0A:00:00:00:00;1724112515;20/08/24;00:08:35;1.015;-0.024;0.084;-0.019547687843441963;-0.08307767659425735;-0.03787364438176155
01:00:0A:00:00:00:00;1724112516;20/08/24;00:08:36;1.033;-0.042;0.067;-0.013439035043120384;-0.03420845419168472;-0.0073303827084600925
01:00:0A:00:00:00:00;1724112517;20/08/24;00:08:37;1.031;-0.041;0.087;0.0;0.02687807008624077;0.015882495790719986
01:00:0A:00:00:00:00;1724112518;20/08/24;00:08:38;1.021;-0.037;0.088;-0.013439035043120384;0.010995574295520782;0.030543262138962746
01:00:0A:00:00:00:00;1724112519;20/08/24;00:08:39;1.017;-0.029;0.055;-0.014660765416920185;0.0036651913542300463;0.03420845419168472
01:00:0A:00:00:00:00;1724112520;20/08/24;00:08:40;1.014;-0.014;0.063;0.0;0.040317103266716;0.019547687843441963
01:00:0A:00:00:00:00;1724112521;20/08/24;00:08:41;1.016;-0.019;0.074;-0.014660765416920185;-0.010995574295520782;0.0012217304902151227
01:00:0A:00:00:00:00;1724112522;20/08/24;00:08:42;1.009;-0.027;0.041;-0.009773843921720982;-0.04764748737215996;-0.02321287989616394
01:00:0A:00:00:00:00;1724112523;20/08/24;00:08:43;1.003;-0.027;0.065;0.0036651913542300463;-0.0024434609804302454;-0.006108652334660292
01:00:0A:00:00:00:00;1724112524;20/08/24;00:08:44;1.002;-0.036;0.083;-0.014660765416920185;-0.06841690838336945;0.004886921960860491
01:00:0A:00:00:00:00;1724112525;20/08/24;00:08:45;1.017;-0.03;0.066;-0.0036651913542300463;-0.039095375686883926;-0.0036651913542300463
01:00:0A:00:00:00:00;1724112526;20/08/24;00:08:46;1.023;-0.024;0.089;0.012217304669320583;0.014660765416920185;0.0
01:00:0A:00:00:00:00;1724112527;20/08/24;00:08:47;1.026;-0.034;0.095;0.0024434609804302454;0.02076941914856434;0.00855211354792118
01:00:0A:00:00:00:00;1724112528;20/08/24;00:08:48;1.022;-0.033;0.054;0.012217304669320583;0.019547687843441963;-0.004886921960860491
01:00:0A:00:00:00:00;1724112529;20/08/24;00:08:49;1.01;-0.031;0.059;0.02076941914856434;0.039095375686883926;0.013439035043120384
01:00:0A:00:00:00:00;1724112530;20/08/24;00:08:50;1.008;-0.036;0.062;0.0012217304902151227;-0.03787364438176155;0.02321287989616394
01:00:0A:00:00:00:00;1724112531;20/08/24;00:08:51;1.016;-0.027;0.043;0.010995574295520782;-0.045204028487205505;0.013439035043120384
01:00:0A:00:00:00:00;1724112532;20/08/24;00:08:52;1.023;-0.02;0.076;0.01710422709584236;-0.018325956538319588;0.018325956538319588
01:00:0A:00:00:00:00;1724112533;20/08/24;00:08:53;1.024;-0.03;0.088;0.004886921960860491;-0.04764748737215996;0.009773843921720982
01:00:0A:00:00:00:00;1724112534;20/08/24;00:08:54;1.014;-0.03;0.064;0.015882495790719986;-0.010995574295520782;0.0012217304902151227
01:00:0A:00:00:00:00;1724112535;20/08/24;00:08:55;1.005;-0.034;0.085;0.024434609338641167;0.04886921867728233;0.015882495790719986
01:00:0A:00:00:00:00;1724112536;20/08/24;00:08:56;0.997;-0.039;0.076;0.0073303827084600925;-0.025656338781118393;0.010995574295520782
01:00:0A:00:00:00:00;1724112537;20/08/24;00:08:57;0.999;-0.033;0.053;0.02076941914856434;-0.0012217304902151227;-0.0036651913542300463
01:00:0A:00:00:00:00;1724112538;20/08/24;00:08:58;1.014;-0.029;0.073;0.02321287989616394;0.0024434609804302454;0.006108652334660292
01:00:0A:00:00:00:00;1724112539;20/08/24;00:08:59;1.023;-0.04;0.08;0.00855211354792118;-0.06352998316287994;-0.012217304669320583
01:00:0A:00:00:00:00;1724112540;20/08/24;00:09:00;1.039;-0.032;0.057;0.019547687843441963;-0.015882495790719986;0.0024434609804302454
01:00:0A:00:00:00:00;1724112541;20/08/24;00:09:01;1.04;-0.031;0.087;0.024434609338641167;0.028099799528717995;0.014660765416920185
01:00:0A:00:00:00:00;1724112542;20/08/24;00:09:02;1.021;-0.038;0.07;0.010995574295520782;-0.018325956538319588;0.025656338781118393
01:00:0A:00:00:00:00;1724112543;20/08/24;00:09:03;0.995;-0.023;0.05;0.02321287989616394;-0.012217304669320583;-0.006108652334660292
01:00:0A:00:00:00:00;1724112544;20/08/24;00:09:04;0.984;-0.03;0.068;0.02687807008624077;0.004886921960860491;0.00855211354792118
01:00:0A:00:00:00:00;1724112545;20/08/24;00:09:05;0.994;-0.035;0.072;0.013439035043120384;-0.080634206533432;-0.013439035043120384
01:00:0A:00:00:00:00;1724112546;20/08/24;00:09:06;1.011;-0.025;0.059;0.03298672288656235;-0.00855211354792118;-0.014660765416920185
01:00:0A:00:00:00:00;1724112547;20/08/24;00:09:07;1.032;-0.028;0.097;0.02932153083384037;0.0024434609804302454;0.0036651913542300463
01:00:0A:00:00:00:00;1724112548;20/08/24;00:09:08;1.036;-0.039;0.081;0.021991148591041565;-0.019547687843441963;-0.0012217304902151227
01:00:0A:00:00:00:00;1724112549;20/08/24;00:09:09;1.026;-0.029;0.056;0.03787364438176155;0.010995574295520782;-0.004886921960860491
01:00:0A:00:00:00:00;1724112550;20/08/24;00:09:10;1.016;-0.034;0.083;0.0354301817715168;0.02687807008624077;0.006108652334660292
01:00:0A:00:00:00:00;1724112551;20/08/24;00:09:11;1.009;-0.038;0.06;0.021991148591041565;-0.0354301817715168;0.0036651913542300463
01:00:0A:00:00:00:00;1724112552;20/08/24;00:09:12;1.016;-0.027;0.047;0.03420845419168472;-0.00855211354792118;0.015882495790719986
01:00:0A:00:00:00:00;1724112553;20/08/24;00:09:13;1.019;-0.024;0.082;0.024434609338641167;-0.012217304669320583;0.03420845419168472
01:00:0A:00:00:00:00;1724112554;20/08/24;00:09:14;1.014;-0.021;0.07;0.012217304669320583;-0.05742133408784866;0.006108652334660292
01:00:0A:00:00:00:00;1724112555;20/08/24;00:09:15;1.003;-0.013;0.07;0.024434609338641167;-0.0012217304902151227;-0.009773843921720982
01:00:0A:00:00:00:00;1724112556;20/08/24;00:09:16;0.989;-0.026;0.093;0.013439035043120384;-0.0024434609804302454;-0.010995574295520782
01:00:0A:00:00:00:00;1724112557;20/08/24;00:09:17;0.995;-0.032;0.081;-0.0012217304902151227;-0.04764748737215996;-0.040317103266716
01:00:0A:00:00:00:00;1724112558;20/08/24;00:09:18;1.029;-0.032;0.063;0.00855211354792118;0.03176499158143997;0.0024434609804302454
01:00:0A:00:00:00:00;1724112559;20/08/24;00:09:19;1.043;-0.04;0.098;-0.006108652334660292;0.012217304669320583;0.021991148591041565
01:00:0A:00:00:00:00;1724112560;20/08/24;00:09:20;1.046;-0.027;0.054;-0.010995574295520782;-0.01710422709584236;0.02321287989616394
01:00:0A:00:00:00:00;1724112561;20/08/24;00:09:21;1.004;-0.013;0.056;0.004886921960860491;0.015882495790719986;0.0024434609804302454
01:00:0A:00:00:00:00;1724112562;20/08/24;00:09:22;0.98;-0.024;0.067;-0.0036651913542300463;-0.030543262138962746;-0.0012217304902151227
01:00:0A:00:00:00:00;1724112563;20/08/24;00:09:23;0.984;-0.034;0.064;0.0;-0.059864792972803116;-0.04398229718208313
01:00:0A:00:00:00:00;1724112564;20/08/24;00:09:24;1.011;-0.035;0.071;0.0073303827084600925;-0.012217304669320583;0.0036651913542300463
01:00:0A:00:00:00:00;1724112565;20/08/24;00:09:25;1.047;-0.045;0.097;0.0;-0.028099799528717995;0.02321287989616394
01:00:0A:00:00:00:00;1724112566;20/08/24;00:09:26;1.057;-0.021;0.061;0.009773843921720982;0.0;0.036651913076639175
01:00:0A:00:00:00:00;1724112567;20/08/24;00:09:27;1.022;-0.011;0.081;0.02076941914856434;0.06230825558304787;0.030543262138962746
01:00:0A:00:00:00:00;1724112568;20/08/24;00:09:28;0.986;-0.011;0.053;0.014660765416920185;-0.015882495790719986;-0.00855211354792118
01:00:0A:00:00:00:00;1724112569;20/08/24;00:09:29;0.961;-0.023;0.048;0.028099799528717995;0.006108652334660292;-0.036651913076639175
01:00:0A:00:00:00:00;1724112570;20/08/24;00:09:30;1.009;-0.042;0.07;0.014660765416920185;-0.06108652427792549;-0.013439035043120384
01:00:0A:00:00:00:00;1724112571;20/08/24;00:09:31;1.045;-0.051;0.064;0.02076941914856434;-0.03298672288656235;-0.0036651913542300463
01:00:0A:00:00:00:00;1724112572;20/08/24;00:09:32;1.072;-0.021;0.085;0.012217304669320583;-0.0012217304902151227;0.05497787147760391
01:00:0A:00:00:00:00;1724112573;20/08/24;00:09:33;1.064;-0.034;0.071;0.009773843921720982;0.0073303827084600925;0.07696902006864548
01:00:0A:00:00:00:00;1724112574;20/08/24;00:09:34;1.002;0.006;0.068;0.019547687843441963;0.025656338781118393;-0.021991148591041565
01:00:0A:00:00:00:00;1724112575;20/08/24;00:09:35;0.962;-0.024;0.058;0.0;-0.019547687843441963;0.04886921867728233
01:00:0A:00:00:00:00;1724112576;20/08/24;00:09:36;0.959;-0.026;0.065;0.025656338781118393;0.0;-0.1014036238193512
01:00:0A:00:00:00:00;1724112577;20/08/24;00:09:37;0.995;-0.021;0.072;-0.01710422709584236;-0.04764748737215996;0.05009094998240471
01:00:0A:00:00:00:00;1724112578;20/08/24;00:09:38;1.048;-0.077;0.059;0.014660765416920185;-0.0024434609804302454;-0.05742133408784866
01:00:0A:00:00:00:00;1724112579;20/08/24;00:09:39;1.063;0.017;0.091;-0.009773843921720982;-0.013439035043120384;0.025656338781118393
01:00:0A:00:00:00:00;1724112580;20/08/24;00:09:40;1.049;-0.075;0.066;-0.024434609338641167;-0.024434609338641167;0.10506881773471832
01:00:0A:00:00:00:00;1724112581;20/08/24;00:09:41;1.0;-0.006;0.075;0.013439035043120384;0.021991148591041565;-0.080634206533432
01:00:0A:00:00:00:00;1724112582;20/08/24;00:09:42;0.977;-0.022;0.075;-0.028099799528717995;-0.015882495790719986;0.05009094998240471
01:00:0A:00:00:00:00;1724112583;20/08/24;00:09:43;0.988;-0.057;0.081;-0.02687807008624077;-0.02932153083384037;-0.039095375686883926
01:00:0A:00:00:00:00;1724112584;20/08/24;00:09:44;1.01;-0.028;0.081;-0.014660765416920185;-0.0012217304902151227;-0.03420845419168472
01:00:0A:00:00:00:00;1724112585;20/08/24;00:09:45;1.034;-0.019;0.075;-0.039095375686883926;-0.02321287989616394;0.03787364438176155
01:00:0A:00:00:00:00;1724112586;20/08/24;00:09:46;1.037;-0.053;0.065;-0.02321287989616394;-0.00855211354792118;0.019547687843441963
01:00:0A:00:00:00:00;1724112587;20/08/24;00:09:47;1.023;-0.018;0.075;-0.009773843921720982;-0.0036651913542300463;-0.03420845419168472
01:00:0A:00:00:00:00;1724112588;20/08/24;00:09:48;1.002;-0.021;0.076;-0.02687807008624077;-0.013439035043120384;0.00855211354792118
01:00:0A:00:00:00:00;1724112589;20/08/24;00:09:49;0.996;-0.045;0.065;-0.019547687843441963;-0.013439035043120384;-0.010995574295520782
01:00:0A:00:00:00:00;1724112590;20/08/24;00:09:50;1.007;-0.039;0.07;-0.00855211354792118;-0.006108652334660292;-0.03420845419168472
01:00:0A:00:00:00:00;1724112591;20/08/24;00:09:51;1.021;-0.027;0.077;-0.025656338781118393;-0.02076941914856434;0.02076941914856434
01:00:0A:00:00:00:00;1724112592;20/08/24;00:09:52;1.031;-0.044;0.072;-0.024434609338641167;-0.013439035043120384;0.02932153083384037
01:00:0A:00:00:00:00;1724112593;20/08/24;00:09:53;1.026;-0.021;0.072;-0.012217304669320583;-0.0036651913542300463;-0.0036651913542300463
01:00:0A:00:00:00:00;1724112594;20/08/24;00:09:54;1.006;-0.012;0.078;-0.02076941914856434;0.0012217304902151227;0.010995574295520782
01:00:0A:00:00:00:00;1724112595;20/08/24;00:09:55;0.996;-0.028;0.073;-0.02321287989616394;-0.0073303827084600925;0.004886921960860491
01:00:0A:00:00:00:00;1724112596;20/08/24;00:09:56;0.999;-0.027;0.069;-0.014660765416920185;-0.0073303827084600925;-0.03787364438176155
01:00:0A:00:00:00:00;1724112597;20/08/24;00:09:57;1.025;-0.027;0.072;-0.024434609338641167;-0.02321287989616394;-0.0012217304902151227
01:00:0A:00:00:00:00;1724112598;20/08/24;00:09:58;1.036;-0.045;0.075;-0.025656338781118393;-0.015882495790719986;0.012217304669320583
01:00:0A:00:00:00:00;1724112599;20/08/24;00:09:59;1.033;-0.031;0.075;-0.02076941914856434;-0.015882495790719986;0.010995574295520782
01:00:0A:00:00:00:00;1724112600;20/08/24;00:10:00;1.016;-0.021;0.08;-0.02687807008624077;-0.0024434609804302454;0.02687807008624077
01:00:0A:00:00:00:00;1724112601;20/08/24;00:10:01;0.991;-0.028;0.072;-0.028099799528717995;-0.009773843921720982;0.019547687843441963
01:00:0A:00:00:00:00;1724112602;20/08/24;00:10:02;0.986;-0.027;0.072;-0.021991148591041565;0.0;-0.012217304669320583
01:00:0A:00:00:00:00;1724112603;20/08/24;00:10:03;1.009;-0.021;0.07;-0.028099799528717995;-0.013439035043120384;-0.0073303827084600925
01:00:0A:00:00:00:00;1724112604;20/08/24;00:10:04;1.026;-0.04;0.065;0.013439035043120384;-0.039095375686883926;-0.00855211354792118
01:00:0A:00:00:00:00;1724112605;20/08/24;00:10:05;1.041;-0.032;0.067;0.018325956538319588;-0.0024434609804302454;0.004886921960860491
01:00:0A:00:00:00:00;1724112606;20/08/24;00:10:06;1.028;-0.022;0.072;0.021991148591041565;-0.018325956538319588;0.01710422709584236
01:00:0A:00:00:00:00;1724112607;20/08/24;00:10:07;1.016;-0.037;0.081;0.013439035043120384;-0.0024434609804302454;0.042760565876960754
01:00:0A:00:00:00:00;1724112608;20/08/24;00:10:08;0.992;-0.029;0.074;0.015882495790719986;-0.013439035043120384;-0.01710422709584236
01:00:0A:00:00:00:00;1724112609;20/08/24;00:10:09;0.987;-0.024;0.07;0.010995574295520782;-0.0012217304902151227;0.0
01:00:0A:00:00:00:00;1724112610;20/08/24;00:10:10;1.006;-0.033;0.065;0.02076941914856434;-0.006108652334660292;-0.0073303827084600925
01:00:0A:00:00:00:00;1724112611;20/08/24;00:10:11;1.021;-0.037;0.062;0.030543262138962746;-0.014660765416920185;-0.0073303827084600925
01:00:0A:00:00:00:00;1724112612;20/08/24;00:10:12;1.039;-0.031;0.075;0.030543262138962746;-0.02076941914856434;0.021991148591041565
01:00:0A:00:00:00:00;1724112613;20/08/24;00:10:13;1.04;-0.03;0.073;0.02687807008624077;-0.019547687843441963;0.015882495790719986
01:00:0A:00:00:00:00;1724112614;20/08/24;00:10:14;1.022;-0.029;0.074;0.030543262138962746;-0.018325956538319588;0.013439035043120384
01:00:0A:00:00:00:00;1724112615;20/08/24;00:10:15;0.997;-0.022;0.073;0.0073303827084600925;-0.0024434609804302454;-0.0073303827084600925
01:00:0A:00:00:00:00;1724112616;20/08/24;00:10:16;0.988;-0.034;0.074;0.004886921960860491;-0.004886921960860491;-0.006108652334660292
01:00:0A:00:00:00:00;1724112617;20/08/24;00:10:17;1.001;-0.035;0.07;0.0036651913542300463;-0.010995574295520782;-0.021991148591041565
01:00:0A:00:00:00:00;1724112618;20/08/24;00:10:18;1.02;-0.037;0.068;0.0012217304902151227;-0.013439035043120384;-0.0012217304902151227
01:00:0A:00:00:00:00;1724112619;20/08/24;00:10:19;1.038;-0.038;0.076;-0.0024434609804302454;-0.009773843921720982;0.02321287989616394
01:00:0A:00:00:00:00;1724112620;20/08/24;00:10:20;1.036;-0.028;0.073;-0.0024434609804302454;-0.01710422709584236;0.012217304669320583
01:00:0A:00:00:00:00;1724112621;20/08/24;00:10:21;1.01;-0.02;0.065;0.013439035043120384;-0.024434609338641167;0.009773843921720982
01:00:0A:00:00:00:00;1724112622;20/08/24;00:10:22;0.999;-0.026;0.073;0.018325956538319588;0.019547687843441963;0.004886921960860491
01:00:0A:00:00:00:00;1724112623;20/08/24;00:10:23;0.999;-0.034;0.074;0.02076941914856434;-0.01710422709584236;-0.018325956538319588
01:00:0A:00:00:00:00;1724112624;20/08/24;00:10:24;1.021;-0.035;0.067;0.014660765416920185;-0.028099799528717995;-0.004886921960860491
01:00:0A:00:00:00:00;1724112625;20/08/24;00:10:25;1.033;-0.037;0.078;0.013439035043120384;-0.006108652334660292;0.010995574295520782
01:00:0A:00:00:00:00;1724112626;20/08/24;00:10:26;1.028;-0.031;0.078;0.010995574295520782;-0.00855211354792118;0.012217304669320583
01:00:0A:00:00:00:00;1724112627;20/08/24;00:10:27;1.013;-0.027;0.074;0.0073303827084600925;-0.012217304669320583;0.014660765416920185
01:00:0A:00:00:00:00;1724112628;20/08/24;00:10:28;0.99;-0.026;0.073;0.00855211354792118;0.0012217304902151227;-0.0012217304902151227
01:00:0A:00:00:00:00;1724112629;20/08/24;00:10:29;0.99;-0.02;0.064;0.013439035043120384;-0.02076941914856434;-0.021991148591041565
01:00:0A:00:00:00:00;1724112630;20/08/24;00:10:30;1.022;-0.033;0.06;0.019547687843441963;0.0073303827084600925;0.0
01:00:0A:00:00:00:00;1724112631;20/08/24;00:10:31;1.039;-0.04;0.088;0.006108652334660292;-0.025656338781118393;0.013439035043120384
01:00:0A:00:00:00:00;1724112632;20/08/24;00:10:32;1.043;-0.026;0.069;-0.0012217304902151227;-0.04153883829712868;0.006108652334660292
01:00:0A:00:00:00:00;1724112633;20/08/24;00:10:33;1.016;-0.023;0.07;-0.03298672288656235;-0.00855211354792118;0.01710422709584236
01:00:0A:00:00:00:00;1724112634;20/08/24;00:10:34;0.995;-0.02;0.069;-0.021991148591041565;-0.0036651913542300463;0.004886921960860491
01:00:0A:00:00:00:00;1724112635;20/08/24;00:10:35;0.982;-0.026;0.076;-0.018325956538319588;0.014660765416920185;-0.00855211354792118
01:00:0A:00:00:00:00;1724112636;20/08/24;00:10:36;0.992;-0.029;0.076;-0.028099799528717995;-0.021991148591041565;-0.015882495790719986
01:00:0A:00:00:00:00;1724112637;20/08/24;00:10:37;1.025;-0.035;0.065;-0.02687807008624077;-0.015882495790719986;-0.0012217304902151227
01:00:0A:00:00:00:00;1724112638;20/08/24;00:10:38;1.035;-0.031;0.069;-0.019547687843441963;-0.0073303827084600925;0.0036651913542300463
01:00:0A:00:00:00:00;1724112639;20/08/24;00:10:39;1.036;-0.029;0.069;-0.015882495790719986;-0.01710422709584236;0.02076941914856434
01:00:0A:00:00:00:00;1724112640;20/08/24;00:10:40;1.028;-0.032;0.075;-0.01710422709584236;-0.019547687843441963;0.01710422709584236
01:00:0A:00:00:00:00;1724112641;20/08/24;00:10:41;1.009;-0.028;0.075;-0.014660765416920185;-0.009773843921720982;0.006108652334660292
01:00:0A:00:00:00:00;1724112642;20/08/24;00:10:42;1.0;-0.029;0.074;-0.015882495790719986;-0.009773843921720982;0.00855211354792118
01:00:0A:00:00:00:00;1724112643;20/08/24;00:10:43;1.001;-0.033;0.069;-0.015882495790719986;-0.013439035043120384;0.0012217304902151227
01:00:0A:00:00:00:00;1724112644;20/08/24;00:10:44;1.01;-0.033;0.068;-0.013439035043120384;-0.009773843921720982;-0.006108652334660292
01:00:0A:00:00:00:00;1724112645;20/08/24;00:10:45;1.015;-0.027;0.069;-0.02076941914856434;-0.012217304669320583;-0.0024434609804302454
01:00:0A:00:00:00:00;1724112646;20/08/24;00:10:46;1.023;-0.032;0.071;-0.02076941914856434;-0.018325956538319588;0.006108652334660292
01:00:0A:00:00:00:00;1724112647;20/08/24;00:10:47;1.023;-0.033;0.074;-0.018325956538319588;-0.012217304669320583;0.004886921960860491
01:00:0A:00:00:00:00;1724112648;20/08/24;00:10:48;1.022;-0.028;0.069;-0.01710422709584236;-0.009773843921720982;0.0012217304902151227
01:00:0A:00:00:00:00;1724112649;20/08/24;00:10:49;1.02;-0.031;0.068;-0.018325956538319588;-0.013439035043120384;0.006108652334660292
01:00:0A:00:00:00:00;1724112650;20/08/24;00:10:50;1.017;-0.032;0.067;-0.015882495790719986;-0.012217304669320583;0.004886921960860491
01:00:0A:00:00:00:00;1724112651;20/08/24;00:10:51;1.015;-0.03;0.069;-0.015882495790719986;-0.010995574295520782;0.0036651913542300463
01:00:0A:00:00:00:00;1724112652;20/08/24;00:10:52;1.014;-0.032;0.07;-0.01710422709584236;-0.013439035043120384;0.009773843921720982
01:00:0A:00:00:00:00;1724112653;20/08/24;00:10:53;1.007;-0.029;0.067;-0.014660765416920185;-0.00855211354792118;0.009773843921720982
01:00:0A:00:00:00:00;1724112654;20/08/24;00:10:54;1.004;-0.027;0.071;-0.012217304669320583;-0.0036651913542300463;-0.0012217304902151227
01:00:0A:00:00:00:00;1724112655;20/08/24;00:10:55;1.007;-0.028;0.072;-0.012217304669320583;-0.0024434609804302454;-0.009773843921720982
01:00:0A:00:00:00:00;1724112656;20/08/24;00:10:56;1.011;-0.028;0.07;-0.014660765416920185;-0.009773843921720982;-0.009773843921720982
01:00:0A:00:00:00:00;1724112657;20/08/24;00:10:57;1.025;-0.036;0.073;-0.015882495790719986;-0.009773843921720982;-0.006108652334660292
01:00:0A:00:00:00:00;1724112658;20/08/24;00:10:58;1.03;-0.039;0.072;-0.015882495790719986;-0.004886921960860491;0.0
01:00:0A:00:00:00:00;1724112659;20/08/24;00:10:59;1.026;-0.032;0.071;-0.018325956538319588;-0.014660765416920185;0.00855211354792118
01:00:0A:00:00:00:00;1724112660;20/08/24;00:11:00;1.013;-0.032;0.077;-0.019547687843441963;-0.010995574295520782;0.012217304669320583
01:00:0A:00:00:00:00;1724112661;20/08/24;00:11:01;1.004;-0.029;0.077;-0.018325956538319588;-0.0036651913542300463;0.004886921960860491
01:00:0A:00:00:00:00;1724112662;20/08/24;00:11:02;0.996;-0.027;0.074;-0.019547687843441963;-0.0012217304902151227;0.0
01:00:0A:00:00:00:00;1724112663;20/08/24;00:11:03;1.001;-0.03;0.074;-0.02076941914856434;0.0;-0.0024434609804302454
01:00:0A:00:00:00:00;1724112664;20/08/24;00:11:04;1.016;-0.032;0.072;-0.02076941914856434;-0.009773843921720982;-0.014660765416920185
01:00:0A:00:00:00:00;1724112665;20/08/24;00:11:05;1.024;-0.033;0.07;-0.02321287989616394;-0.019547687843441963;-0.006108652334660292
01:00:0A:00:00:00:00;1724112666;20/08/24;00:11:06;1.03;-0.031;0.074;-0.02687807008624077;-0.015882495790719986;0.013439035043120384
01:00:0A:00:00:00:00;1724112667;20/08/24;00:11:07;1.03;-0.03;0.079;-0.028099799528717995;-0.012217304669320583;0.009773843921720982
01:00:0A:00:00:00:00;1724112668;20/08/24;00:11:08;1.016;-0.032;0.077;-0.030543262138962746;-0.00855211354792118;0.004886921960860491
01:00:0A:00:00:00:00;1724112669;20/08/24;00:11:09;1.002;-0.033;0.074;-0.02932153083384037;-0.0073303827084600925;0.00855211354792118
01:00:0A:00:00:00:00;1724112670;20/08/24;00:11:10;1.001;-0.032;0.07;-0.02687807008624077;-0.0073303827084600925;0.0024434609804302454
01:00:0A:00:00:00:00;1724112671;20/08/24;00:11:11;1.005;-0.031;0.067;-0.025656338781118393;-0.019547687843441963;0.0012217304902151227
01:00:0A:00:00:00:00;1724112672;20/08/24;00:11:12;1.015;-0.031;0.068;-0.02321287989616394;-0.030543262138962746;0.0
01:00:0A:00:00:00:00;1724112673;20/08/24;00:11:13;1.025;-0.031;0.075;-0.024434609338641167;-0.021991148591041565;-0.0036651913542300463
01:00:0A:00:00:00:00;1724112674;20/08/24;00:11:14;1.026;-0.029;0.077;-0.025656338781118393;-0.010995574295520782;0.006108652334660292
01:00:0A:00:00:00:00;1724112675;20/08/24;00:11:15;1.022;-0.029;0.075;-0.02321287989616394;0.0012217304902151227;0.0012217304902151227
01:00:0A:00:00:00:00;1724112676;20/08/24;00:11:16;1.016;-0.033;0.068;-0.019547687843441963;0.0024434609804302454;-0.0012217304902151227
01:00:0A:00:00:00:00;1724112677;20/08/24;00:11:17;1.009;-0.03;0.065;-0.019547687843441963;-0.010995574295520782;0.0036651913542300463
01:00:0A:00:00:00:00;1724112678;20/08/24;00:11:18;1.007;-0.028;0.063;-0.019547687843441963;-0.028099799528717995;0.004886921960860491
01:00:0A:00:00:00:00;1724112679;20/08/24;00:11:19;1.008;-0.031;0.066;-0.01710422709584236;-0.02932153083384037;0.0036651913542300463
01:00:0A:00:00:00:00;1724112680;20/08/24;00:11:20;1.012;-0.029;0.075;-0.014660765416920185;-0.01710422709584236;0.0024434609804302454
01:00:0A:00:00:00:00;1724112681;20/08/24;00:11:21;1.013;-0.027;0.074;-0.013439035043120384;-0.0073303827084600925;0.0036651913542300463
01:00:0A:00:00:00:00;1724112682;20/08/24;00:11:22;1.019;-0.03;0.07;-0.012217304669320583;-0.0036651913542300463;-0.0012217304902151227
01:00:0A:00:00:00:00;1724112683;20/08/24;00:11:23;1.022;-0.03;0.07;-0.012217304669320583;-0.0024434609804302454;0.0
01:00:0A:00:00:00:00;1724112684;20/08/24;00:11:24;1.024;-0.03;0.068;-0.014660765416920185;-0.004886921960860491;0.006108652334660292
01:00:0A:00:00:00:00;1724112685;20/08/24;00:11:25;1.022;-0.029;0.067;-0.013439035043120384;-0.012217304669320583;-0.0012217304902151227
01:00:0A:00:00:00:00;1724112686;20/08/24;00:11:26;1.013;-0.033;0.072;-0.013439035043120384;-0.010995574295520782;0.004886921960860491
01:00:0A:00:00:00:00;1724112687;20/08/24;00:11:27;1.005;-0.032;0.074;-0.013439035043120384;-0.0073303827084600925;0.0073303827084600925
01:00:0A:00:00:00:00;1724112688;20/08/24;00:11:28;1.004;-0.03;0.071;-0.012217304669320583;-0.0073303827084600925;0.006108652334660292
01:00:0A:00:00:00:00;1724112689;20/08/24;00:11:29;1.008;-0.029;0.068;-0.018325956538319588;-0.013439035043120384;0.00855211354792118
01:00:0A:00:00:00:00;1724112690;20/08/24;00:11:30;1.014;-0.031;0.07;-0.013439035043120384;-0.014660765416920185;-0.0073303827084600925
01:00:0A:00:00:00:00;1724112691;20/08/24;00:11:31;1.024;-0.028;0.072;-0.014660765416920185;-0.01710422709584236;-0.0036651913542300463
01:00:0A:00:00:00:00;1724112692;20/08/24;00:11:32;1.025;-0.031;0.074;-0.01710422709584236;-0.012217304669320583;0.010995574295520782
01:00:0A:00:00:00:00;1724112693;20/08/24;00:11:33;1.022;-0.032;0.075;-0.013439035043120384;-0.0024434609804302454;0.0036651913542300463
01:00:0A:00:00:00:00;1724112694;20/08/24;00:11:34;1.018;-0.028;0.072;-0.012217304669320583;-0.0036651913542300463;-0.0036651913542300463
01:00:0A:00:00:00:00;1724112695;20/08/24;00:11:35;1.012;-0.029;0.069;-0.013439035043120384;-0.0036651913542300463;0.012217304669320583
01:00:0A:00:00:00:00;1724112696;20/08/24;00:11:36;1.007;-0.032;0.067;-0.012217304669320583;-0.0073303827084600925;0.009773843921720982
01:00:0A:00:00:00:00;1724112697;20/08/24;00:11:37;1.006;-0.027;0.067;-0.009773843921720982;-0.012217304669320583;-0.0024434609804302454
01:00:0A:00:00:00:00;1724112698;20/08/24;00:11:38;1.007;-0.026;0.068;-0.012217304669320583;-0.02321287989616394;-0.0012217304902151227
01:00:0A:00:00:00:00;1724112699;20/08/24;00:11:39;1.013;-0.03;0.071;-0.010995574295520782;-0.021991148591041565;-0.0024434609804302454
01:00:0A:00:00:00:00;1724112700;20/08/24;00:11:40;1.022;-0.034;0.074;-0.00855211354792118;-0.014660765416920185;-0.006108652334660292
01:00:0A:00:00:00:00;1724112701;20/08/24;00:11:41;1.026;-0.033;0.074;-0.00855211354792118;-0.012217304669320583;0.0036651913542300463
01:00:0A:00:00:00:00;1724112702;20/08/24;00:11:42;1.024;-0.034;0.075;-0.009773843921720982;-0.0012217304902151227;0.013439035043120384
01:00:0A:00:00:00:00;1724112703;20/08/24;00:11:43;1.02;-0.03;0.071;-0.0073303827084600925;0.0024434609804302454;0.006108652334660292
01:00:0A:00:00:00:00;1724112704;20/08/24;00:11:44;1.011;-0.027;0.067;-0.0073303827084600925;-0.0036651913542300463;0.0073303827084600925
01:00:0A:00:00:00:00;1724112705;20/08/24;00:11:45;1.004;-0.029;0.069;-0.00855211354792118;-0.015882495790719986;0.0073303827084600925
01:00:0A:00:00:00:00;1724112706;20/08/24;00:11:46;1.005;-0.029;0.067;-0.0073303827084600925;-0.018325956538319588;-0.0012217304902151227
01:00:0A:00:00:00:00;1724112707;20/08/24;00:11:47;1.01;-0.028;0.07;-0.006108652334660292;-0.02076941914856434;-0.006108652334660292
01:00:0A:00:00:00:00;1724112708;20/08/24;00:11:48;1.015;-0.029;0.072;-0.006108652334660292;-0.019547687843441963;-0.006108652334660292
01:00:0A:00:00:00:00;1724112709;20/08/24;00:11:49;1.023;-0.033;0.074;-0.006108652334660292;-0.010995574295520782;0.0024434609804302454
01:00:0A:00:00:00:00;1724112710;20/08/24;00:11:50;1.026;-0.032;0.072;-0.006108652334660292;-0.006108652334660292;0.0073303827084600925
01:00:0A:00:00:00:00;1724112711;20/08/24;00:11:51;1.022;-0.031;0.072;-0.0073303827084600925;-0.0036651913542300463;0.00855211354792118
01:00:0A:00:00:00:00;1724112712;20/08/24;00:11:52;1.017;-0.03;0.071;-0.006108652334660292;-0.004886921960860491;0.006108652334660292
01:00:0A:00:00:00:00;1724112713;20/08/24;00:11:53;1.006;-0.029;0.069;-0.006108652334660292;-0.0073303827084600925;0.0073303827084600925
01:00:0A:00:00:00:00;1724112714;20/08/24;00:11:54;1.002;-0.029;0.07;-0.006108652334660292;-0.014660765416920185;0.0036651913542300463
01:00:0A:00:00:00:00;1724112715;20/08/24;00:11:55;1.004;-0.03;0.07;-0.006108652334660292;-0.01710422709584236;-0.0024434609804302454
01:00:0A:00:00:00:00;1724112716;20/08/24;00:11:56;1.016;-0.029;0.072;-0.004886921960860491;-0.015882495790719986;-0.004886921960860491
01:00:0A:00:00:00:00;1724112717;20/08/24;00:11:57;1.022;-0.03;0.071;-0.006108652334660292;-0.012217304669320583;0.0
01:00:0A:00:00:00:00;1724112718;20/08/24;00:11:58;1.026;-0.03;0.071;-0.006108652334660292;-0.009773843921720982;0.004886921960860491
01:00:0A:00:00:00:00;1724112719;20/08/24;00:11:59;1.022;-0.028;0.071;-0.006108652334660292;-0.0073303827084600925;0.004886921960860491
01:00:0A:00:00:00:00;1724112720;20/08/24;00:12:00;1.013;-0.031;0.071;-0.006108652334660292;-0.010995574295520782;0.004886921960860491
01:00:0A:00:00:00:00;1724112721;20/08/24;00:12:01;1.008;-0.03;0.071;-0.006108652334660292;-0.009773843921720982;0.0036651913542300463
01:00:0A:00:00:00:00;1724112722;20/08/24;00:12:02;1.008;-0.03;0.071;-0.004886921960860491;-0.0073303827084600925;0.004886921960860491
01:00:0A:00:00:00:00;1724112723;20/08/24;00:12:03;1.015;-0.029;0.071;-0.004886921960860491;-0.013439035043120384;0.0036651913542300463
01:00:0A:00:00:00:00;1724112724;20/08/24;00:12:04;1.018;-0.028;0.068;-0.004886921960860491;-0.012217304669320583;0.004886921960860491
01:00:0A:00:00:00:00;1724112725;20/08/24;00:12:05;1.018;-0.028;0.07;-0.004886921960860491;-0.009773843921720982;0.0036651913542300463
01:00:0A:00:00:00:00;1724112726;20/08/24;00:12:06;1.015;-0.028;0.069;-0.004886921960860491;-0.014660765416920185;-0.0012217304902151227
01:00:0A:00:00:00:00;1724112727;20/08/24;00:12:07;1.013;-0.031;0.072;-0.004886921960860491;-0.013439035043120384;0.0012217304902151227
01:00:0A:00:00:00:00;1724112728;20/08/24;00:12:08;1.012;-0.03;0.072;-0.0036651913542300463;-0.009773843921720982;0.0024434609804302454
01:00:0A:00:00:00:00;1724112729;20/08/24;00:12:09;1.016;-0.03;0.07;-0.0036651913542300463;-0.012217304669320583;0.0012217304902151227
01:00:0A:00:00:00:00;1724112730;20/08/24;00:12:10;1.02;-0.028;0.07;-0.0036651913542300463;-0.009773843921720982;0.006108652334660292
01:00:0A:00:00:00:00;1724112731;20/08/24;00:12:11;1.017;-0.029;0.071;-0.0036651913542300463;-0.0073303827084600925;0.0073303827084600925
01:00:0A:00:00:00:00;1724112732;20/08/24;00:12:12;1.013;-0.029;0.069;-0.0036651913542300463;-0.013439035043120384;0.0024434609804302454
01:00:0A:00:00:00:00;1724112733;20/08/24;00:12:13;1.008;-0.027;0.068;-0.0036651913542300463;-0.013439035043120384;0.0012217304902151227
01:00:0A:00:00:00:00;1724112734;20/08/24;00:12:14;1.01;-0.029;0.071;-0.0036651913542300463;-0.014660765416920185;0.0
01:00:0A:00:00:00:00;1724112735;20/08/24;00:12:15;1.016;-0.028;0.069;-0.0036651913542300463;-0.014660765416920185;-0.0012217304902151227
01:00:0A:00:00:00:00;1724112736;20/08/24;00:12:16;1.023;-0.029;0.07;-0.0024434609804302454;-0.012217304669320583;0.0012217304902151227
01:00:0A:00:00:00:00;1724112737;20/08/24;00:12:17;1.024;-0.03;0.073;-0.0036651913542300463;-0.0073303827084600925;0.006108652334660292
01:00:0A:00:00:00:00;1724112738;20/08/24;00:12:18;1.016;-0.028;0.068;-0.0036651913542300463;-0.00855211354792118;0.006108652334660292
01:00:0A:00:00:00:00;1724112739;20/08/24;00:12:19;1.009;-0.027;0.068;-0.0036651913542300463;-0.00855211354792118;0.00855211354792118
01:00:0A:00:00:00:00;1724112740;20/08/24;00:12:20;1.004;-0.029;0.069;-0.0036651913542300463;-0.012217304669320583;0.0036651913542300463
01:00:0A:00:00:00:00;1724112741;20/08/24;00:12:21;1.011;-0.03;0.071;-0.0036651913542300463;-0.015882495790719986;-0.0036651913542300463
01:00:0A:00:00:00:00;1724112742;20/08/24;00:12:22;1.016;-0.03;0.07;-0.0024434609804302454;-0.013439035043120384;-0.0012217304902151227
01:00:0A:00:00:00:00;1724112743;20/08/24;00:12:23;1.026;-0.032;0.072;-0.0036651913542300463;-0.010995574295520782;0.0073303827084600925
01:00:0A:00:00:00:00;1724112744;20/08/24;00:12:24;1.026;-0.03;0.073;-0.0036651913542300463;-0.00855211354792118;0.0036651913542300463
01:00:0A:00:00:00:00;1724112745;20/08/24;00:12:25;1.018;-0.027;0.07;-0.0036651913542300463;-0.0012217304902151227;0.010995574295520782
01:00:0A:00:00:00:00;1724112746;20/08/24;00:12:26;1.01;-0.03;0.07;-0.0036651913542300463;-0.0036651913542300463;0.013439035043120384
01:00:0A:00:00:00:00;1724112747;20/08/24;00:12:27;1.006;-0.029;0.069;-0.0036651913542300463;-0.013439035043120384;0.0036651913542300463
01:00:0A:00:00:00:00;1724112748;20/08/24;00:12:28;1.007;-0.027;0.069;-0.0024434609804302454;-0.012217304669320583;0.0024434609804302454
01:00:0A:00:00:00:00;1724112749;20/08/24;00:12:29;1.012;-0.03;0.07;-0.0024434609804302454;-0.012217304669320583;0.0012217304902151227
01:00:0A:00:00:00:00;1724112750;20/08/24;00:12:30;1.018;-0.03;0.071;-0.0024434609804302454;-0.015882495790719986;-0.0012217304902151227
01:00:0A:00:00:00:00;1724112751;20/08/24;00:12:31;1.019;-0.029;0.07;-0.0024434609804302454;-0.013439035043120384;0.0012217304902151227
01:00:0A:00:00:00:00;1724112752;20/08/24;00:12:32;1.022;-0.031;0.073;-0.0024434609804302454;-0.0073303827084600925;0.0073303827084600925
01:00:0A:00:00:00:00;1724112753;20/08/24;00:12:33;1.02;-0.03;0.071;-0.0024434609804302454;-0.00855211354792118;0.0036651913542300463
01:00:0A:00:00:00:00;1724112754;20/08/24;00:12:34;1.016;-0.029;0.07;-0.0024434609804302454;-0.0073303827084600925;0.00855211354792118
01:00:0A:00:00:00:00;1724112755;20/08/24;00:12:35;1.015;-0.03;0.071;-0.0012217304902151227;-0.006108652334660292;0.009773843921720982
01:00:0A:00:00:00:00;1724112756;20/08/24;00:12:36;1.012;-0.028;0.069;-0.0012217304902151227;-0.012217304669320583;0.0012217304902151227
01:00:0A:00:00:00:00;1724112757;20/08/24;00:12:37;1.01;-0.027;0.069;-0.0012217304902151227;-0.010995574295520782;0.0036651913542300463
01:00:0A:00:00:00:00;1724112758;20/08/24;00:12:38;1.009;-0.029;0.069;-0.0012217304902151227;-0.013439035043120384;0.0024434609804302454
01:00:0A:00:00:00:00;1724112759;20/08/24;00:12:39;1.013;-0.029;0.07;0.0;-0.01710422709584236;-0.0036651913542300463
01:00:0A:00:00:00:00;1724112760;20/08/24;00:12:40;1.015;-0.028;0.071;0.0;-0.014660765416920185;-0.0024434609804302454
01:00:0A:00:00:00:00;1724112761;20/08/24;00:12:41;1.02;-0.031;0.073;0.0;-0.013439035043120384;0.0
01:00:0A:00:00:00:00;1724112762;20/08/24;00:12:42;1.021;-0.029;0.072;0.0;-0.013439035043120384;-0.0012217304902151227
01:00:0A:00:00:00:00;1724112763;20/08/24;00:12:43;1.021;-0.028;0.07;0.0;-0.00855211354792118;0.006108652334660292
01:00:0A:00:00:00:00;1724112764;20/08/24;00:12:44;1.018;-0.032;0.071;0.0;-0.0073303827084600925;0.0073303827084600925
01:00:0A:00:00:00:00;1724112765;20/08/24;00:12:45;1.013;-0.027;0.069;0.0;-0.00855211354792118;0.0073303827084600925
01:00:0A:00:00:00:00;1724112766;20/08/24;00:12:46;1.007;-0.027;0.068;0.0;-0.00855211354792118;0.009773843921720982
01:00:0A:00:00:00:00;1724112767;20/08/24;00:12:47;1.004;-0.027;0.069;0.0;-0.013439035043120384;0.0024434609804302454
01:00:0A:00:00:00:00;1724112768;20/08/24;00:12:48;1.011;-0.027;0.069;0.0024434609804302454;-0.018325956538319588;-0.0073303827084600925
01:00:0A:00:00:00:00;1724112769;20/08/24;00:12:49;1.016;-0.028;0.069;0.0012217304902151227;-0.01710422709584236;-0.0036651913542300463
01:00:0A:00:00:00:00;1724112770;20/08/24;00:12:50;1.024;-0.032;0.073;0.0012217304902151227;-0.013439035043120384;0.0012217304902151227
01:00:0A:00:00:00:00;1724112771;20/08/24;00:12:51;1.024;-0.032;0.072;0.0012217304902151227;-0.009773843921720982;0.0036651913542300463
01:00:0A:00:00:00:00;1724112772;20/08/24;00:12:52;1.019;-0.03;0.071;0.0012217304902151227;-0.0036651913542300463;0.015882495790719986
01:00:0A:00:00:00:00;1724112773;20/08/24;00:12:53;1.015;-0.029;0.069;0.0012217304902151227;-0.004886921960860491;0.014660765416920185
01:00:0A:00:00:00:00;1724112774;20/08/24;00:12:54;1.005;-0.025;0.068;0.0024434609804302454;-0.010995574295520782;0.004886921960860491
01:00:0A:00:00:00:00;1724112775;20/08/24;00:12:55;1.004;-0.026;0.068;0.0012217304902151227;-0.012217304669320583;0.0024434609804302454
01:00:0A:00:00:00:00;1724112776;20/08/24;00:12:56;1.011;-0.028;0.07;0.0024434609804302454;-0.01710422709584236;-0.004886921960860491
01:00:0A:00:00:00:00;1724112777;20/08/24;00:12:57;1.017;-0.03;0.071;0.0024434609804302454;-0.015882495790719986;-0.0036651913542300463
01:00:0A:00:00:00:00;1724112778;20/08/24;00:12:58;1.021;-0.031;0.072;0.0024434609804302454;-0.012217304669320583;0.004886921960860491
01:00:0A:00:00:00:00;1724112779;20/08/24;00:12:59;1.02;-0.031;0.073;0.0012217304902151227;-0.0073303827084600925;0.00855211354792118
01:00:0A:00:00:00:00;1724112780;20/08/24;00:13:00;1.017;-0.028;0.07;0.0012217304902151227;-0.00855211354792118;0.009773843921720982
01:00:0A:00:00:00:00;1724112781;20/08/24;00:13:01;1.015;-0.026;0.071;0.0012217304902151227;-0.009773843921720982;0.006108652334660292
01:00:0A:00:00:00:00;1724112782;20/08/24;00:13:02;1.012;-0.029;0.071;0.0012217304902151227;-0.010995574295520782;0.0012217304902151227
01:00:0A:00:00:00:00;1724112783;20/08/24;00:13:03;1.015;-0.029;0.069;0.0012217304902151227;-0.012217304669320583;0.0012217304902151227
01:00:0A:00:00:00:00;1724112784;20/08/24;00:13:04;1.014;-0.031;0.071;0.0012217304902151227;-0.010995574295520782;0.0073303827084600925
01:00:0A:00:00:00:00;1724112785;20/08/24;00:13:05;1.013;-0.031;0.07;0.0012217304902151227;-0.009773843921720982;0.0073303827084600925
01:00:0A:00:00:00:00;1724112786;20/08/24;00:13:06;1.013;-0.026;0.069;0.0012217304902151227;-0.012217304669320583;0.0024434609804302454
01:00:0A:00:00:00:00;1724112787;20/08/24;00:13:07;1.014;-0.027;0.069;0.0012217304902151227;-0.013439035043120384;0.0012217304902151227
01:00:0A:00:00:00:00;1724112788;20/08/24;00:13:08;1.017;-0.029;0.071;0.0024434609804302454;-0.014660765416920185;-0.004886921960860491
01:00:0A:00:00:00:00;1724112789;20/08/24;00:13:09;1.019;-0.03;0.071;0.0024434609804302454;-0.012217304669320583;-0.0012217304902151227
01:00:0A:00:00:00:00;1724112790;20/08/24;00:13:10;1.021;-0.032;0.071;0.0012217304902151227;-0.009773843921720982;0.00855211354792118
01:00:0A:00:00:00:00;1724112791;20/08/24;00:13:11;1.017;-0.032;0.072;0.0024434609804302454;-0.00855211354792118;0.00855211354792118
01:00:0A:00:00:00:00;1724112792;20/08/24;00:13:12;1.013;-0.026;0.069;0.0024434609804302454;-0.00855211354792118;0.009773843921720982
01:00:0A:00:00:00:00;1724112793;20/08/24;00:13:13;1.009;-0.026;0.068;0.0024434609804302454;-0.009773843921720982;0.00855211354792118
01:00:0A:00:00:00:00;1724112794;20/08/24;00:13:14;1.01;-0.027;0.068;0.0036651913542300463;-0.014660765416920185;-0.0036651913542300463
01:00:0A:00:00:00:00;1724112795;20/08/24;00:13:15;1.015;-0.027;0.07;0.0036651913542300463;-0.014660765416920185;-0.0036651913542300463
01:00:0A:00:00:00:00;1724112796;20/08/24;00:13:16;1.017;-0.03;0.071;0.0036651913542300463;-0.013439035043120384;0.0
01:00:0A:00:00:00:00;1724112797;20/08/24;00:13:17;1.021;-0.032;0.071;0.0036651913542300463;-0.009773843921720982;0.0036651913542300463
01:00:0A:00:00:00:00;1724112798;20/08/24;00:13:18;1.019;-0.029;0.071;0.0036651913542300463;-0.00855211354792118;0.009773843921720982
01:00:0A:00:00:00:00;1724112799;20/08/24;00:13:19;1.016;-0.029;0.069;0.0024434609804302454;-0.009773843921720982;0.012217304669320583
01:00:0A:00:00:00:00;1724112800;20/08/24;00:13:20;1.014;-0.028;0.07;0.004886921960860491;-0.010995574295520782;0.004886921960860491
01:00:0A:00:00:00:00;1724112801;20/08/24;00:13:21;1.012;-0.026;0.069;0.004886921960860491;-0.010995574295520782;0.0024434609804302454
01:00:0A:00:00:00:00;1724112802;20/08/24;00:13:22;1.011;-0.03;0.07;0.004886921960860491;-0.013439035043120384;0.0036651913542300463
01:00:0A:00:00:00:00;1724112803;20/08/24;00:13:23;1.013;-0.029;0.069;0.006108652334660292;-0.014660765416920185;-0.0024434609804302454
01:00:0A:00:00:00:00;1724112804;20/08/24;00:13:24;1.015;-0.028;0.07;0.006108652334660292;-0.013439035043120384;0.0024434609804302454
01:00:0A:00:00:00:00;1724112805;20/08/24;00:13:25;1.016;-0.031;0.072;0.004886921960860491;-0.010995574295520782;0.004886921960860491
01:00:0A:00:00:00:00;1724112806;20/08/24;00:13:26;1.017;-0.029;0.072;0.0073303827084600925;-0.010995574295520782;0.0012217304902151227
01:00:0A:00:00:00:00;1724112807;20/08/24;00:13:27;1.017;-0.028;0.07;0.006108652334660292;-0.010995574295520782;0.004886921960860491
01:00:0A:00:00:00:00;1724112808;20/08/24;00:13:28;1.016;-0.03;0.07;0.006108652334660292;-0.010995574295520782;0.006108652334660292
01:00:0A:00:00:00:00;1724112809;20/08/24;00:13:29;1.016;-0.029;0.07;0.0073303827084600925;-0.009773843921720982;0.0036651913542300463
01:00:0A:00:00:00:00;1724112810;20/08/24;00:13:30;1.014;-0.028;0.07;0.006108652334660292;-0.010995574295520782;0.0073303827084600925
01:00:0A:00:00:00:00;1724112811;20/08/24;00:13:31;1.013;-0.03;0.069;0.006108652334660292;-0.012217304669320583;0.004886921960860491
01:00:0A:00:00:00:00;1724112812;20/08/24;00:13:32;1.014;-0.029;0.069;0.0073303827084600925;-0.010995574295520782;0.0
01:00:0A:00:00:00:00;1724112813;20/08/24;00:13:33;1.015;-0.027;0.069;0.006108652334660292;-0.012217304669320583;0.0024434609804302454
01:00:0A:00:00:00:00;1724112814;20/08/24;00:13:34;1.016;-0.03;0.07;0.006108652334660292;-0.013439035043120384;0.0024434609804302454
01:00:0A:00:00:00:00;1724112815;20/08/24;00:13:35;1.016;-0.029;0.071;0.0073303827084600925;-0.010995574295520782;-0.0012217304902151227
01:00:0A:00:00:00:00;1724112816;20/08/24;00:13:36;1.016;-0.028;0.071;0.006108652334660292;-0.010995574295520782;0.0036651913542300463
01:00:0A:00:00:00:00;1724112817;20/08/24;00:13:37;1.016;-0.03;0.07;0.004886921960860491;-0.010995574295520782;0.004886921960860491
01:00:0A:00:00:00:00;1724112818;20/08/24;00:13:38;1.015;-0.029;0.071;0.006108652334660292;-0.010995574295520782;0.0024434609804302454
01:00:0A:00:00:00:00;1724112819;20/08/24;00:13:39;1.014;-0.029;0.071;0.004886921960860491;-0.010995574295520782;0.00855211354792118
01:00:0A:00:00:00:00;1724112820;20/08/24;00:13:40;1.014;-0.029;0.07;0.004886921960860491;-0.010995574295520782;0.006108652334660292
01:00:0A:00:00:00:00;1724112821;20/08/24;00:13:41;1.015;-0.027;0.071;0.006108652334660292;-0.010995574295520782;0.0012217304902151227
01:00:0A:00:00:00:00;1724112822;20/08/24;00:13:42;1.015;-0.026;0.071;0.0036651913542300463;-0.012217304669320583;0.0036651913542300463
01:00:0A:00:00:00:00;1724112823;20/08/24;00:13:43;1.016;-0.028;0.071;0.004886921960860491;-0.012217304669320583;-0.0012217304902151227
01:00:0A:00:00:00:00;1724112824;20/08/24;00:13:44;1.017;-0.029;0.071;0.004886921960860491;-0.009773843921720982;0.0
01:00:0A:00:00:00:00;1724112825;20/08/24;00:13:45;1.016;-0.029;0.071;0.0036651913542300463;-0.010995574295520782;0.0073303827084600925
01:00:0A:00:00:00:00;1724112826;20/08/24;00:13:46;1.016;-0.03;0.069;0.0036651913542300463;-0.009773843921720982;0.00855211354792118
01:00:0A:00:00:00:00;1724112827;20/08/24;00:13:47;1.015;-0.027;0.07;0.004886921960860491;-0.00855211354792118;0.006108652334660292
01:00:0A:00:00:00:00;1724112828;20/08/24;00:13:48;1.014;-0.026;0.07;0.0024434609804302454;-0.010995574295520782;0.0073303827084600925
01:00:0A:00:00:00:00;1724112829;20/08/24;00:13:49;1.014;-0.028;0.07;0.004886921960860491;-0.010995574295520782;0.0024434609804302454
01:00:0A:00:00:00:00;1724112830;20/08/24;00:13:50;1.014;-0.028;0.071;0.004886921960860491;-0.010995574295520782;-0.0012217304902151227
01:00:0A:00:00:00:00;1724112831;20/08/24;00:13:51;1.014;-0.03;0.072;0.0024434609804302454;-0.013439035043120384;0.006108652334660292
01:00:0A:00:00:00:00;1724112832;20/08/24;00:13:52;1.015;-0.032;0.071;0.0036651913542300463;-0.010995574295520782;0.004886921960860491
01:00:0A:00:00:00:00;1724112833;20/08/24;00:13:53;1.017;-0.028;0.07;0.004886921960860491;-0.00855211354792118;0.004886921960860491
01:00:0A:00:00:00:00;1724112834;20/08/24;00:13:54;1.017;-0.028;0.071;0.0036651913542300463;-0.013439035043120384;0.00855211354792118
01:00:0A:00:00:00:00;1724112835;20/08/24;00:13:55;1.016;-0.03;0.069;0.004886921960860491;-0.010995574295520782;0.0024434609804302454
01:00:0A:00:00:00:00;1724112836;20/08/24;00:13:56;1.015;-0.028;0.071;0.006108652334660292;-0.009773843921720982;0.0
01:00:0A:00:00:00:00;1724112837;20/08/24;00:13:57;1.014;-0.03;0.071;0.0036651913542300463;-0.013439035043120384;0.0073303827084600925
01:00:0A:00:00:00:00;1724112838;20/08/24;00:13:58;1.015;-0.032;0.07;0.006108652334660292;-0.010995574295520782;0.004886921960860491
01:00:0A:00:00:00:00;1724112839;20/08/24;00:13:59;1.015;-0.029;0.072;0.006108652334660292;-0.00855211354792118;0.004886921960860491
01:00:0A:00:00:00:00;1724112840;20/08/24;00:14:00;1.016;-0.027;0.07;0.004886921960860491;-0.012217304669320583;0.0073303827084600925
01:00:0A:00:00:00:00;1724112841;20/08/24;00:14:01;1.017;-0.029;0.07;0.0073303827084600925;-0.009773843921720982;0.0012217304902151227
01:00:0A:00:00:00:00;1724112842;20/08/24;00:14:02;1.016;-0.029;0.071;0.0073303827084600925;-0.009773843921720982;-0.0012217304902151227
01:00:0A:00:00:00:00;1724112843;20/08/24;00:14:03;1.014;-0.029;0.07;0.006108652334660292;-0.014660765416920185;0.0036651913542300463
01:00:0A:00:00:00:00;1724112844;20/08/24;00:14:04;1.014;-0.031;0.069;0.00855211354792118;-0.010995574295520782;0.0024434609804302454
01:00:0A:00:00:00:00;1724112845;20/08/24;00:14:05;1.015;-0.028;0.071;0.00855211354792118;-0.009773843921720982;0.0036651913542300463
01:00:0A:00:00:00:00;1724112846;20/08/24;00:14:06;1.016;-0.029;0.069;0.006108652334660292;-0.014660765416920185;0.0073303827084600925
01:00:0A:00:00:00:00;1724112847;20/08/24;00:14:07;1.017;-0.028;0.069;0.009773843921720982;-0.009773843921720982;0.0024434609804302454
01:00:0A:00:00:00:00;1724112848;20/08/24;00:14:08;1.016;-0.026;0.071;0.009773843921720982;-0.009773843921720982;0.0
01:00:0A:00:00:00:00;1724112849;20/08/24;00:14:09;1.014;-0.029;0.071;0.00855211354792118;-0.013439035043120384;0.004886921960860491
01:00:0A:00:00:00:00;1724112850;20/08/24;00:14:10;1.015;-0.031;0.069;0.010995574295520782;-0.00855211354792118;0.0012217304902151227
01:00:0A:00:00:00:00;1724112851;20/08/24;00:14:11;1.015;-0.028;0.071;0.010995574295520782;-0.00855211354792118;0.0036651913542300463
01:00:0A:00:00:00:00;1724112852;20/08/24;00:14:12;1.015;-0.028;0.069;0.00855211354792118;-0.013439035043120384;0.0073303827084600925
01:00:0A:00:00:00:00;1724112853;20/08/24;00:14:13;1.016;-0.029;0.069;0.012217304669320583;-0.009773843921720982;0.0012217304902151227
01:00:0A:00:00:00:00;1724112854;20/08/24;00:14:14;1.015;-0.027;0.071;0.010995574295520782;-0.010995574295520782;0.0024434609804302454
01:00:0A:00:00:00:00;1724112855;20/08/24;00:14:15;1.015;-0.03;0.068;0.009773843921720982;-0.014660765416920185;0.004886921960860491
01:00:0A:00:00:00:00;1724112856;20/08/24;00:14:16;1.015;-0.03;0.07;0.013439035043120384;-0.0073303827084600925;0.0
01:00:0A:00:00:00:00;1724112857;20/08/24;00:14:17;1.016;-0.027;0.072;0.012217304669320583;-0.009773843921720982;0.004886921960860491
01:00:0A:00:00:00:00;1724112858;20/08/24;00:14:18;1.016;-0.029;0.069;0.009773843921720982;-0.014660765416920185;0.0073303827084600925
01:00:0A:00:00:00:00;1724112859;20/08/24;00:14:19;1.016;-0.03;0.07;0.013439035043120384;-0.0073303827084600925;0.0024434609804302454
01:00:0A:00:00:00:00;1724112860;20/08/24;00:14:20;1.016;-0.027;0.072;0.012217304669320583;-0.00855211354792118;0.004886921960860491
01:00:0A:00:00:00:00;1724112861;20/08/24;00:14:21;1.015;-0.029;0.07;0.009773843921720982;-0.013439035043120384;0.0073303827084600925
01:00:0A:00:00:00:00;1724112862;20/08/24;00:14:22;1.015;-0.029;0.068;0.013439035043120384;-0.0073303827084600925;0.0012217304902151227
01:00:0A:00:00:00:00;1724112863;20/08/24;00:14:23;1.015;-0.027;0.073;0.012217304669320583;-0.010995574295520782;0.0036651913542300463
01:00:0A:00:00:00:00;1724112864;20/08/24;00:14:24;1.015;-0.03;0.07;0.009773843921720982;-0.014660765416920185;0.0073303827084600925
01:00:0A:00:00:00:00;1724112865;20/08/24;00:14:25;1.015;-0.029;0.07;0.013439035043120384;-0.0073303827084600925;0.0012217304902151227
01:00:0A:00:00:00:00;1724112866;20/08/24;00:14:26;1.015;-0.028;0.071;0.010995574295520782;-0.009773843921720982;0.004886921960860491
01:00:0A:00:00:00:00;1724112867;20/08/24;00:14:27;1.016;-0.031;0.069;0.009773843921720982;-0.013439035043120384;0.0073303827084600925
01:00:0A:00:00:00:00;1724112868;20/08/24;00:14:28;1.016;-0.029;0.069;0.013439035043120384;-0.0073303827084600925;0.0012217304902151227
01:00:0A:00:00:00:00;1724112869;20/08/24;00:14:29;1.016;-0.027;0.073;0.010995574295520782;-0.010995574295520782;0.006108652334660292
01:00:0A:00:00:00:00;1724112870;20/08/24;00:14:30;1.015;-0.031;0.069;0.009773843921720982;-0.014660765416920185;0.0073303827084600925
01:00:0A:00:00:00:00;1724112871;20/08/24;00:14:31;1.014;-0.03;0.069;0.013439035043120384;-0.0073303827084600925;0.0
01:00:0A:00:00:00:00;1724112872;20/08/24;00:14:32;1.013;-0.027;0.073;0.009773843921720982;-0.012217304669320583;0.004886921960860491
01:00:0A:00:00:00:00;1724112873;20/08/24;00:14:33;1.015;-0.031;0.069;0.00855211354792118;-0.014660765416920185;0.004886921960860491
01:00:0A:00:00:00:00;1724112874;20/08/24;00:14:34;1.016;-0.03;0.069;0.012217304669320583;-0.0073303827084600925;0.0
01:00:0A:00:00:00:00;1724112875;20/08/24;00:14:35;1.015;-0.026;0.073;0.009773843921720982;-0.012217304669320583;0.006108652334660292
01:00:0A:00:00:00:00;1724112876;20/08/24;00:14:36;1.016;-0.031;0.07;0.00855211354792118;-0.014660765416920185;0.0073303827084600925
01:00:0A:00:00:00:00;1724112877;20/08/24;00:14:37;1.015;-0.029;0.069;0.013439035043120384;-0.006108652334660292;-0.0012217304902151227
01:00:0A:00:00:00:00;1724112878;20/08/24;00:14:38;1.014;-0.029;0.072;0.00855211354792118;-0.012217304669320583;0.004886921960860491
01:00:0A:00:00:00:00;1724112879;20/08/24;00:14:39;1.014;-0.031;0.067;0.00855211354792118;-0.014660765416920185;0.006108652334660292
01:00:0A:00:00:00:00;1724112880;20/08/24;00:14:40;1.016;-0.028;0.069;0.012217304669320583;-0.006108652334660292;0.0
01:00:0A:00:00:00:00;1724112881;20/08/24;00:14:41;1.016;-0.027;0.072;0.00855211354792118;-0.013439035043120384;0.006108652334660292
01:00:0A:00:00:00:00;1724112882;20/08/24;00:14:42;1.016;-0.03;0.068;0.00855211354792118;-0.014660765416920185;0.004886921960860491
01:00:0A:00:00:00:00;1724112883;20/08/24;00:14:43;1.016;-0.028;0.071;0.012217304669320583;-0.006108652334660292;-0.0024434609804302454
01:00:0A:00:00:00:00;1724112884;20/08/24;00:14:44;1.014;-0.028;0.073;0.00855211354792118;-0.014660765416920185;0.004886921960860491
01:00:0A:00:00:00:00;1724112885;20/08/24;00:14:45;1.015;-0.031;0.069;0.00855211354792118;-0.014660765416920185;0.006108652334660292
01:00:0A:00:00:00:00;1724112886;20/08/24;00:14:46;1.016;-0.029;0.071;0.012217304669320583;-0.006108652334660292;0.0
01:00:0A:00:00:00:00;1724112887;20/08/24;00:14:47;1.017;-0.027;0.073;0.0073303827084600925;-0.013439035043120384;0.0073303827084600925
01:00:0A:00:00:00:00;1724112888;20/08/24;00:14:48;1.016;-0.031;0.069;0.00855211354792118;-0.013439035043120384;0.004886921960860491
01:00:0A:00:00:00:00;1724112889;20/08/24;00:14:49;1.015;-0.028;0.071;0.012217304669320583;-0.004886921960860491;-0.0012217304902151227
01:00:0A:00:00:00:00;1724112890;20/08/24;00:14:50;1.014;-0.027;0.072;0.0073303827084600925;-0.014660765416920185;0.006108652334660292
01:00:0A:00:00:00:00;1724112891;20/08/24;00:14:51;1.012;-0.03;0.068;0.00855211354792118;-0.014660765416920185;0.004886921960860491
01:00:0A:00:00:00:00;1724112892;20/08/24;00:14:52;1.014;-0.028;0.073;0.012217304669320583;-0.004886921960860491;-0.0012217304902151227
01:00:0A:00:00:00:00;1724112893;20/08/24;00:14:53;1.016;-0.027;0.073;0.0073303827084600925;-0.014660765416920185;0.006108652334660292
01:00:0A:00:00:00:00;1724112894;20/08/24;00:14:54;1.017;-0.032;0.066;0.00855211354792118;-0.013439035043120384;0.004886921960860491
01:00:0A:00:00:00:00;1724112895;20/08/24;00:14:55;1.016;-0.027;0.07;0.012217304669320583;-0.004886921960860491;-0.0012217304902151227
01:00:0A:00:00:00:00;1724112896;20/08/24;00:14:56;1.014;-0.027;0.073;0.0073303827084600925;-0.015882495790719986;0.00855211354792118
01:00:0A:00:00:00:00;1724112897;20/08/24;00:14:57;1.014;-0.032;0.068;0.00855211354792118;-0.012217304669320583;0.004886921960860491
01:00:0A:00:00:00:00;1724112898;20/08/24;00:14:58;1.014;-0.028;0.071;0.012217304669320583;-0.004886921960860491;-0.0012217304902151227
01:00:0A:00:00:00:00;1724112899;20/08/24;00:14:59;1.015;-0.029;0.073;0.006108652334660292;-0.015882495790719986;0.009773843921720982
01:00:0A:00:00:00:00;1724112900;20/08/24;00:15:00;1.016;-0.031;0.067;0.009773843921720982;-0.010995574295520782;0.004886921960860491
01:00:0A:00:00:00:00;1724112901;20/08/24;00:15:01;1.016;-0.027;0.073;0.012217304669320583;-0.004886921960860491;0.0012217304902151227
01:00:0A:00:00:00:00;1724112902;20/08/24;00:15:02;1.015;-0.028;0.072;0.006108652334660292;-0.01710422709584236;0.009773843921720982
01:00:0A:00:00:00:00;1724112903;20/08/24;00:15:03;1.014;-0.032;0.067;0.009773843921720982;-0.013439035043120384;0.0036651913542300463
01:00:0A:00:00:00:00;1724112904;20/08/24;00:15:04;1.015;-0.027;0.073;0.012217304669320583;-0.004886921960860491;-0.0012217304902151227
01:00:0A:00:00:00:00;1724112905;20/08/24;00:15:05;1.016;-0.027;0.073;0.006108652334660292;-0.01710422709584236;0.009773843921720982
01:00:0A:00:00:00:00;1724112906;20/08/24;00:15:06;1.016;-0.032;0.067;0.009773843921720982;-0.009773843921720982;0.0036651913542300463
01:00:0A:00:00:00:00;1724112907;20/08/24;00:15:07;1.016;-0.028;0.072;0.012217304669320583;-0.004886921960860491;0.0012217304902151227
01:00:0A:00:00:00:00;1724112908;20/08/24;00:15:08;1.016;-0.029;0.072;0.004886921960860491;-0.018325956538319588;0.010995574295520782
