Source;Epoch timestamp (UTC);Date;Time (UTC);Accel X (G);Accel Y (G);Accel Z (G);Gyro X (rad/s);Gyro Y (rad/s);Gyro Z (rad/s)
01:00:0A:00:00:00:00;1724284800;22/08/24;00:00:00;0.942;0.216;0.143;1.2852604389190674;0.12217304855585098;-0.03420845419168472
01:00:0A:00:00:00:00;1724284801;22/08/24;00:00:01;0.982;-0.071;0.131;1.0128145217895508;-0.27611109614372253;0.8857545852661133
01:00:0A:00:00:00:00;1724284802;22/08/24;00:00:02;0.881;-0.393;0.189;1.5112806558609009;-1.1765265464782715;-0.3591887652873993
01:00:0A:00:00:00:00;1724284803;22/08/24;00:00:03;0.943;-0.034;-0.329;1.6297883987426758;-0.36163222789764404;-1.8008307218551636
01:00:0A:00:00:00:00;1724284804;22/08/24;00:00:04;0.852;0.462;-0.266;1.8387043476104736;1.1166616678237915;-0.6255260109901428
01:00:0A:00:00:00:00;1724284805;22/08/24;00:00:05;0.919;-0.122;0.536;1.5515977144241333;0.5693264007568359;0.7770205736160278
01:00:0A:00:00:00:00;1724284806;22/08/24;00:00:06;0.949;-0.362;0.251;1.6371188163757324;-0.8234463334083557;0.46792274713516235
01:00:0A:00:00:00:00;1724284807;22/08/24;00:00:07;0.902;-0.376;-0.194;2.8710665702819824;-0.919963002204895;-0.9419541358947754
01:00:0A:00:00:00:00;1724284808;22/08/24;00:00:08;0.93;-0.354;-0.091;3.196046829223633;-0.872315526008606;-0.8051203489303589
01:00:0A:00:00:00:00;1724284809;22/08/24;00:00:09;0.966;-0.27;-0.081;3.2143728733062744;-0.43860122561454773;-0.5607742667198181
01:00:0A:00:00:00:00;1724284810;22/08/24;00:00:10;0.976;-0.164;-0.175;2.671924591064453;-0.6902776956558228;-0.38728854060173035
01:00:0A:00:00:00:00;1724284811;22/08/24;00:00:11;1.004;-0.206;0.019;2.744006633758545;-0.24434609711170197;-0.1869247555732727
01:00:0A:00:00:00:00;1724284812;22/08/24;00:00:12;0.991;-0.15;-0.088;2.6254987716674805;0.14416420459747314;-0.0757472887635231
01:00:0A:00:00:00:00;1724284813;22/08/24;00:00:13;1.003;0.094;0.005;2.4495694637298584;-0.13561207056045532;-0.18936821818351746
01:00:0A:00:00:00:00;1724284814;22/08/24;00:00:14;0.997;-0.153;0.171;2.353053092956543;-0.1111774742603302;-0.0012217304902151227
01:00:0A:00:00:00:00;1724284815;22/08/24;00:00:15;1.021;-0.055;0.073;2.040289878845215;-0.3176499307155609;0.46670106053352356
01:00:0A:00:00:00:00;1724284816;22/08/24;00:00:16;0.961;-0.149;0.333;1.9230037927627563;-0.2174680233001709;0.2724458873271942
01:00:0A:00:00:00:00;1724284817;22/08/24;00:00:17;1.017;-0.142;0.09;1.6542229652404785;-0.13805554807186127;0.3078760802745819
01:00:0A:00:00:00:00;1724284818;22/08/24;00:00:18;1.02;0.017;0.165;1.5503759384155273;-0.06475171446800232;-0.1111774742603302
01:00:0A:00:00:00:00;1724284819;22/08/24;00:00:19;1.026;0.0;0.016;1.290147304534912;0.17959438264369965;0.1270599663257599
01:00:0A:00:00:00:00;1724284820;22/08/24;00:00:20;0.978;0.087;0.17;1.1533136367797852;0.19547687470912933;-0.02687807008624077
01:00:0A:00:00:00:00;1724284821;22/08/24;00:00:21;0.976;-0.024;0.104;0.807563841342926;0.045204028487205505;0.3335324227809906
01:00:0A:00:00:00:00;1724284822;22/08/24;00:00:22;0.967;0.074;0.117;0.6731734871864319;-0.16982054710388184;-0.1270599663257599
01:00:0A:00:00:00:00;1724284823;22/08/24;00:00:23;0.978;0.031;0.082;0.40683624148368835;0.31642818450927734;0.3787364363670349
01:00:0A:00:00:00:00;1724284824;22/08/24;00:00:24;0.989;0.032;0.193;0.2480112910270691;-0.4043927788734436;-0.17837265133857727
01:00:0A:00:00:00:00;1724284825;22/08/24;00:00:25;1.035;0.024;-0.048;0.09651670604944229;0.2932153046131134;0.25534167885780334
01:00:0A:00:00:00:00;1724284826;22/08/24;00:00:26;1.021;-0.022;0.311;0.0012217304902151227;-0.0659734457731247;-0.26511549949645996
01:00:0A:00:00:00:00;1724284827;22/08/24;00:00:27;1.022;0.172;0.044;-0.313984751701355;-0.3530800938606262;0.3090977966785431
01:00:0A:00:00:00:00;1724284828;22/08/24;00:00:28;0.933;-0.307;0.148;-0.11362093687057495;0.09773843735456467;0.22357667982578278
01:00:0A:00:00:00:00;1724284829;22/08/24;00:00:29;0.952;0.068;0.109;0.31031954288482666;-0.22357667982578278;-0.8955284357070923
01:00:0A:00:00:00:00;1724284830;22/08/24;00:00:30;0.948;0.101;-0.065;-0.012217304669320583;-0.21868975460529327;0.4764748811721802
01:00:0A:00:00:00:00;1724284831;22/08/24;00:00:31;0.986;0.036;0.033;0.19303341209888458;0.891863226890564;-0.05619959905743599
01:00:0A:00:00:00:00;1724284832;22/08/24;00:00:32;0.875;-0.254;0.478;-0.16859880089759827;-0.37629297375679016;0.7770205736160278
01:00:0A:00:00:00:00;1724284833;22/08/24;00:00:33;0.967;0.015;-0.378;0.513126790523529;0.040317103266716;-0.7525859475135803
01:00:0A:00:00:00:00;1724284834;22/08/24;00:00:34;0.969;0.204;0.253;0.485027015209198;0.8393288850784302;0.2382374405860901
01:00:0A:00:00:00:00;1724284835;22/08/24;00:00:35;0.974;-0.285;0.032;0.44715335965156555;-0.5436700582504272;0.36529743671417236
01:00:0A:00:00:00:00;1724284836;22/08/24;00:00:36;0.961;-0.015;-0.187;0.8417722582817078;-0.26511549949645996;-0.5729915499687195
01:00:0A:00:00:00:00;1724284837;22/08/24;00:00:37;0.976;0.05;0.048;0.8564330339431763;0.6206390857696533;0.0012217304902151227
01:00:0A:00:00:00:00;1724284838;22/08/24;00:00:38;0.97;0.058;0.197;0.4801400899887085;-0.3188716471195221;0.42760565876960754
01:00:0A:00:00:00:00;1724284839;22/08/24;00:00:39;0.993;-0.147;-0.014;0.6096435189247131;-0.24068090319633484;-0.24556782841682434
01:00:0A:00:00:00:00;1724284840;22/08/24;00:00:40;1.012;0.066;0.033;0.6511822938919067;0.06475171446800232;-0.2895500957965851
01:00:0A:00:00:00:00;1724284841;22/08/24;00:00:41;0.993;-0.042;0.13;0.42149701714515686;-0.024434609338641167;0.4056144952774048
01:00:0A:00:00:00:00;1724284842;22/08/24;00:00:42;0.946;-0.228;0.189;0.5827654600143433;-0.3530800938606262;-0.48258352279663086
01:00:0A:00:00:00:00;1724284843;22/08/24;00:00:43;1.049;0.015;0.071;0.41294488310813904;0.13561207056045532;-0.0012217304902151227
01:00:0A:00:00:00:00;1724284844;22/08/24;00:00:44;1.079;0.08;0.158;0.2028072476387024;-0.22846359014511108;0.14782939851284027
01:00:0A:00:00:00:00;1724284845;22/08/24;00:00:45;1.019;-0.512;0.058;0.4813618063926697;-0.23090705275535583;-0.05009094998240471
01:00:0A:00:00:00:00;1724284846;22/08/24;00:00:46;0.858;0.621;-0.138;0.5729915499687195;0.7843509316444397;-0.7379252314567566
01:00:0A:00:00:00:00;1724284847;22/08/24;00:00:47;0.902;-0.357;0.562;0.2272418737411499;-0.5400049090385437;1.5906931161880493
01:00:0A:00:00:00:00;1724284848;22/08/24;00:00:48;0.83;-0.31;-0.407;1.6749924421310425;-0.778242290019989;-1.214400053024292
01:00:0A:00:00:00:00;1724284849;22/08/24;00:00:49;0.931;0.29;-0.115;2.059837579727173;0.6914994716644287;-0.9358454942703247
01:00:0A:00:00:00:00;1724284850;22/08/24;00:00:50;1.034;-0.253;0.001;1.3573424816131592;-0.4960225820541382;1.0690141916275024
01:00:0A:00:00:00:00;1724284851;22/08/24;00:00:51;1.076;0.083;0.172;1.508837103843689;-0.38606682419776917;0.07941248267889023
01:00:0A:00:00:00:00;1724284852;22/08/24;00:00:52;0.969;-0.453;0.375;1.4734070301055908;-0.22479839622974396;0.8833111524581909
01:00:0A:00:00:00:00;1724284853;22/08/24;00:00:53;0.882;-0.738;0.124;1.6798794269561768;-0.7000515460968018;0.9187413454055786
01:00:0A:00:00:00:00;1724284854;22/08/24;00:00:54;1.035;-0.333;0.034;1.7690656185150146;-0.6035348773002625;0.2883284091949463
01:00:0A:00:00:00:00;1724284855;22/08/24;00:00:55;0.992;-0.048;0.183;1.6676621437072754;0.00855211354792118;0.09896016865968704
01:00:0A:00:00:00:00;1724284856;22/08/24;00:00:56;0.901;-0.228;0.222;1.604132056236267;-0.37262779474258423;0.20402899384498596
01:00:0A:00:00:00:00;1724284857;22/08/24;00:00:57;0.957;-0.082;-0.002;1.673770785331726;-1.1728612184524536;-0.2981022298336029
01:00:0A:00:00:00:00;1724284858;22/08/24;00:00:58;1.004;-0.221;0.001;2.024407386779785;-0.09651670604944229;-0.7220427393913269
01:00:0A:00:00:00:00;1724284859;22/08/24;00:00:59;1.032;-0.079;0.105;1.7018704414367676;-0.04886921867728233;0.6145303845405579
01:00:0A:00:00:00:00;1724284860;22/08/24;00:01:00;0.975;-0.27;0.276;1.6811010837554932;-0.32498031854629517;0.42149701714515686
01:00:0A:00:00:00:00;1724284861;22/08/24;00:01:01;0.96;-0.358;0.104;1.6395622491836548;-0.26511549949645996;0.445931613445282
01:00:0A:00:00:00:00;1724284862;22/08/24;00:01:02;0.949;0.184;-0.071;1.5125023126602173;-0.48869219422340393;-0.3237585723400116
01:00:0A:00:00:00:00;1724284863;22/08/24;00:01:03;0.938;-0.111;0.242;1.312138557434082;0.8429940342903137;-0.07819075137376785
01:00:0A:00:00:00:00;1724284864;22/08/24;00:01:04;0.944;0.126;0.143;0.5290092825889587;-0.49846604466438293;0.6108652353286743
01:00:0A:00:00:00:00;1724284865;22/08/24;00:01:05;0.953;-0.181;0.107;0.626747727394104;0.3494149148464203;-0.2431243658065796
01:00:0A:00:00:00:00;1724284866;22/08/24;00:01:06;0.997;0.067;0.139;0.4153883755207062;-0.20036379992961884;0.059864792972803116
01:00:0A:00:00:00:00;1724284867;22/08/24;00:01:07;1.028;-0.099;-0.025;0.3933972120285034;0.1319468915462494;0.21624629199504852
01:00:0A:00:00:00:00;1724284868;22/08/24;00:01:08;1.001;-0.111;0.108;0.5094615817070007;0.08429940044879913;0.03176499158143997
01:00:0A:00:00:00:00;1724284869;22/08/24;00:01:09;0.936;-0.062;0.036;0.48258352279663086;-0.2015855312347412;0.0757472887635231
01:00:0A:00:00:00:00;1724284870;22/08/24;00:01:10;0.951;-0.048;0.119;0.5314527750015259;0.3042108714580536;-0.19303341209888458
01:00:0A:00:00:00:00;1724284871;22/08/24;00:01:11;0.965;-0.084;0.176;0.16982054710388184;-0.9004153609275818;0.4337143301963806
01:00:0A:00:00:00:00;1724284872;22/08/24;00:01:12;0.96;-0.349;-0.162;0.6976081132888794;0.7073819637298584;-0.6878342032432556
01:00:0A:00:00:00:00;1724284873;22/08/24;00:01:13;0.951;0.273;0.311;0.34086278080940247;0.06719517707824707;0.6963863372802734
01:00:0A:00:00:00:00;1724284874;22/08/24;00:01:14;1.041;-0.264;0.07;0.30054569244384766;-0.19914205372333527;0.07819075137376785
01:00:0A:00:00:00:00;1724284875;22/08/24;00:01:15;1.055;0.021;-0.1;0.4495967924594879;-0.13072516024112701;-0.11728612333536148
01:00:0A:00:00:00:00;1724284876;22/08/24;00:01:16;0.96;-0.082;0.327;0.41661006212234497;0.4080579876899719;0.1466076523065567
01:00:0A:00:00:00:00;1724284877;22/08/24;00:01:17;0.965;0.062;0.107;0.18570303916931152;-0.5448917746543884;-0.2480112910270691
01:00:0A:00:00:00:00;1724284878;22/08/24;00:01:18;0.944;-0.04;0.157;0.09040805697441101;0.5583308339118958;0.08307767659425735
01:00:0A:00:00:00:00;1724284879;22/08/24;00:01:19;0.957;-0.03;0.203;-0.14049901068210602;-0.4508185386657715;-0.16004669666290283
01:00:0A:00:00:00:00;1724284880;22/08/24;00:01:20;0.983;0.05;-0.028;-0.2480112910270691;0.1062905490398407;0.22357667982578278
01:00:0A:00:00:00:00;1724284881;22/08/24;00:01:21;1.011;-0.036;0.09;-0.21624629199504852;0.0073303827084600925;0.0354301817715168
01:00:0A:00:00:00:00;1724284882;22/08/24;00:01:22;1.006;0.034;0.109;-0.21135938167572021;-0.1820378452539444;-0.14905111491680145
01:00:0A:00:00:00:00;1724284883;22/08/24;00:01:23;1.034;0.04;0.053;-0.26633724570274353;-0.024434609338641167;0.05009094998240471
01:00:0A:00:00:00:00;1724284884;22/08/24;00:01:24;1.047;-0.05;0.074;-0.21624629199504852;-0.010995574295520782;-0.13561207056045532
01:00:0A:00:00:00:00;1724284885;22/08/24;00:01:25;1.054;0.059;0.116;-0.26145032048225403;-0.03176499158143997;-0.012217304669320583
01:00:0A:00:00:00:00;1724284886;22/08/24;00:01:26;1.047;-0.085;0.036;-0.2431243658065796;-0.08307767659425735;0.07941248267889023
01:00:0A:00:00:00:00;1724284887;22/08/24;00:01:27;0.999;-0.005;0.13;-0.13927726447582245;0.1417207270860672;-0.11850785464048386
01:00:0A:00:00:00:00;1724284888;22/08/24;00:01:28;0.982;-0.026;0.12;-0.2076941877603531;-0.05864306166768074;0.03420845419168472
01:00:0A:00:00:00:00;1724284889;22/08/24;00:01:29;0.998;-0.036;0.027;-0.15515977144241333;0.018325956538319588;-0.0757472887635231
01:00:0A:00:00:00:00;1724284890;22/08/24;00:01:30;1.026;-0.039;0.044;-0.13439035415649414;0.010995574295520782;-0.004886921960860491
01:00:0A:00:00:00:00;1724284891;22/08/24;00:01:31;1.032;-0.065;0.069;-0.12828169763088226;-0.0708603635430336;-0.02076941914856434
01:00:0A:00:00:00:00;1724284892;22/08/24;00:01:32;1.047;0.006;0.077;-0.14049901068210602;-0.09162978082895279;0.06108652427792549
01:00:0A:00:00:00:00;1724284893;22/08/24;00:01:33;1.055;-0.031;0.157;-0.16249015927314758;-0.028099799528717995;0.16982054710388184
01:00:0A:00:00:00:00;1724284894;22/08/24;00:01:34;1.039;0.029;0.081;-0.12217304855585098;-0.04153883829712868;0.025656338781118393
01:00:0A:00:00:00:00;1724284895;22/08/24;00:01:35;1.009;0.054;0.09;-0.0757472887635231;0.0757472887635231;0.03420845419168472
01:00:0A:00:00:00:00;1724284896;22/08/24;00:01:36;0.921;0.024;0.036;-0.036651913076639175;-0.036651913076639175;-0.03298672288656235
01:00:0A:00:00:00:00;1724284897;22/08/24;00:01:37;0.928;0.005;0.04;0.04153883829712868;0.16249015927314758;-0.10995574295520782
01:00:0A:00:00:00:00;1724284898;22/08/24;00:01:38;0.985;-0.029;0.061;-0.015882495790719986;-0.3078760802745819;0.019547687843441963
01:00:0A:00:00:00:00;1724284899;22/08/24;00:01:39;1.068;-0.098;-0.105;0.1514945775270462;0.4862487316131592;-0.08185594528913498
01:00:0A:00:00:00:00;1724284900;22/08/24;00:01:40;0.976;0.088;0.45;-0.17104226350784302;-0.6084217429161072;0.38240164518356323
01:00:0A:00:00:00:00;1724284901;22/08/24;00:01:41;0.952;-0.166;-0.472;0.07330382615327835;-0.0036651913542300463;0.04764748737215996
01:00:0A:00:00:00:00;1724284902;22/08/24;00:01:42;1.043;0.109;0.224;0.26511549949645996;0.3176499307155609;-0.14049901068210602
01:00:0A:00:00:00:00;1724284903;22/08/24;00:01:43;1.022;-0.006;0.158;0.03420845419168472;-0.21502456068992615;0.14538592100143433
01:00:0A:00:00:00:00;1724284904;22/08/24;00:01:44;0.981;-0.078;-0.065;0.15271630883216858;-0.28588491678237915;-0.07941248267889023
01:00:0A:00:00:00:00;1724284905;22/08/24;00:01:45;0.967;0.005;0.148;0.27611109614372253;0.28466320037841797;-0.24068090319633484
01:00:0A:00:00:00:00;1724284906;22/08/24;00:01:46;0.965;-0.016;0.2;0.012217304669320583;-0.3433062732219696;0.28588491678237915
01:00:0A:00:00:00:00;1724284907;22/08/24;00:01:47;0.973;-0.117;0.028;0.20647244155406952;0.05742133408784866;-0.18325956165790558
01:00:0A:00:00:00:00;1724284908;22/08/24;00:01:48;0.999;0.006;0.123;0.22113320231437683;0.15271630883216858;-0.06841690838336945
01:00:0A:00:00:00:00;1724284909;22/08/24;00:01:49;1.015;-0.028;0.155;0.05253440886735916;-0.1160643920302391;0.2028072476387024
01:00:0A:00:00:00:00;1724284910;22/08/24;00:01:50;1.035;-0.17;0.017;0.18570303916931152;0.040317103266716;-0.1014036238193512
01:00:0A:00:00:00:00;1724284911;22/08/24;00:01:51;1.038;0.088;0.12;0.16493360698223114;0.1014036238193512;0.05009094998240471
01:00:0A:00:00:00:00;1724284912;22/08/24;00:01:52;1.036;-0.112;0.086;0.1111774742603302;-0.024434609338641167;0.1514945775270462
01:00:0A:00:00:00:00;1724284913;22/08/24;00:01:53;1.023;-0.035;0.042;0.21991148591041565;-0.02321287989616394;-0.16859880089759827
01:00:0A:00:00:00:00;1724284914;22/08/24;00:01:54;1.005;0.01;0.09;0.16982054710388184;-0.0036651913542300463;-0.015882495790719986
01:00:0A:00:00:00:00;1724284915;22/08/24;00:01:55;1.014;-0.073;0.109;0.11239919811487198;-0.06841690838336945;0.11239919811487198
01:00:0A:00:00:00:00;1724284916;22/08/24;00:01:56;1.042;-0.058;0.072;0.18081611394882202;0.04398229718208313;-0.04398229718208313
01:00:0A:00:00:00:00;1724284917;22/08/24;00:01:57;1.053;0.079;0.082;0.14294245839118958;0.06475171446800232;0.015882495790719986
01:00:0A:00:00:00:00;1724284918;22/08/24;00:01:58;1.035;-0.104;0.053;0.13316862285137177;-0.02076941914856434;0.18570303916931152
01:00:0A:00:00:00:00;1724284919;22/08/24;00:01:59;0.943;0.06;0.051;0.21991148591041565;-0.06841690838336945;-0.3604104816913605
01:00:0A:00:00:00:00;1724284920;22/08/24;00:02:00;0.898;-0.128;0.064;0.0708603635430336;-0.08185594528913498;0.5864306092262268
01:00:0A:00:00:00:00;1724284921;22/08/24;00:02:01;0.926;-0.028;0.124;0.4105014204978943;-0.21624629199504852;-1.056796908378601
01:00:0A:00:00:00:00;1724284922;22/08/24;00:02:02;0.921;0.124;0.085;-0.09651670604944229;0.3017674386501312;1.2486084699630737
01:00:0A:00:00:00:00;1724284923;22/08/24;00:02:03;0.917;-0.316;0.165;0.34208452701568604;-0.07452555745840073;-0.8429940342903137
01:00:0A:00:00:00:00;1724284924;22/08/24;00:02:04;1.029;0.235;-0.013;0.1722639948129654;-0.06108652427792549;-0.004886921960860491
01:00:0A:00:00:00:00;1724284925;22/08/24;00:02:05;1.052;-0.24;0.057;0.11484266817569733;0.09773843735456467;0.2981022298336029
01:00:0A:00:00:00:00;1724284926;22/08/24;00:02:06;1.0;0.028;0.149;0.161268413066864;0.02687807008624077;-0.15515977144241333
01:00:0A:00:00:00:00;1724284927;22/08/24;00:02:07;0.963;-0.025;0.024;-0.0073303827084600925;-0.14294245839118958;0.4288274049758911
01:00:0A:00:00:00:00;1724284928;22/08/24;00:02:08;0.973;0.008;0.086;0.18814648687839508;0.25534167885780334;-0.2370157092809677
01:00:0A:00:00:00:00;1724284929;22/08/24;00:02:09;0.993;0.117;0.131;-0.01710422709584236;-0.28466320037841797;0.10873401165008545
01:00:0A:00:00:00:00;1724284930;22/08/24;00:02:10;1.037;-0.081;-0.069;0.080634206533432;0.01710422709584236;-0.14782939851284027
01:00:0A:00:00:00:00;1724284931;22/08/24;00:02:11;1.02;-0.016;0.181;0.12217304855585098;0.08185594528913498;-0.1722639948129654
01:00:0A:00:00:00:00;1724284932;22/08/24;00:02:12;0.997;-0.053;0.081;-0.018325956538319588;-0.26022857427597046;0.1466076523065567
01:00:0A:00:00:00:00;1724284933;22/08/24;00:02:13;0.982;-0.071;0.061;0.08185594528913498;0.08307767659425735;0.07819075137376785
01:00:0A:00:00:00:00;1724284934;22/08/24;00:02:14;1.005;-0.01;0.155;0.10873401165008545;-0.07941248267889023;-0.019547687843441963
01:00:0A:00:00:00:00;1724284935;22/08/24;00:02:15;1.051;0.039;0.061;0.08674286305904388;-0.045204028487205505;0.03787364438176155
01:00:0A:00:00:00:00;1724284936;22/08/24;00:02:16;1.054;-0.09;0.095;0.16493360698223114;0.06352998316287994;-0.08674286305904388
01:00:0A:00:00:00:00;1724284937;22/08/24;00:02:17;1.036;0.018;0.106;0.16371189057826996;-0.0073303827084600925;-0.13927726447582245
01:00:0A:00:00:00:00;1724284938;22/08/24;00:02:18;1.015;-0.1;0.064;0.10873401165008545;-0.009773843921720982;0.19058994948863983
01:00:0A:00:00:00:00;1724284939;22/08/24;00:02:19;0.994;-0.044;0.094;0.18814648687839508;0.05864306166768074;-0.05619959905743599
01:00:0A:00:00:00:00;1724284940;22/08/24;00:02:20;0.999;0.016;0.065;0.1258382350206375;-0.03420845419168472;0.10018189996480942
01:00:0A:00:00:00:00;1724284941;22/08/24;00:02:21;0.992;-0.043;0.053;0.1368338167667389;-0.036651913076639175;0.09285151958465576
01:00:0A:00:00:00:00;1724284942;22/08/24;00:02:22;0.976;0.001;0.043;0.14782939851284027;-0.22602014243602753;-0.18325956165790558
01:00:0A:00:00:00:00;1724284943;22/08/24;00:02:23;0.966;0.057;0.049;-0.04153883829712868;0.21991148591041565;0.16249015927314758
01:00:0A:00:00:00:00;1724284944;22/08/24;00:02:24;0.996;-0.061;0.123;-0.10751228034496307;-0.08674286305904388;-0.1576032191514969
01:00:0A:00:00:00:00;1724284945;22/08/24;00:02:25;1.035;0.011;0.082;-0.09773843735456467;0.0012217304902151227;0.019547687843441963
01:00:0A:00:00:00:00;1724284946;22/08/24;00:02:26;1.085;-0.05;0.101;-0.08918632566928864;-0.00855211354792118;0.02687807008624077
01:00:0A:00:00:00:00;1724284947;22/08/24;00:02:27;1.093;0.015;0.082;-0.08552113175392151;0.02687807008624077;0.0073303827084600925
01:00:0A:00:00:00:00;1724284948;22/08/24;00:02:28;1.047;-0.072;0.068;-0.08307767659425735;0.006108652334660292;0.1160643920302391
01:00:0A:00:00:00:00;1724284949;22/08/24;00:02:29;0.991;0.037;0.078;-0.05375614017248154;0.010995574295520782;-0.11850785464048386
01:00:0A:00:00:00:00;1724284950;22/08/24;00:02:30;0.909;-0.067;0.075;-0.10995574295520782;-0.05742133408784866;0.3274237811565399
01:00:0A:00:00:00:00;1724284951;22/08/24;00:02:31;0.938;0.014;0.097;0.07941248267889023;0.03420845419168472;-0.5216788649559021
01:00:0A:00:00:00:00;1724284952;22/08/24;00:02:32;0.953;0.05;0.105;-0.27611109614372253;-0.2981022298336029;0.8662068843841553
01:00:0A:00:00:00:00;1724284953;22/08/24;00:02:33;0.95;-0.241;0.0;0.26022857427597046;0.3176499307155609;-0.9175195693969727
01:00:0A:00:00:00:00;1724284954;22/08/24;00:02:34;0.957;0.278;0.137;-0.08918632566928864;-0.19058994948863983;0.5057964324951172
01:00:0A:00:00:00:00;1724284955;22/08/24;00:02:35;1.046;-0.238;0.0;0.02687807008624077;0.04764748737215996;-0.22846359014511108
01:00:0A:00:00:00:00;1724284956;22/08/24;00:02:36;1.057;0.165;0.167;-0.02321287989616394;0.0012217304902151227;-0.06108652427792549
01:00:0A:00:00:00:00;1724284957;22/08/24;00:02:37;1.043;-0.216;0.0;-0.08429940044879913;-0.12217304855585098;0.33719760179519653
01:00:0A:00:00:00:00;1724284958;22/08/24;00:02:38;0.998;0.142;0.146;0.04398229718208313;0.20891590416431427;-0.322536826133728
01:00:0A:00:00:00:00;1724284959;22/08/24;00:02:39;0.965;-0.033;0.057;-0.19547687470912933;-0.2076941877603531;0.4752531349658966
01:00:0A:00:00:00:00;1724284960;22/08/24;00:02:40;0.969;-0.026;0.042;0.07819075137376785;0.21624629199504852;-0.4080579876899719
01:00:0A:00:00:00:00;1724284961;22/08/24;00:02:41;0.984;0.097;0.146;-0.12339477241039276;-0.12339477241039276;0.1368338167667389
01:00:0A:00:00:00:00;1724284962;22/08/24;00:02:42;1.033;-0.134;0.011;-0.09040805697441101;-0.040317103266716;-0.03787364438176155
01:00:0A:00:00:00:00;1724284963;22/08/24;00:02:43;1.045;-0.015;0.077;-0.02321287989616394;0.0757472887635231;-0.0708603635430336
01:00:0A:00:00:00:00;1724284964;22/08/24;00:02:44;1.024;0.0;0.14;-0.1368338167667389;-0.07696902006864548;0.12095131725072861
01:00:0A:00:00:00:00;1724284965;22/08/24;00:02:45;1.019;-0.053;0.027;-0.1319468915462494;-0.161268413066864;0.10262535512447357
01:00:0A:00:00:00:00;1724284966;22/08/24;00:02:46;1.004;0.038;0.124;-0.05253440886735916;0.12339477241039276;-0.07941248267889023
01:00:0A:00:00:00:00;1724284967;22/08/24;00:02:47;1.002;0.001;0.154;-0.12095131725072861;-0.05253440886735916;-0.013439035043120384
01:00:0A:00:00:00:00;1724284968;22/08/24;00:02:48;0.998;-0.05;0.031;-0.06963863223791122;-0.012217304669320583;-0.09040805697441101
01:00:0A:00:00:00:00;1724284969;22/08/24;00:02:49;0.994;-0.041;0.056;-0.021991148591041565;0.1270599663257599;-0.036651913076639175
01:00:0A:00:00:00:00;1724284970;22/08/24;00:02:50;0.996;-0.052;0.09;-0.06841690838336945;-0.1563815027475357;0.013439035043120384
01:00:0A:00:00:00:00;1724284971;22/08/24;00:02:51;1.016;-0.043;0.023;-0.02076941914856434;-0.06719517707824707;-0.014660765416920185
01:00:0A:00:00:00:00;1724284972;22/08/24;00:02:52;1.013;-0.009;0.116;0.0;0.012217304669320583;0.025656338781118393
01:00:0A:00:00:00:00;1724284973;22/08/24;00:02:53;1.008;-0.025;0.148;-0.024434609338641167;-0.05253440886735916;-0.018325956538319588
01:00:0A:00:00:00:00;1724284974;22/08/24;00:02:54;1.013;-0.025;0.071;-0.0036651913542300463;0.012217304669320583;-0.06230825558304787
01:00:0A:00:00:00:00;1724284975;22/08/24;00:02:55;1.03;-0.019;0.102;-0.02076941914856434;0.08674286305904388;0.03787364438176155
01:00:0A:00:00:00:00;1724284976;22/08/24;00:02:56;1.04;-0.048;0.115;-0.04886921867728233;-0.04886921867728233;0.05742133408784866
01:00:0A:00:00:00:00;1724284977;22/08/24;00:02:57;1.039;0.006;0.057;-0.03420845419168472;-0.05009094998240471;0.009773843921720982
01:00:0A:00:00:00:00;1724284978;22/08/24;00:02:58;1.0;0.007;0.126;-0.030543262138962746;0.08552113175392151;0.009773843921720982
01:00:0A:00:00:00:00;1724284979;22/08/24;00:02:59;0.984;-0.021;0.105;-0.039095375686883926;-0.05497787147760391;-0.05864306166768074
01:00:0A:00:00:00:00;1724284980;22/08/24;00:03:00;0.991;-0.025;0.07;-0.024434609338641167;0.045204028487205505;-0.04153883829712868
01:00:0A:00:00:00:00;1724284981;22/08/24;00:03:01;1.013;-0.043;0.095;-0.04398229718208313;0.02076941914856434;0.021991148591041565
01:00:0A:00:00:00:00;1724284982;22/08/24;00:03:02;1.029;-0.048;0.07;-0.04642575979232788;-0.05497787147760391;0.028099799528717995
01:00:0A:00:00:00:00;1724284983;22/08/24;00:03:03;1.016;0.005;0.047;-0.039095375686883926;-0.03787364438176155;0.02321287989616394
01:00:0A:00:00:00:00;1724284984;22/08/24;00:03:04;0.996;-0.019;0.086;-0.042760565876960754;-0.051312677562236786;0.030543262138962746
01:00:0A:00:00:00:00;1724284985;22/08/24;00:03:05;0.991;-0.031;0.09;-0.021991148591041565;-0.0659734457731247;-0.059864792972803116
01:00:0A:00:00:00:00;1724284986;22/08/24;00:03:06;1.022;-0.022;0.084;-0.028099799528717995;-0.0073303827084600925;0.0073303827084600925
01:00:0A:00:00:00:00;1724284987;22/08/24;00:03:07;1.045;-0.039;0.108;-0.040317103266716;-0.0012217304902151227;0.06352998316287994
01:00:0A:00:00:00:00;1724284988;22/08/24;00:03:08;1.045;-0.022;0.087;-0.030543262138962746;-0.024434609338641167;0.040317103266716
01:00:0A:00:00:00:00;1724284989;22/08/24;00:03:09;1.017;0.011;0.097;-0.02687807008624077;0.036651913076639175;0.019547687843441963
01:00:0A:00:00:00:00;1724284990;22/08/24;00:03:10;1.003;-0.012;0.088;-0.03420845419168472;0.0036651913542300463;0.036651913076639175
01:00:0A:00:00:00:00;1724284991;22/08/24;00:03:11;0.996;-0.014;0.093;-0.015882495790719986;-0.004886921960860491;-0.05864306166768074
01:00:0A:00:00:00:00;1724284992;22/08/24;00:03:12;1.005;-0.018;0.103;-0.021991148591041565;0.012217304669320583;-0.019547687843441963
01:00:0A:00:00:00:00;1724284993;22/08/24;00:03:13;1.006;-0.042;0.094;-0.024434609338641167;0.004886921960860491;0.028099799528717995
01:00:0A:00:00:00:00;1724284994;22/08/24;00:03:14;0.997;-0.029;0.087;-0.004886921960860491;0.03787364438176155;0.013439035043120384
01:00:0A:00:00:00:00;1724284995;22/08/24;00:03:15;0.995;-0.013;0.081;-0.0073303827084600925;0.02321287989616394;0.03176499158143997
01:00:0A:00:00:00:00;1724284996;22/08/24;00:03:16;1.02;-0.021;0.059;-0.0036651913542300463;-0.04886921867728233;-0.019547687843441963
01:00:0A:00:00:00:00;1724284997;22/08/24;00:03:17;1.034;-0.014;0.053;0.0073303827084600925;-0.05742133408784866;-0.042760565876960754
01:00:0A:00:00:00:00;1724284998;22/08/24;00:03:18;1.032;-0.024;0.103;-0.004886921960860491;-0.08307767659425735;0.0024434609804302454
01:00:0A:00:00:00:00;1724284999;22/08/24;00:03:19;1.019;-0.04;0.103;-0.00855211354792118;-0.06963863223791122;0.02932153083384037
01:00:0A:00:00:00:00;1724285000;22/08/24;00:03:20;0.994;-0.015;0.116;-0.0012217304902151227;-0.0024434609804302454;0.010995574295520782
01:00:0A:00:00:00:00;1724285001;22/08/24;00:03:21;0.985;-0.01;0.117;-0.015882495790719986;0.0;0.04398229718208313
01:00:0A:00:00:00:00;1724285002;22/08/24;00:03:22;1.004;-0.006;0.097;-0.0024434609804302454;0.00855211354792118;-0.028099799528717995
01:00:0A:00:00:00:00;1724285003;22/08/24;00:03:23;1.024;0.0;0.086;0.0012217304902151227;0.013439035043120384;-0.040317103266716
01:00:0A:00:00:00:00;1724285004;22/08/24;00:03:24;1.035;-0.028;0.091;-0.0036651913542300463;0.0036651913542300463;-0.014660765416920185
01:00:0A:00:00:00:00;1724285005;22/08/24;00:03:25;1.031;-0.037;0.08;0.00855211354792118;0.012217304669320583;-0.010995574295520782
01:00:0A:00:00:00:00;1724285006;22/08/24;00:03:26;1.029;-0.024;0.079;0.018325956538319588;0.02687807008624077;-0.0012217304902151227
01:00:0A:00:00:00:00;1724285007;22/08/24;00:03:27;1.014;-0.035;0.074;0.015882495790719986;-0.0036651913542300463;0.036651913076639175
01:00:0A:00:00:00:00;1724285008;22/08/24;00:03:28;0.997;-0.038;0.064;0.03298672288656235;-0.025656338781118393;0.004886921960860491
01:00:0A:00:00:00:00;1724285009;22/08/24;00:03:29;0.977;-0.031;0.079;0.045204028487205505;-0.05375614017248154;-0.010995574295520782
01:00:0A:00:00:00:00;1724285010;22/08/24;00:03:30;0.987;-0.032;0.098;0.04398229718208313;-0.07452555745840073;0.0073303827084600925
01:00:0A:00:00:00:00;1724285011;22/08/24;00:03:31;1.03;-0.036;0.114;0.06108652427792549;0.004886921960860491;-0.009773843921720982
01:00:0A:00:00:00:00;1724285012;22/08/24;00:03:32;1.053;-0.009;0.099;0.0708603635430336;0.042760565876960754;0.0024434609804302454
01:00:0A:00:00:00:00;1724285013;22/08/24;00:03:33;1.055;-0.044;0.078;0.07819075137376785;0.039095375686883926;0.03298672288656235
01:00:0A:00:00:00:00;1724285014;22/08/24;00:03:34;1.009;-0.02;0.058;0.08796459436416626;-0.00855211354792118;0.0012217304902151227
01:00:0A:00:00:00:00;1724285015;22/08/24;00:03:35;0.975;-0.027;0.06;0.080634206533432;-0.05009094998240471;0.04764748737215996
01:00:0A:00:00:00:00;1724285016;22/08/24;00:03:36;0.973;-0.009;0.093;0.09773843735456467;-0.07696902006864548;-0.03176499158143997
01:00:0A:00:00:00:00;1724285017;22/08/24;00:03:37;1.0;0.0;0.101;0.08307767659425735;-0.051312677562236786;0.019547687843441963
01:00:0A:00:00:00:00;1724285018;22/08/24;00:03:38;1.037;-0.035;0.104;0.1014036238193512;0.03420845419168472;-0.02932153083384037
01:00:0A:00:00:00:00;1724285019;22/08/24;00:03:39;1.04;-0.024;0.097;0.09896016865968704;0.042760565876960754;-0.02687807008624077
01:00:0A:00:00:00:00;1724285020;22/08/24;00:03:40;1.019;-0.048;0.071;0.07452555745840073;-0.004886921960860491;0.04153883829712868
01:00:0A:00:00:00:00;1724285021;22/08/24;00:03:41;1.012;-0.055;0.07;0.0757472887635231;-0.014660765416920185;0.06963863223791122
01:00:0A:00:00:00:00;1724285022;22/08/24;00:03:42;1.012;-0.011;0.085;0.0659734457731247;-0.04153883829712868;0.08185594528913498
01:00:0A:00:00:00:00;1724285023;22/08/24;00:03:43;1.014;0.01;0.095;0.059864792972803116;-0.013439035043120384;0.04642575979232788
01:00:0A:00:00:00:00;1724285024;22/08/24;00:03:44;1.005;0.011;0.089;0.06963863223791122;0.02932153083384037;-0.012217304669320583
01:00:0A:00:00:00:00;1724285025;22/08/24;00:03:45;0.978;0.003;0.073;0.0708603635430336;-0.009773843921720982;-0.07452555745840073
01:00:0A:00:00:00:00;1724285026;22/08/24;00:03:46;0.975;-0.006;0.057;0.05375614017248154;-0.05742133408784866;-0.036651913076639175
01:00:0A:00:00:00:00;1724285027;22/08/24;00:03:47;1.022;-0.037;0.067;0.06352998316287994;-0.05864306166768074;-0.05864306166768074
01:00:0A:00:00:00:00;1724285028;22/08/24;00:03:48;1.058;-0.016;0.099;0.04886921867728233;-0.06841690838336945;0.004886921960860491
01:00:0A:00:00:00:00;1724285029;22/08/24;00:03:49;1.086;-0.047;0.074;0.06230825558304787;0.019547687843441963;0.045204028487205505
01:00:0A:00:00:00:00;1724285030;22/08/24;00:03:50;1.066;0.013;0.117;0.06352998316287994;0.06719517707824707;0.006108652334660292
01:00:0A:00:00:00:00;1724285031;22/08/24;00:03:51;0.982;-0.055;0.032;0.05253440886735916;-0.06108652427792549;0.14416420459747314
01:00:0A:00:00:00:00;1724285032;22/08/24;00:03:52;0.925;0.015;0.08;0.13316862285137177;0.1466076523065567;-0.161268413066864
01:00:0A:00:00:00:00;1724285033;22/08/24;00:03:53;0.957;-0.012;0.058;-0.02687807008624077;-0.2626720666885376;0.31031954288482666
01:00:0A:00:00:00:00;1724285034;22/08/24;00:03:54;1.021;-0.118;0.0;0.24434609711170197;0.22846359014511108;-0.445931613445282
01:00:0A:00:00:00:00;1724285035;22/08/24;00:03:55;1.006;0.212;0.206;-0.06963863223791122;-0.24556782841682434;0.37751471996307373
01:00:0A:00:00:00:00;1724285036;22/08/24;00:03:56;1.024;-0.332;-0.1;0.08307767659425735;-0.08429940044879913;0.014660765416920185
01:00:0A:00:00:00:00;1724285037;22/08/24;00:03:57;1.026;0.216;0.186;0.17470745742321014;0.1270599663257599;-0.22479839622974396
01:00:0A:00:00:00:00;1724285038;22/08/24;00:03:58;1.016;-0.089;0.076;-0.045204028487205505;-0.11362093687057495;0.44715335965156555
01:00:0A:00:00:00:00;1724285039;22/08/24;00:03:59;0.986;0.006;0.062;0.1673770695924759;0.08552113175392151;-0.22846359014511108
01:00:0A:00:00:00:00;1724285040;22/08/24;00:04:00;0.963;0.072;0.084;0.059864792972803116;0.021991148591041565;0.09407324343919754
01:00:0A:00:00:00:00;1724285041;22/08/24;00:04:01;1.013;-0.05;0.076;0.045204028487205505;-0.1160643920302391;-0.03176499158143997
01:00:0A:00:00:00:00;1724285042;22/08/24;00:04:02;1.04;-0.026;0.05;0.11850785464048386;0.025656338781118393;-0.1514945775270462
01:00:0A:00:00:00:00;1724285043;22/08/24;00:04:03;1.047;0.03;0.143;0.04398229718208313;-0.0024434609804302454;0.04153883829712868
01:00:0A:00:00:00:00;1724285044;22/08/24;00:04:04;1.039;-0.113;0.059;0.040317103266716;-0.051312677562236786;0.10873401165008545
01:00:0A:00:00:00:00;1724285045;22/08/24;00:04:05;1.012;0.012;0.083;0.11850785464048386;0.09651670604944229;-0.09651670604944229
01:00:0A:00:00:00:00;1724285046;22/08/24;00:04:06;1.0;-0.001;0.086;0.025656338781118393;-0.0073303827084600925;0.1417207270860672
01:00:0A:00:00:00:00;1724285047;22/08/24;00:04:07;0.998;-0.056;0.054;0.06352998316287994;-0.05497787147760391;0.02687807008624077
01:00:0A:00:00:00:00;1724285048;22/08/24;00:04:08;1.004;0.003;0.074;0.1111774742603302;0.015882495790719986;-0.07941248267889023
01:00:0A:00:00:00:00;1724285049;22/08/24;00:04:09;1.009;0.002;0.101;0.051312677562236786;-0.03298672288656235;0.06475171446800232
01:00:0A:00:00:00:00;1724285050;22/08/24;00:04:10;1.016;-0.071;0.075;0.07330382615327835;-0.019547687843441963;0.0024434609804302454
01:00:0A:00:00:00:00;1724285051;22/08/24;00:04:11;1.021;-0.003;0.088;0.10018189996480942;0.025656338781118393;-0.045204028487205505
01:00:0A:00:00:00:00;1724285052;22/08/24;00:04:12;1.026;-0.001;0.098;0.05497787147760391;0.015882495790719986;0.06719517707824707
01:00:0A:00:00:00:00;1724285053;22/08/24;00:04:13;1.026;-0.058;0.067;0.07696902006864548;-0.0012217304902151227;0.02932153083384037
01:00:0A:00:00:00:00;1724285054;22/08/24;00:04:14;1.006;0.0;0.081;0.10506881773471832;0.006108652334660292;-0.06719517707824707
01:00:0A:00:00:00:00;1724285055;22/08/24;00:04:15;0.992;-0.017;0.085;0.05253440886735916;-0.04153883829712868;0.08307767659425735
01:00:0A:00:00:00:00;1724285056;22/08/24;00:04:16;0.988;-0.039;0.08;0.08185594528913498;-0.045204028487205505;-0.02932153083384037
01:00:0A:00:00:00:00;1724285057;22/08/24;00:04:17;1.001;-0.003;0.091;0.09040805697441101;-0.04764748737215996;-0.03298672288656235
01:00:0A:00:00:00:00;1724285058;22/08/24;00:04:18;1.031;-0.007;0.107;0.06475171446800232;-0.0073303827084600925;0.051312677562236786
01:00:0A:00:00:00:00;1724285059;22/08/24;00:04:19;1.04;-0.048;0.087;0.09529497474431992;0.019547687843441963;-0.004886921960860491
01:00:0A:00:00:00:00;1724285060;22/08/24;00:04:20;1.028;0.004;0.084;0.11484266817569733;0.024434609338641167;-0.059864792972803116
01:00:0A:00:00:00:00;1724285061;22/08/24;00:04:21;1.004;-0.027;0.074;0.09162978082895279;0.0073303827084600925;0.03787364438176155
01:00:0A:00:00:00:00;1724285062;22/08/24;00:04:22;0.997;-0.045;0.071;0.11972958594560623;-0.012217304669320583;-0.025656338781118393
01:00:0A:00:00:00:00;1724285063;22/08/24;00:04:23;1.005;-0.022;0.076;0.11972958594560623;-0.06108652427792549;-0.014660765416920185
01:00:0A:00:00:00:00;1724285064;22/08/24;00:04:24;1.016;-0.03;0.087;0.10262535512447357;-0.04398229718208313;0.05497787147760391
01:00:0A:00:00:00:00;1724285065;22/08/24;00:04:25;1.021;-0.037;0.104;0.11484266817569733;0.0012217304902151227;0.02687807008624077
01:00:0A:00:00:00:00;1724285066;22/08/24;00:04:26;1.016;-0.002;0.088;0.11239919811487198;0.0024434609804302454;0.018325956538319588
01:00:0A:00:00:00:00;1724285067;22/08/24;00:04:27;1.001;-0.012;0.079;0.10262535512447357;0.03420845419168472;0.04886921867728233
01:00:0A:00:00:00:00;1724285068;22/08/24;00:04:28;1.0;-0.03;0.073;0.1160643920302391;-0.02687807008624077;-0.021991148591041565
01:00:0A:00:00:00:00;1724285069;22/08/24;00:04:29;1.009;-0.014;0.07;0.10995574295520782;-0.04398229718208313;-0.009773843921720982
01:00:0A:00:00:00:00;1724285070;22/08/24;00:04:30;1.024;-0.022;0.085;0.10384709388017654;-0.01710422709584236;0.004886921960860491
01:00:0A:00:00:00:00;1724285071;22/08/24;00:04:31;1.027;-0.034;0.1;0.10751228034496307;-0.021991148591041565;0.0012217304902151227
01:00:0A:00:00:00:00;1724285072;22/08/24;00:04:32;1.021;-0.016;0.089;0.10995574295520782;-0.00855211354792118;-0.009773843921720982
01:00:0A:00:00:00:00;1724285073;22/08/24;00:04:33;1.015;-0.027;0.085;0.10873401165008545;0.018325956538319588;0.012217304669320583
01:00:0A:00:00:00:00;1724285074;22/08/24;00:04:34;1.007;-0.037;0.088;0.10873401165008545;0.0012217304902151227;0.004886921960860491
01:00:0A:00:00:00:00;1724285075;22/08/24;00:04:35;1.014;-0.033;0.076;0.1014036238193512;-0.010995574295520782;0.018325956538319588
01:00:0A:00:00:00:00;1724285076;22/08/24;00:04:36;1.028;-0.026;0.079;0.09773843735456467;-0.0024434609804302454;0.05497787147760391
01:00:0A:00:00:00:00;1724285077;22/08/24;00:04:37;1.025;-0.011;0.093;0.09651670604944229;-0.00855211354792118;0.024434609338641167
01:00:0A:00:00:00:00;1724285078;22/08/24;00:04:38;1.013;-0.006;0.077;0.09285151958465576;-0.03787364438176155;0.0024434609804302454
01:00:0A:00:00:00:00;1724285079;22/08/24;00:04:39;0.991;-0.021;0.088;0.09407324343919754;-0.014660765416920185;-0.004886921960860491
01:00:0A:00:00:00:00;1724285080;22/08/24;00:04:40;0.983;-0.027;0.096;0.08796459436416626;-0.045204028487205505;-0.015882495790719986
01:00:0A:00:00:00:00;1724285081;22/08/24;00:04:41;1.009;-0.026;0.093;0.08552113175392151;-0.042760565876960754;-0.00855211354792118
01:00:0A:00:00:00:00;1724285082;22/08/24;00:04:42;1.03;-0.027;0.096;0.08674286305904388;0.013439035043120384;0.014660765416920185
01:00:0A:00:00:00:00;1724285083;22/08/24;00:04:43;1.045;-0.029;0.103;0.08429940044879913;0.03176499158143997;0.03176499158143997
01:00:0A:00:00:00:00;1724285084;22/08/24;00:04:44;1.041;-0.016;0.069;0.08796459436416626;0.004886921960860491;0.01710422709584236
01:00:0A:00:00:00:00;1724285085;22/08/24;00:04:45;1.004;-0.026;0.079;0.09773843735456467;0.024434609338641167;0.0
01:00:0A:00:00:00:00;1724285086;22/08/24;00:04:46;0.98;-0.037;0.081;0.09651670604944229;-0.0354301817715168;-0.004886921960860491
01:00:0A:00:00:00:00;1724285087;22/08/24;00:04:47;0.988;-0.039;0.076;0.09773843735456467;-0.024434609338641167;0.019547687843441963
01:00:0A:00:00:00:00;1724285088;22/08/24;00:04:48;1.022;-0.04;0.092;0.10506881773471832;-0.015882495790719986;0.028099799528717995
01:00:0A:00:00:00:00;1724285089;22/08/24;00:04:49;1.037;-0.027;0.097;0.1014036238193512;-0.030543262138962746;0.04764748737215996
01:00:0A:00:00:00:00;1724285090;22/08/24;00:04:50;1.038;-0.014;0.084;0.10262535512447357;-0.010995574295520782;0.04153883829712868
01:00:0A:00:00:00:00;1724285091;22/08/24;00:04:51;1.016;-0.005;0.099;0.10506881773471832;0.013439035043120384;0.00855211354792118
01:00:0A:00:00:00:00;1724285092;22/08/24;00:04:52;0.989;-0.009;0.093;0.09651670604944229;-0.0354301817715168;-0.02076941914856434
01:00:0A:00:00:00:00;1724285093;22/08/24;00:04:53;0.985;-0.017;0.091;0.09285151958465576;-0.010995574295520782;-0.02932153083384037
01:00:0A:00:00:00:00;1724285094;22/08/24;00:04:54;1.011;-0.027;0.097;0.08429940044879913;-0.024434609338641167;-0.040317103266716
01:00:0A:00:00:00:00;1724285095;22/08/24;00:04:55;1.039;-0.034;0.096;0.06475171446800232;-0.012217304669320583;0.030543262138962746
01:00:0A:00:00:00:00;1724285096;22/08/24;00:04:56;1.044;-0.035;0.093;0.06230825558304787;0.010995574295520782;0.04764748737215996
01:00:0A:00:00:00:00;1724285097;22/08/24;00:04:57;1.019;-0.009;0.092;0.05864306166768074;0.02687807008624077;0.030543262138962746
01:00:0A:00:00:00:00;1724285098;22/08/24;00:04:58;1.0;-0.006;0.075;0.04642575979232788;0.0;0.039095375686883926
01:00:0A:00:00:00:00;1724285099;22/08/24;00:04:59;0.981;-0.012;0.072;0.04886921867728233;-0.013439035043120384;0.0036651913542300463
01:00:0A:00:00:00:00;1724285100;22/08/24;00:05:00;0.989;-0.012;0.073;0.04642575979232788;-0.042760565876960754;-0.013439035043120384
01:00:0A:00:00:00:00;1724285101;22/08/24;00:05:01;1.02;-0.021;0.081;0.04153883829712868;-0.045204028487205505;-0.012217304669320583
01:00:0A:00:00:00:00;1724285102;22/08/24;00:05:02;1.032;-0.026;0.093;0.039095375686883926;-0.02687807008624077;0.0036651913542300463
01:00:0A:00:00:00:00;1724285103;22/08/24;00:05:03;1.039;-0.025;0.097;0.036651913076639175;-0.0073303827084600925;0.015882495790719986
01:00:0A:00:00:00:00;1724285104;22/08/24;00:05:04;1.026;-0.021;0.088;0.03420845419168472;0.0;0.021991148591041565
01:00:0A:00:00:00:00;1724285105;22/08/24;00:05:05;1.014;-0.018;0.094;0.030543262138962746;0.01710422709584236;0.02321287989616394
01:00:0A:00:00:00:00;1724285106;22/08/24;00:05:06;0.998;-0.015;0.088;0.028099799528717995;-0.009773843921720982;0.0024434609804302454
01:00:0A:00:00:00:00;1724285107;22/08/24;00:05:07;0.992;-0.018;0.087;0.021991148591041565;-0.009773843921720982;0.014660765416920185
01:00:0A:00:00:00:00;1724285108;22/08/24;00:05:08;0.998;-0.022;0.09;0.021991148591041565;-0.015882495790719986;-0.0012217304902151227
01:00:0A:00:00:00:00;1724285109;22/08/24;00:05:09;1.008;-0.022;0.089;0.02076941914856434;-0.013439035043120384;-0.009773843921720982
01:00:0A:00:00:00:00;1724285110;22/08/24;00:05:10;1.027;-0.025;0.087;0.014660765416920185;-0.009773843921720982;0.0073303827084600925
01:00:0A:00:00:00:00;1724285111;22/08/24;00:05:11;1.034;-0.032;0.089;0.013439035043120384;-0.00855211354792118;0.00855211354792118
01:00:0A:00:00:00:00;1724285112;22/08/24;00:05:12;1.028;-0.019;0.088;0.00855211354792118;-0.013439035043120384;0.014660765416920185
01:00:0A:00:00:00:00;1724285113;22/08/24;00:05:13;1.016;-0.02;0.089;0.006108652334660292;-0.004886921960860491;0.021991148591041565
01:00:0A:00:00:00:00;1724285114;22/08/24;00:05:14;1.001;-0.021;0.091;0.012217304669320583;0.0024434609804302454;0.004886921960860491
01:00:0A:00:00:00:00;1724285115;22/08/24;00:05:15;1.0;-0.023;0.082;0.014660765416920185;-0.013439035043120384;-0.006108652334660292
01:00:0A:00:00:00:00;1724285116;22/08/24;00:05:16;1.007;-0.028;0.079;0.013439035043120384;-0.015882495790719986;0.014660765416920185
01:00:0A:00:00:00:00;1724285117;22/08/24;00:05:17;1.016;-0.024;0.084;0.01710422709584236;-0.024434609338641167;0.006108652334660292
01:00:0A:00:00:00:00;1724285118;22/08/24;00:05:18;1.013;-0.015;0.087;0.019547687843441963;-0.02687807008624077;0.012217304669320583
01:00:0A:00:00:00:00;1724285119;22/08/24;00:05:19;1.009;-0.009;0.091;0.02076941914856434;-0.009773843921720982;0.009773843921720982
01:00:0A:00:00:00:00;1724285120;22/08/24;00:05:20;1.006;-0.012;0.092;0.02687807008624077;-0.013439035043120384;-0.0354301817715168
01:00:0A:00:00:00:00;1724285121;22/08/24;00:05:21;1.02;-0.028;0.089;0.02321287989616394;-0.0036651913542300463;-0.02932153083384037
01:00:0A:00:00:00:00;1724285122;22/08/24;00:05:22;1.035;-0.037;0.087;0.010995574295520782;0.0012217304902151227;0.03298672288656235
01:00:0A:00:00:00:00;1724285123;22/08/24;00:05:23;1.034;-0.032;0.094;0.0024434609804302454;-0.014660765416920185;0.040317103266716
01:00:0A:00:00:00:00;1724285124;22/08/24;00:05:24;1.017;-0.009;0.086;-0.0036651913542300463;-0.00855211354792118;0.0354301817715168
01:00:0A:00:00:00:00;1724285125;22/08/24;00:05:25;1.006;-0.007;0.093;-0.0073303827084600925;0.009773843921720982;0.025656338781118393
01:00:0A:00:00:00:00;1724285126;22/08/24;00:05:26;0.994;-0.012;0.091;-0.0012217304902151227;0.0012217304902151227;-0.02932153083384037
01:00:0A:00:00:00:00;1724285127;22/08/24;00:05:27;0.996;-0.018;0.079;-0.0024434609804302454;-0.0073303827084600925;-0.039095375686883926
01:00:0A:00:00:00:00;1724285128;22/08/24;00:05:28;1.008;-0.039;0.079;-0.006108652334660292;-0.012217304669320583;-0.009773843921720982
01:00:0A:00:00:00:00;1724285129;22/08/24;00:05:29;1.014;-0.042;0.078;-0.006108652334660292;-0.039095375686883926;0.004886921960860491
01:00:0A:00:00:00:00;1724285130;22/08/24;00:05:30;1.021;-0.024;0.082;-0.004886921960860491;-0.05742133408784866;0.02687807008624077
01:00:0A:00:00:00:00;1724285131;22/08/24;00:05:31;1.024;-0.014;0.096;0.0036651913542300463;-0.015882495790719986;0.01710422709584236
01:00:0A:00:00:00:00;1724285132;22/08/24;00:05:32;1.025;-0.017;0.101;0.014660765416920185;0.0012217304902151227;-0.014660765416920185
01:00:0A:00:00:00:00;1724285133;22/08/24;00:05:33;1.022;-0.021;0.084;0.02076941914856434;0.014660765416920185;-0.021991148591041565
01:00:0A:00:00:00:00;1724285134;22/08/24;00:05:34;1.016;-0.034;0.075;0.021991148591041565;0.02321287989616394;0.0012217304902151227
01:00:0A:00:00:00:00;1724285135;22/08/24;00:05:35;1.003;-0.036;0.071;0.02321287989616394;-0.012217304669320583;0.01710422709584236
01:00:0A:00:00:00:00;1724285136;22/08/24;00:05:36;0.999;-0.025;0.067;0.024434609338641167;-0.03420845419168472;0.02932153083384037
01:00:0A:00:00:00:00;1724285137;22/08/24;00:05:37;1.003;-0.011;0.084;0.02932153083384037;-0.05253440886735916;0.010995574295520782
01:00:0A:00:00:00:00;1724285138;22/08/24;00:05:38;1.011;-0.009;0.102;0.0354301817715168;-0.039095375686883926;-0.015882495790719986
01:00:0A:00:00:00:00;1724285139;22/08/24;00:05:39;1.03;-0.018;0.098;0.042760565876960754;0.006108652334660292;-0.03420845419168472
01:00:0A:00:00:00:00;1724285140;22/08/24;00:05:40;1.032;-0.035;0.088;0.04398229718208313;0.019547687843441963;-0.014660765416920185
01:00:0A:00:00:00:00;1724285141;22/08/24;00:05:41;1.023;-0.04;0.085;0.04642575979232788;0.009773843921720982;0.0012217304902151227
01:00:0A:00:00:00:00;1724285142;22/08/24;00:05:42;1.003;-0.037;0.083;0.04398229718208313;-0.00855211354792118;0.02932153083384037
01:00:0A:00:00:00:00;1724285143;22/08/24;00:05:43;0.996;-0.029;0.091;0.042760565876960754;-0.00855211354792118;0.04398229718208313
01:00:0A:00:00:00:00;1724285144;22/08/24;00:05:44;0.996;-0.015;0.095;0.042760565876960754;-0.013439035043120384;0.01710422709584236
01:00:0A:00:00:00:00;1724285145;22/08/24;00:05:45;1.003;-0.01;0.094;0.045204028487205505;-0.0036651913542300463;-0.004886921960860491
01:00:0A:00:00:00:00;1724285146;22/08/24;00:05:46;1.022;-0.016;0.086;0.045204028487205505;0.0024434609804302454;-0.018325956538319588
01:00:0A:00:00:00:00;1724285147;22/08/24;00:05:47;1.028;-0.026;0.076;0.04153883829712868;-0.012217304669320583;-0.006108652334660292
01:00:0A:00:00:00:00;1724285148;22/08/24;00:05:48;1.023;-0.027;0.078;0.039095375686883926;-0.03298672288656235;0.012217304669320583
01:00:0A:00:00:00:00;1724285149;22/08/24;00:05:49;1.013;-0.02;0.092;0.03787364438176155;-0.028099799528717995;0.019547687843441963
01:00:0A:00:00:00:00;1724285150;22/08/24;00:05:50;1.009;-0.016;0.089;0.036651913076639175;-0.02687807008624077;0.019547687843441963
01:00:0A:00:00:00:00;1724285151;22/08/24;00:05:51;1.007;-0.013;0.087;0.040317103266716;-0.012217304669320583;0.004886921960860491
01:00:0A:00:00:00:00;1724285152;22/08/24;00:05:52;1.008;-0.013;0.089;0.04153883829712868;-0.00855211354792118;-0.010995574295520782
01:00:0A:00:00:00:00;1724285153;22/08/24;00:05:53;1.01;-0.025;0.084;0.04398229718208313;-0.00855211354792118;-0.01710422709584236
01:00:0A:00:00:00:00;1724285154;22/08/24;00:05:54;1.011;-0.028;0.084;0.04398229718208313;-0.00855211354792118;0.0012217304902151227
01:00:0A:00:00:00:00;1724285155;22/08/24;00:05:55;1.017;-0.028;0.089;0.04153883829712868;-0.0073303827084600925;0.014660765416920185
01:00:0A:00:00:00:00;1724285156;22/08/24;00:05:56;1.026;-0.03;0.087;0.042760565876960754;-0.006108652334660292;0.012217304669320583
01:00:0A:00:00:00:00;1724285157;22/08/24;00:05:57;1.032;-0.026;0.087;0.040317103266716;-0.0012217304902151227;0.03420845419168472
01:00:0A:00:00:00:00;1724285158;22/08/24;00:05:58;1.019;-0.014;0.087;0.040317103266716;-0.004886921960860491;0.021991148591041565
01:00:0A:00:00:00:00;1724285159;22/08/24;00:05:59;1.008;-0.011;0.082;0.04153883829712868;-0.006108652334660292;0.0024434609804302454
01:00:0A:00:00:00:00;1724285160;22/08/24;00:06:00;0.992;-0.013;0.081;0.04398229718208313;-0.012217304669320583;-0.015882495790719986
01:00:0A:00:00:00:00;1724285161;22/08/24;00:06:01;0.989;-0.019;0.085;0.04153883829712868;-0.02076941914856434;-0.01710422709584236
01:00:0A:00:00:00:00;1724285162;22/08/24;00:06:02;1.01;-0.028;0.09;0.040317103266716;-0.025656338781118393;-0.02076941914856434
01:00:0A:00:00:00:00;1724285163;22/08/24;00:06:03;1.028;-0.027;0.087;0.03787364438176155;-0.013439035043120384;-0.009773843921720982
01:00:0A:00:00:00:00;1724285164;22/08/24;00:06:04;1.043;-0.03;0.092;0.03176499158143997;0.0036651913542300463;0.028099799528717995
01:00:0A:00:00:00:00;1724285165;22/08/24;00:06:05;1.042;-0.025;0.087;0.02932153083384037;0.004886921960860491;0.039095375686883926
01:00:0A:00:00:00:00;1724285166;22/08/24;00:06:06;1.015;-0.015;0.082;0.03176499158143997;0.009773843921720982;0.02932153083384037
01:00:0A:00:00:00:00;1724285167;22/08/24;00:06:07;0.996;-0.015;0.084;0.030543262138962746;-0.0036651913542300463;0.018325956538319588
01:00:0A:00:00:00:00;1724285168;22/08/24;00:06:08;0.982;-0.018;0.083;0.03298672288656235;-0.025656338781118393;-0.00855211354792118
01:00:0A:00:00:00:00;1724285169;22/08/24;00:06:09;1.003;-0.018;0.086;0.03420845419168472;-0.024434609338641167;-0.00855211354792118
01:00:0A:00:00:00:00;1724285170;22/08/24;00:06:10;1.025;-0.024;0.091;0.03298672288656235;-0.02321287989616394;-0.00855211354792118
01:00:0A:00:00:00:00;1724285171;22/08/24;00:06:11;1.045;-0.027;0.091;0.03298672288656235;0.0;0.0036651913542300463
01:00:0A:00:00:00:00;1724285172;22/08/24;00:06:12;1.043;-0.021;0.087;0.03298672288656235;0.004886921960860491;0.010995574295520782
01:00:0A:00:00:00:00;1724285173;22/08/24;00:06:13;1.01;-0.025;0.084;0.03176499158143997;0.0073303827084600925;0.024434609338641167
01:00:0A:00:00:00:00;1724285174;22/08/24;00:06:14;0.988;-0.021;0.082;0.03176499158143997;-0.009773843921720982;0.010995574295520782
01:00:0A:00:00:00:00;1724285175;22/08/24;00:06:15;0.984;-0.017;0.081;0.02932153083384037;-0.02076941914856434;0.004886921960860491
01:00:0A:00:00:00:00;1724285176;22/08/24;00:06:16;1.019;-0.02;0.09;0.030543262138962746;-0.03176499158143997;-0.014660765416920185
01:00:0A:00:00:00:00;1724285177;22/08/24;00:06:17;1.041;-0.019;0.091;0.02932153083384037;-0.018325956538319588;-0.009773843921720982
01:00:0A:00:00:00:00;1724285178;22/08/24;00:06:18;1.049;-0.027;0.092;0.028099799528717995;0.004886921960860491;0.004886921960860491
01:00:0A:00:00:00:00;1724285179;22/08/24;00:06:19;1.032;-0.033;0.092;0.02687807008624077;0.015882495790719986;0.01710422709584236
01:00:0A:00:00:00:00;1724285180;22/08/24;00:06:20;0.988;-0.025;0.076;0.024434609338641167;0.010995574295520782;0.03298672288656235
01:00:0A:00:00:00:00;1724285181;22/08/24;00:06:21;0.971;-0.02;0.07;0.02687807008624077;0.0024434609804302454;0.02076941914856434
01:00:0A:00:00:00:00;1724285182;22/08/24;00:06:22;0.99;-0.012;0.07;0.02932153083384037;-0.036651913076639175;-0.010995574295520782
01:00:0A:00:00:00:00;1724285183;22/08/24;00:06:23;1.018;-0.011;0.074;0.02687807008624077;-0.040317103266716;-0.010995574295520782
01:00:0A:00:00:00:00;1724285184;22/08/24;00:06:24;1.051;-0.028;0.092;0.028099799528717995;-0.04153883829712868;-0.015882495790719986
01:00:0A:00:00:00:00;1724285185;22/08/24;00:06:25;1.046;-0.023;0.094;0.024434609338641167;-0.009773843921720982;0.0036651913542300463
01:00:0A:00:00:00:00;1724285186;22/08/24;00:06:26;1.022;-0.032;0.103;0.02076941914856434;0.02321287989616394;0.025656338781118393
01:00:0A:00:00:00:00;1724285187;22/08/24;00:06:27;0.984;-0.022;0.081;0.02321287989616394;0.01710422709584236;0.010995574295520782
01:00:0A:00:00:00:00;1724285188;22/08/24;00:06:28;0.978;-0.013;0.074;0.019547687843441963;0.010995574295520782;0.010995574295520782
01:00:0A:00:00:00:00;1724285189;22/08/24;00:06:29;1.001;-0.015;0.075;0.015882495790719986;-0.025656338781118393;-0.004886921960860491
01:00:0A:00:00:00:00;1724285190;22/08/24;00:06:30;1.023;-0.021;0.083;0.015882495790719986;-0.04642575979232788;-0.028099799528717995
01:00:0A:00:00:00:00;1724285191;22/08/24;00:06:31;1.04;-0.024;0.092;0.013439035043120384;-0.018325956538319588;-0.00855211354792118
01:00:0A:00:00:00:00;1724285192;22/08/24;00:06:32;1.036;-0.032;0.095;0.010995574295520782;0.004886921960860491;0.015882495790719986
01:00:0A:00:00:00:00;1724285193;22/08/24;00:06:33;1.012;-0.025;0.09;0.010995574295520782;0.009773843921720982;0.01710422709584236
01:00:0A:00:00:00:00;1724285194;22/08/24;00:06:34;0.995;-0.015;0.08;0.010995574295520782;0.006108652334660292;0.014660765416920185
01:00:0A:00:00:00:00;1724285195;22/08/24;00:06:35;0.994;-0.015;0.08;0.00855211354792118;-0.009773843921720982;0.004886921960860491
01:00:0A:00:00:00:00;1724285196;22/08/24;00:06:36;1.009;-0.016;0.081;0.012217304669320583;-0.040317103266716;-0.03298672288656235
01:00:0A:00:00:00:00;1724285197;22/08/24;00:06:37;1.018;-0.021;0.086;0.00855211354792118;-0.036651913076639175;-0.024434609338641167
01:00:0A:00:00:00:00;1724285198;22/08/24;00:06:38;1.028;-0.035;0.095;0.004886921960860491;-0.010995574295520782;0.0036651913542300463
01:00:0A:00:00:00:00;1724285199;22/08/24;00:06:39;1.028;-0.035;0.093;0.0036651913542300463;0.0;0.014660765416920185
01:00:0A:00:00:00:00;1724285200;22/08/24;00:06:40;1.019;-0.022;0.085;-0.0024434609804302454;0.00855211354792118;0.04153883829712868
01:00:0A:00:00:00:00;1724285201;22/08/24;00:06:41;1.015;-0.02;0.084;-0.0036651913542300463;0.0036651913542300463;0.036651913076639175
01:00:0A:00:00:00:00;1724285202;22/08/24;00:06:42;1.007;-0.01;0.081;0.0;-0.009773843921720982;0.0012217304902151227
01:00:0A:00:00:00:00;1724285203;22/08/24;00:06:43;1.005;-0.009;0.081;-0.0012217304902151227;-0.013439035043120384;-0.0073303827084600925
01:00:0A:00:00:00:00;1724285204;22/08/24;00:06:44;1.001;-0.023;0.085;-0.0012217304902151227;-0.02321287989616394;-0.012217304669320583
01:00:0A:00:00:00:00;1724285205;22/08/24;00:06:45;1.006;-0.026;0.087;0.0012217304902151227;-0.02076941914856434;-0.012217304669320583
01:00:0A:00:00:00:00;1724285206;22/08/24;00:06:46;1.011;-0.023;0.086;-0.0024434609804302454;-0.02076941914856434;0.0036651913542300463
01:00:0A:00:00:00:00;1724285207;22/08/24;00:06:47;1.019;-0.024;0.088;-0.0012217304902151227;-0.015882495790719986;0.004886921960860491
01:00:0A:00:00:00:00;1724285208;22/08/24;00:06:48;1.022;-0.02;0.088;0.004886921960860491;-0.012217304669320583;-0.012217304669320583
01:00:0A:00:00:00:00;1724285209;22/08/24;00:06:49;1.024;-0.021;0.086;0.0012217304902151227;-0.012217304669320583;-0.004886921960860491
01:00:0A:00:00:00:00;1724285210;22/08/24;00:06:50;1.024;-0.026;0.088;0.0012217304902151227;-0.010995574295520782;0.0012217304902151227
01:00:0A:00:00:00:00;1724285211;22/08/24;00:06:51;1.024;-0.026;0.091;0.0036651913542300463;-0.0024434609804302454;0.006108652334660292
01:00:0A:00:00:00:00;1724285212;22/08/24;00:06:52;1.023;-0.021;0.091;0.0012217304902151227;-0.0012217304902151227;0.010995574295520782
01:00:0A:00:00:00:00;1724285213;22/08/24;00:06:53;1.015;-0.023;0.083;0.0012217304902151227;0.0036651913542300463;0.015882495790719986
01:00:0A:00:00:00:00;1724285214;22/08/24;00:06:54;1.002;-0.019;0.085;0.004886921960860491;0.0;0.004886921960860491
01:00:0A:00:00:00:00;1724285215;22/08/24;00:06:55;1.0;-0.017;0.082;0.0012217304902151227;-0.014660765416920185;0.006108652334660292
01:00:0A:00:00:00:00;1724285216;22/08/24;00:06:56;1.004;-0.021;0.08;0.0024434609804302454;-0.021991148591041565;0.0012217304902151227
01:00:0A:00:00:00:00;1724285217;22/08/24;00:06:57;1.014;-0.02;0.086;0.0073303827084600925;-0.019547687843441963;-0.006108652334660292
01:00:0A:00:00:00:00;1724285218;22/08/24;00:06:58;1.027;-0.02;0.09;0.006108652334660292;-0.019547687843441963;-0.0036651913542300463
01:00:0A:00:00:00:00;1724285219;22/08/24;00:06:59;1.027;-0.025;0.083;0.006108652334660292;-0.01710422709584236;0.0036651913542300463
01:00:0A:00:00:00:00;1724285220;22/08/24;00:07:00;1.016;-0.024;0.089;0.00855211354792118;-0.004886921960860491;0.0024434609804302454
01:00:0A:00:00:00:00;1724285221;22/08/24;00:07:01;1.01;-0.025;0.091;0.0036651913542300463;-0.014660765416920185;0.014660765416920185
01:00:0A:00:00:00:00;1724285222;22/08/24;00:07:02;1.006;-0.025;0.085;0.004886921960860491;-0.004886921960860491;0.019547687843441963
01:00:0A:00:00:00:00;1724285223;22/08/24;00:07:03;1.007;-0.017;0.086;0.0073303827084600925;-0.004886921960860491;0.014660765416920185
01:00:0A:00:00:00:00;1724285224;22/08/24;00:07:04;1.008;-0.014;0.084;0.0036651913542300463;-0.018325956538319588;0.015882495790719986
01:00:0A:00:00:00:00;1724285225;22/08/24;00:07:05;1.014;-0.015;0.081;0.009773843921720982;-0.012217304669320583;-0.0073303827084600925
01:00:0A:00:00:00:00;1724285226;22/08/24;00:07:06;1.013;-0.015;0.088;0.009773843921720982;-0.012217304669320583;-0.010995574295520782
01:00:0A:00:00:00:00;1724285227;22/08/24;00:07:07;1.017;-0.021;0.086;0.0073303827084600925;-0.012217304669320583;-0.006108652334660292
01:00:0A:00:00:00:00;1724285228;22/08/24;00:07:08;1.021;-0.024;0.082;0.010995574295520782;-0.0024434609804302454;-0.0073303827084600925
01:00:0A:00:00:00:00;1724285229;22/08/24;00:07:09;1.017;-0.023;0.085;0.009773843921720982;-0.0036651913542300463;0.0024434609804302454
01:00:0A:00:00:00:00;1724285230;22/08/24;00:07:10;1.016;-0.026;0.082;0.006108652334660292;-0.014660765416920185;0.012217304669320583
01:00:0A:00:00:00:00;1724285231;22/08/24;00:07:11;1.013;-0.024;0.083;0.009773843921720982;-0.010995574295520782;0.00855211354792118
01:00:0A:00:00:00:00;1724285232;22/08/24;00:07:12;1.01;-0.021;0.091;0.009773843921720982;-0.00855211354792118;0.004886921960860491
01:00:0A:00:00:00:00;1724285233;22/08/24;00:07:13;1.013;-0.025;0.086;0.0073303827084600925;-0.012217304669320583;0.014660765416920185
01:00:0A:00:00:00:00;1724285234;22/08/24;00:07:14;1.016;-0.022;0.082;0.012217304669320583;0.0024434609804302454;0.009773843921720982
01:00:0A:00:00:00:00;1724285235;22/08/24;00:07:15;1.013;-0.016;0.084;0.010995574295520782;-0.0024434609804302454;0.012217304669320583
01:00:0A:00:00:00:00;1724285236;22/08/24;00:07:16;1.009;-0.017;0.081;0.00855211354792118;-0.019547687843441963;0.0073303827084600925
01:00:0A:00:00:00:00;1724285237;22/08/24;00:07:17;1.01;-0.015;0.081;0.015882495790719986;-0.009773843921720982;-0.006108652334660292
01:00:0A:00:00:00:00;1724285238;22/08/24;00:07:18;1.016;-0.017;0.085;0.014660765416920185;-0.02076941914856434;-0.009773843921720982
01:00:0A:00:00:00:00;1724285239;22/08/24;00:07:19;1.021;-0.024;0.083;0.013439035043120384;-0.02076941914856434;-0.0036651913542300463
01:00:0A:00:00:00:00;1724285240;22/08/24;00:07:20;1.024;-0.027;0.084;0.01710422709584236;-0.006108652334660292;0.0036651913542300463
01:00:0A:00:00:00:00;1724285241;22/08/24;00:07:21;1.016;-0.022;0.09;0.014660765416920185;-0.0036651913542300463;0.019547687843441963
01:00:0A:00:00:00:00;1724285242;22/08/24;00:07:22;1.008;-0.023;0.084;0.013439035043120384;-0.010995574295520782;0.02076941914856434
01:00:0A:00:00:00:00;1724285243;22/08/24;00:07:23;1.0;-0.02;0.085;0.019547687843441963;-0.0036651913542300463;0.0012217304902151227
01:00:0A:00:00:00:00;1724285244;22/08/24;00:07:24;1.0;-0.02;0.088;0.01710422709584236;-0.013439035043120384;0.0
01:00:0A:00:00:00:00;1724285245;22/08/24;00:07:25;1.01;-0.024;0.083;0.018325956538319588;-0.019547687843441963;-0.006108652334660292
01:00:0A:00:00:00:00;1724285246;22/08/24;00:07:26;1.017;-0.028;0.086;0.021991148591041565;-0.012217304669320583;-0.009773843921720982
01:00:0A:00:00:00:00;1724285247;22/08/24;00:07:27;1.026;-0.029;0.091;0.018325956538319588;-0.015882495790719986;0.012217304669320583
01:00:0A:00:00:00:00;1724285248;22/08/24;00:07:28;1.028;-0.029;0.085;0.018325956538319588;-0.014660765416920185;0.019547687843441963
01:00:0A:00:00:00:00;1724285249;22/08/24;00:07:29;1.025;-0.024;0.09;0.02321287989616394;-0.0012217304902151227;0.013439035043120384
01:00:0A:00:00:00:00;1724285250;22/08/24;00:07:30;1.014;-0.021;0.089;0.02321287989616394;-0.0024434609804302454;0.012217304669320583
01:00:0A:00:00:00:00;1724285251;22/08/24;00:07:31;1.008;-0.022;0.081;0.024434609338641167;-0.0073303827084600925;0.012217304669320583
01:00:0A:00:00:00:00;1724285252;22/08/24;00:07:32;0.998;-0.021;0.081;0.03176499158143997;-0.009773843921720982;-0.0073303827084600925
01:00:0A:00:00:00:00;1724285253;22/08/24;00:07:33;0.997;-0.022;0.083;0.03298672288656235;-0.021991148591041565;-0.006108652334660292
01:00:0A:00:00:00:00;1724285254;22/08/24;00:07:34;1.006;-0.028;0.083;0.03420845419168472;-0.03420845419168472;-0.004886921960860491
01:00:0A:00:00:00:00;1724285255;22/08/24;00:07:35;1.016;-0.029;0.087;0.040317103266716;-0.028099799528717995;-0.006108652334660292
01:00:0A:00:00:00:00;1724285256;22/08/24;00:07:36;1.03;-0.027;0.095;0.040317103266716;-0.009773843921720982;0.012217304669320583
01:00:0A:00:00:00:00;1724285257;22/08/24;00:07:37;1.032;-0.028;0.09;0.042760565876960754;-0.0024434609804302454;0.02076941914856434
01:00:0A:00:00:00:00;1724285258;22/08/24;00:07:38;1.023;-0.024;0.085;0.04886921867728233;0.0073303827084600925;0.010995574295520782
01:00:0A:00:00:00:00;1724285259;22/08/24;00:07:39;1.008;-0.022;0.084;0.04764748737215996;-0.0036651913542300463;0.012217304669320583
01:00:0A:00:00:00:00;1724285260;22/08/24;00:07:40;1.002;-0.024;0.083;0.04764748737215996;-0.010995574295520782;0.015882495790719986
01:00:0A:00:00:00:00;1724285261;22/08/24;00:07:41;0.998;-0.021;0.081;0.05497787147760391;-0.012217304669320583;-0.0036651913542300463
01:00:0A:00:00:00:00;1724285262;22/08/24;00:07:42;1.003;-0.019;0.083;0.05253440886735916;-0.019547687843441963;0.0012217304902151227
01:00:0A:00:00:00:00;1724285263;22/08/24;00:07:43;1.018;-0.026;0.085;0.05375614017248154;-0.02687807008624077;-0.009773843921720982
01:00:0A:00:00:00:00;1724285264;22/08/24;00:07:44;1.021;-0.027;0.086;0.05619959905743599;-0.018325956538319588;-0.009773843921720982
01:00:0A:00:00:00:00;1724285265;22/08/24;00:07:45;1.026;-0.026;0.089;0.051312677562236786;-0.013439035043120384;0.015882495790719986
01:00:0A:00:00:00:00;1724285266;22/08/24;00:07:46;1.022;-0.03;0.087;0.051312677562236786;-0.010995574295520782;0.019547687843441963
01:00:0A:00:00:00:00;1724285267;22/08/24;00:07:47;1.017;-0.022;0.085;0.05497787147760391;0.0012217304902151227;0.018325956538319588
01:00:0A:00:00:00:00;1724285268;22/08/24;00:07:48;1.009;-0.016;0.082;0.05253440886735916;-0.0036651913542300463;0.018325956538319588
01:00:0A:00:00:00:00;1724285269;22/08/24;00:07:49;1.009;-0.021;0.08;0.05375614017248154;-0.012217304669320583;0.009773843921720982
01:00:0A:00:00:00:00;1724285270;22/08/24;00:07:50;1.011;-0.018;0.081;0.05864306166768074;-0.01710422709584236;-0.006108652334660292
01:00:0A:00:00:00:00;1724285271;22/08/24;00:07:51;1.01;-0.018;0.083;0.05497787147760391;-0.01710422709584236;0.004886921960860491
01:00:0A:00:00:00:00;1724285272;22/08/24;00:07:52;1.011;-0.023;0.084;0.05619959905743599;-0.01710422709584236;0.0024434609804302454
01:00:0A:00:00:00:00;1724285273;22/08/24;00:07:53;1.011;-0.019;0.083;0.059864792972803116;-0.01710422709584236;-0.006108652334660292
01:00:0A:00:00:00:00;1724285274;22/08/24;00:07:54;1.013;-0.02;0.085;0.05619959905743599;-0.018325956538319588;0.004886921960860491
01:00:0A:00:00:00:00;1724285275;22/08/24;00:07:55;1.016;-0.026;0.084;0.05864306166768074;-0.015882495790719986;0.0024434609804302454
01:00:0A:00:00:00:00;1724285276;22/08/24;00:07:56;1.018;-0.021;0.087;0.059864792972803116;-0.014660765416920185;0.004886921960860491
01:00:0A:00:00:00:00;1724285277;22/08/24;00:07:57;1.016;-0.02;0.086;0.05742133408784866;-0.00855211354792118;0.014660765416920185
01:00:0A:00:00:00:00;1724285278;22/08/24;00:07:58;1.013;-0.024;0.085;0.06108652427792549;-0.0073303827084600925;0.006108652334660292
01:00:0A:00:00:00:00;1724285279;22/08/24;00:07:59;1.009;-0.02;0.083;0.06352998316287994;-0.00855211354792118;-0.0012217304902151227
01:00:0A:00:00:00:00;1724285280;22/08/24;00:08:00;1.01;-0.022;0.081;0.06108652427792549;-0.00855211354792118;0.009773843921720982
01:00:0A:00:00:00:00;1724285281;22/08/24;00:08:01;1.014;-0.028;0.083;0.06352998316287994;-0.015882495790719986;0.006108652334660292
01:00:0A:00:00:00:00;1724285282;22/08/24;00:08:02;1.015;-0.023;0.083;0.06352998316287994;-0.01710422709584236;0.00855211354792118
01:00:0A:00:00:00:00;1724285283;22/08/24;00:08:03;1.016;-0.021;0.087;0.06230825558304787;-0.009773843921720982;0.019547687843441963
01:00:0A:00:00:00:00;1724285284;22/08/24;00:08:04;1.013;-0.023;0.087;0.06475171446800232;-0.00855211354792118;0.0073303827084600925
01:00:0A:00:00:00:00;1724285285;22/08/24;00:08:05;1.011;-0.018;0.085;0.06719517707824707;-0.009773843921720982;-0.0024434609804302454
01:00:0A:00:00:00:00;1724285286;22/08/24;00:08:06;1.016;-0.021;0.083;0.06475171446800232;-0.004886921960860491;0.004886921960860491
01:00:0A:00:00:00:00;1724285287;22/08/24;00:08:07;1.018;-0.026;0.084;0.0659734457731247;-0.013439035043120384;-0.0012217304902151227
01:00:0A:00:00:00:00;1724285288;22/08/24;00:08:08;1.019;-0.024;0.083;0.06475171446800232;-0.02076941914856434;0.00855211354792118
01:00:0A:00:00:00:00;1724285289;22/08/24;00:08:09;1.019;-0.024;0.087;0.06230825558304787;-0.012217304669320583;0.02076941914856434
01:00:0A:00:00:00:00;1724285290;22/08/24;00:08:10;1.018;-0.021;0.09;0.06352998316287994;-0.009773843921720982;0.012217304669320583
01:00:0A:00:00:00:00;1724285291;22/08/24;00:08:11;1.016;-0.016;0.087;0.06352998316287994;-0.006108652334660292;0.006108652334660292
01:00:0A:00:00:00:00;1724285292;22/08/24;00:08:12;1.012;-0.02;0.085;0.0659734457731247;0.0036651913542300463;0.0024434609804302454
01:00:0A:00:00:00:00;1724285293;22/08/24;00:08:13;1.007;-0.025;0.084;0.06719517707824707;-0.006108652334660292;-0.0036651913542300463
01:00:0A:00:00:00:00;1724285294;22/08/24;00:08:14;1.002;-0.024;0.081;0.06475171446800232;-0.021991148591041565;0.0036651913542300463
01:00:0A:00:00:00:00;1724285295;22/08/24;00:08:15;1.007;-0.025;0.086;0.06475171446800232;-0.01710422709584236;0.012217304669320583
01:00:0A:00:00:00:00;1724285296;22/08/24;00:08:16;1.013;-0.022;0.089;0.06475171446800232;-0.02321287989616394;0.0073303827084600925
01:00:0A:00:00:00:00;1724285297;22/08/24;00:08:17;1.024;-0.019;0.087;0.0659734457731247;-0.01710422709584236;0.0
01:00:0A:00:00:00:00;1724285298;22/08/24;00:08:18;1.027;-0.022;0.089;0.06719517707824707;-0.006108652334660292;0.0
01:00:0A:00:00:00:00;1724285299;22/08/24;00:08:19;1.022;-0.028;0.089;0.0659734457731247;-0.00855211354792118;0.0024434609804302454
01:00:0A:00:00:00:00;1724285300;22/08/24;00:08:20;1.018;-0.028;0.084;0.06475171446800232;-0.010995574295520782;0.009773843921720982
01:00:0A:00:00:00:00;1724285301;22/08/24;00:08:21;1.006;-0.024;0.085;0.06352998316287994;0.0;0.021991148591041565
01:00:0A:00:00:00:00;1724285302;22/08/24;00:08:22;1.004;-0.02;0.087;0.059864792972803116;-0.009773843921720982;0.02076941914856434
01:00:0A:00:00:00:00;1724285303;22/08/24;00:08:23;1.007;-0.016;0.08;0.06108652427792549;-0.013439035043120384;0.00855211354792118
01:00:0A:00:00:00:00;1724285304;22/08/24;00:08:24;1.015;-0.017;0.081;0.06230825558304787;-0.018325956538319588;-0.0024434609804302454
01:00:0A:00:00:00:00;1724285305;22/08/24;00:08:25;1.018;-0.02;0.087;0.059864792972803116;-0.025656338781118393;-0.0036651913542300463
01:00:0A:00:00:00:00;1724285306;22/08/24;00:08:26;1.021;-0.025;0.086;0.059864792972803116;-0.012217304669320583;0.0036651913542300463
01:00:0A:00:00:00:00;1724285307;22/08/24;00:08:27;1.021;-0.025;0.09;0.059864792972803116;0.0024434609804302454;0.012217304669320583
01:00:0A:00:00:00:00;1724285308;22/08/24;00:08:28;1.014;-0.023;0.086;0.05619959905743599;-0.0012217304902151227;0.019547687843441963
01:00:0A:00:00:00:00;1724285309;22/08/24;00:08:29;1.01;-0.019;0.079;0.05619959905743599;-0.004886921960860491;0.015882495790719986
01:00:0A:00:00:00:00;1724285310;22/08/24;00:08:30;1.003;-0.018;0.081;0.05619959905743599;-0.014660765416920185;0.0024434609804302454
01:00:0A:00:00:00:00;1724285311;22/08/24;00:08:31;1.005;-0.02;0.081;0.05375614017248154;-0.030543262138962746;0.004886921960860491
01:00:0A:00:00:00:00;1724285312;22/08/24;00:08:32;1.013;-0.021;0.085;0.05497787147760391;-0.021991148591041565;-0.0024434609804302454
01:00:0A:00:00:00:00;1724285313;22/08/24;00:08:33;1.021;-0.023;0.091;0.05497787147760391;-0.0073303827084600925;0.0024434609804302454
01:00:0A:00:00:00:00;1724285314;22/08/24;00:08:34;1.024;-0.023;0.089;0.051312677562236786;-0.009773843921720982;0.009773843921720982
01:00:0A:00:00:00:00;1724285315;22/08/24;00:08:35;1.02;-0.023;0.083;0.05375614017248154;0.0012217304902151227;0.009773843921720982
01:00:0A:00:00:00:00;1724285316;22/08/24;00:08:36;1.017;-0.02;0.085;0.05253440886735916;0.0024434609804302454;0.010995574295520782
01:00:0A:00:00:00:00;1724285317;22/08/24;00:08:37;1.01;-0.021;0.082;0.04886921867728233;-0.010995574295520782;0.012217304669320583
01:00:0A:00:00:00:00;1724285318;22/08/24;00:08:38;1.01;-0.022;0.08;0.051312677562236786;-0.00855211354792118;0.006108652334660292
01:00:0A:00:00:00:00;1724285319;22/08/24;00:08:39;1.01;-0.019;0.084;0.051312677562236786;-0.013439035043120384;0.004886921960860491
01:00:0A:00:00:00:00;1724285320;22/08/24;00:08:40;1.011;-0.023;0.082;0.04764748737215996;-0.019547687843441963;0.010995574295520782
01:00:0A:00:00:00:00;1724285321;22/08/24;00:08:41;1.012;-0.023;0.083;0.05009094998240471;-0.014660765416920185;0.0073303827084600925
01:00:0A:00:00:00:00;1724285322;22/08/24;00:08:42;1.015;-0.017;0.086;0.05009094998240471;-0.010995574295520782;0.0036651913542300463
01:00:0A:00:00:00:00;1724285323;22/08/24;00:08:43;1.014;-0.021;0.084;0.04642575979232788;-0.013439035043120384;0.00855211354792118
01:00:0A:00:00:00:00;1724285324;22/08/24;00:08:44;1.017;-0.022;0.082;0.05009094998240471;-0.00855211354792118;0.0
01:00:0A:00:00:00:00;1724285325;22/08/24;00:08:45;1.016;-0.021;0.084;0.04764748737215996;-0.012217304669320583;0.0036651913542300463
01:00:0A:00:00:00:00;1724285326;22/08/24;00:08:46;1.017;-0.023;0.084;0.045204028487205505;-0.015882495790719986;0.010995574295520782
01:00:0A:00:00:00:00;1724285327;22/08/24;00:08:47;1.016;-0.023;0.084;0.04764748737215996;-0.012217304669320583;0.0036651913542300463
01:00:0A:00:00:00:00;1724285328;22/08/24;00:08:48;1.015;-0.02;0.087;0.04642575979232788;-0.0073303827084600925;0.00855211354792118
01:00:0A:00:00:00:00;1724285329;22/08/24;00:08:49;1.014;-0.022;0.085;0.04398229718208313;-0.0073303827084600925;0.010995574295520782
01:00:0A:00:00:00:00;1724285330;22/08/24;00:08:50;1.011;-0.022;0.082;0.04764748737215996;-0.0073303827084600925;0.0
01:00:0A:00:00:00:00;1724285331;22/08/24;00:08:51;1.011;-0.018;0.083;0.04642575979232788;-0.013439035043120384;0.0036651913542300463
01:00:0A:00:00:00:00;1724285332;22/08/24;00:08:52;1.015;-0.022;0.081;0.04398229718208313;-0.018325956538319588;0.0073303827084600925
01:00:0A:00:00:00:00;1724285333;22/08/24;00:08:53;1.019;-0.023;0.084;0.04642575979232788;-0.01710422709584236;0.004886921960860491
01:00:0A:00:00:00:00;1724285334;22/08/24;00:08:54;1.022;-0.018;0.087;0.045204028487205505;-0.014660765416920185;0.0073303827084600925
01:00:0A:00:00:00:00;1724285335;22/08/24;00:08:55;1.017;-0.023;0.086;0.04398229718208313;-0.006108652334660292;0.009773843921720982
01:00:0A:00:00:00:00;1724285336;22/08/24;00:08:56;1.011;-0.021;0.083;0.04764748737215996;-0.0024434609804302454;0.0036651913542300463
01:00:0A:00:00:00:00;1724285337;22/08/24;00:08:57;1.002;-0.021;0.081;0.045204028487205505;-0.010995574295520782;0.0073303827084600925
01:00:0A:00:00:00:00;1724285338;22/08/24;00:08:58;1.001;-0.023;0.081;0.045204028487205505;-0.015882495790719986;0.0073303827084600925
01:00:0A:00:00:00:00;1724285339;22/08/24;00:08:59;1.015;-0.024;0.082;0.04886921867728233;-0.025656338781118393;-0.0036651913542300463
01:00:0A:00:00:00:00;1724285340;22/08/24;00:09:00;1.027;-0.022;0.087;0.04642575979232788;-0.015882495790719986;0.009773843921720982
01:00:0A:00:00:00:00;1724285341;22/08/24;00:09:01;1.029;-0.025;0.089;0.04642575979232788;-0.006108652334660292;0.013439035043120384
01:00:0A:00:00:00:00;1724285342;22/08/24;00:09:02;1.018;-0.023;0.087;0.04886921867728233;-0.0012217304902151227;0.0073303827084600925
01:00:0A:00:00:00:00;1724285343;22/08/24;00:09:03;1.008;-0.021;0.083;0.04764748737215996;-0.0024434609804302454;0.012217304669320583
01:00:0A:00:00:00:00;1724285344;22/08/24;00:09:04;1.0;-0.023;0.082;0.04764748737215996;-0.010995574295520782;0.006108652334660292
01:00:0A:00:00:00:00;1724285345;22/08/24;00:09:05;1.002;-0.023;0.083;0.05009094998240471;-0.019547687843441963;-0.004886921960860491
01:00:0A:00:00:00:00;1724285346;22/08/24;00:09:06;1.016;-0.022;0.085;0.04764748737215996;-0.021991148591041565;0.0
01:00:0A:00:00:00:00;1724285347;22/08/24;00:09:07;1.024;-0.026;0.087;0.04764748737215996;-0.015882495790719986;0.006108652334660292
01:00:0A:00:00:00:00;1724285348;22/08/24;00:09:08;1.025;-0.024;0.089;0.04764748737215996;-0.006108652334660292;0.00855211354792118
01:00:0A:00:00:00:00;1724285349;22/08/24;00:09:09;1.015;-0.022;0.083;0.04764748737215996;-0.004886921960860491;0.012217304669320583
01:00:0A:00:00:00:00;1724285350;22/08/24;00:09:10;1.008;-0.021;0.083;0.04764748737215996;-0.006108652334660292;0.012217304669320583
01:00:0A:00:00:00:00;1724285351;22/08/24;00:09:11;1.004;-0.021;0.083;0.04764748737215996;-0.014660765416920185;0.0012217304902151227
01:00:0A:00:00:00:00;1724285352;22/08/24;00:09:12;1.01;-0.02;0.084;0.04642575979232788;-0.013439035043120384;0.004886921960860491
01:00:0A:00:00:00:00;1724285353;22/08/24;00:09:13;1.017;-0.023;0.085;0.04764748737215996;-0.010995574295520782;0.0036651913542300463
01:00:0A:00:00:00:00;1724285354;22/08/24;00:09:14;1.02;-0.022;0.086;0.04642575979232788;-0.012217304669320583;0.006108652334660292
01:00:0A:00:00:00:00;1724285355;22/08/24;00:09:15;1.015;-0.021;0.083;0.04642575979232788;-0.009773843921720982;0.010995574295520782
01:00:0A:00:00:00:00;1724285356;22/08/24;00:09:16;1.011;-0.022;0.085;0.04642575979232788;-0.00855211354792118;0.0073303827084600925
01:00:0A:00:00:00:00;1724285357;22/08/24;00:09:17;1.006;-0.02;0.084;0.04642575979232788;-0.015882495790719986;0.0024434609804302454
01:00:0A:00:00:00:00;1724285358;22/08/24;00:09:18;1.013;-0.019;0.084;0.04642575979232788;-0.014660765416920185;-0.0012217304902151227
01:00:0A:00:00:00:00;1724285359;22/08/24;00:09:19;1.018;-0.024;0.087;0.04642575979232788;-0.013439035043120384;-0.0024434609804302454
01:00:0A:00:00:00:00;1724285360;22/08/24;00:09:20;1.024;-0.025;0.086;0.045204028487205505;-0.010995574295520782;0.0073303827084600925
01:00:0A:00:00:00:00;1724285361;22/08/24;00:09:21;1.023;-0.024;0.086;0.04398229718208313;-0.0036651913542300463;0.012217304669320583
01:00:0A:00:00:00:00;1724285362;22/08/24;00:09:22;1.011;-0.022;0.084;0.04398229718208313;-0.0036651913542300463;0.012217304669320583
01:00:0A:00:00:00:00;1724285363;22/08/24;00:09:23;1.008;-0.021;0.083;0.042760565876960754;-0.012217304669320583;0.009773843921720982
01:00:0A:00:00:00:00;1724285364;22/08/24;00:09:24;1.003;-0.019;0.083;0.042760565876960754;-0.014660765416920185;0.004886921960860491
01:00:0A:00:00:00:00;1724285365;22/08/24;00:09:25;1.008;-0.02;0.084;0.042760565876960754;-0.018325956538319588;0.0012217304902151227
01:00:0A:00:00:00:00;1724285366;22/08/24;00:09:26;1.016;-0.022;0.085;0.042760565876960754;-0.019547687843441963;-0.0012217304902151227
01:00:0A:00:00:00:00;1724285367;22/08/24;00:09:27;1.021;-0.022;0.086;0.04153883829712868;-0.010995574295520782;0.0073303827084600925
01:00:0A:00:00:00:00;1724285368;22/08/24;00:09:28;1.02;-0.022;0.088;0.04153883829712868;-0.009773843921720982;0.00855211354792118
01:00:0A:00:00:00:00;1724285369;22/08/24;00:09:29;1.016;-0.021;0.085;0.04153883829712868;-0.0073303827084600925;0.009773843921720982
01:00:0A:00:00:00:00;1724285370;22/08/24;00:09:30;1.013;-0.02;0.084;0.04153883829712868;-0.0036651913542300463;0.010995574295520782
01:00:0A:00:00:00:00;1724285371;22/08/24;00:09:31;1.01;-0.021;0.085;0.04153883829712868;-0.00855211354792118;0.0036651913542300463
01:00:0A:00:00:00:00;1724285372;22/08/24;00:09:32;1.011;-0.02;0.082;0.04153883829712868;-0.013439035043120384;0.0024434609804302454
01:00:0A:00:00:00:00;1724285373;22/08/24;00:09:33;1.013;-0.022;0.084;0.042760565876960754;-0.00855211354792118;0.0036651913542300463
01:00:0A:00:00:00:00;1724285374;22/08/24;00:09:34;1.014;-0.022;0.084;0.04153883829712868;-0.010995574295520782;0.004886921960860491
01:00:0A:00:00:00:00;1724285375;22/08/24;00:09:35;1.016;-0.022;0.082;0.04153883829712868;-0.015882495790719986;0.0073303827084600925
01:00:0A:00:00:00:00;1724285376;22/08/24;00:09:36;1.016;-0.023;0.085;0.04153883829712868;-0.010995574295520782;0.00855211354792118
01:00:0A:00:00:00:00;1724285377;22/08/24;00:09:37;1.015;-0.022;0.087;0.04153883829712868;-0.012217304669320583;0.00855211354792118
01:00:0A:00:00:00:00;1724285378;22/08/24;00:09:38;1.015;-0.021;0.084;0.04153883829712868;-0.010995574295520782;0.004886921960860491
01:00:0A:00:00:00:00;1724285379;22/08/24;00:09:39;1.015;-0.02;0.085;0.042760565876960754;-0.0073303827084600925;0.0036651913542300463
01:00:0A:00:00:00:00;1724285380;22/08/24;00:09:40;1.016;-0.022;0.087;0.042760565876960754;-0.009773843921720982;0.0024434609804302454
01:00:0A:00:00:00:00;1724285381;22/08/24;00:09:41;1.015;-0.024;0.084;0.042760565876960754;-0.010995574295520782;0.0024434609804302454
01:00:0A:00:00:00:00;1724285382;22/08/24;00:09:42;1.014;-0.023;0.085;0.04398229718208313;-0.00855211354792118;0.00855211354792118
01:00:0A:00:00:00:00;1724285383;22/08/24;00:09:43;1.013;-0.021;0.085;0.042760565876960754;-0.010995574295520782;0.009773843921720982
01:00:0A:00:00:00:00;1724285384;22/08/24;00:09:44;1.01;-0.02;0.084;0.04398229718208313;-0.010995574295520782;0.00855211354792118
01:00:0A:00:00:00:00;1724285385;22/08/24;00:09:45;1.011;-0.019;0.082;0.045204028487205505;-0.009773843921720982;0.0024434609804302454
01:00:0A:00:00:00:00;1724285386;22/08/24;00:09:46;1.013;-0.019;0.085;0.045204028487205505;-0.01710422709584236;-0.0012217304902151227
01:00:0A:00:00:00:00;1724285387;22/08/24;00:09:47;1.018;-0.022;0.085;0.04642575979232788;-0.018325956538319588;0.0
01:00:0A:00:00:00:00;1724285388;22/08/24;00:09:48;1.02;-0.022;0.086;0.04642575979232788;-0.012217304669320583;0.0024434609804302454
01:00:0A:00:00:00:00;1724285389;22/08/24;00:09:49;1.018;-0.024;0.088;0.04642575979232788;-0.0073303827084600925;0.009773843921720982
01:00:0A:00:00:00:00;1724285390;22/08/24;00:09:50;1.015;-0.023;0.083;0.04642575979232788;-0.0036651913542300463;0.012217304669320583
01:00:0A:00:00:00:00;1724285391;22/08/24;00:09:51;1.011;-0.02;0.081;0.04764748737215996;-0.004886921960860491;0.009773843921720982
01:00:0A:00:00:00:00;1724285392;22/08/24;00:09:52;1.011;-0.018;0.081;0.04764748737215996;-0.015882495790719986;0.00855211354792118
01:00:0A:00:00:00:00;1724285393;22/08/24;00:09:53;1.012;-0.02;0.081;0.04886921867728233;-0.02076941914856434;0.0012217304902151227
01:00:0A:00:00:00:00;1724285394;22/08/24;00:09:54;1.015;-0.022;0.088;0.04886921867728233;-0.014660765416920185;0.0024434609804302454
01:00:0A:00:00:00:00;1724285395;22/08/24;00:09:55;1.016;-0.022;0.088;0.04764748737215996;-0.010995574295520782;0.0073303827084600925
01:00:0A:00:00:00:00;1724285396;22/08/24;00:09:56;1.015;-0.023;0.083;0.04764748737215996;-0.0024434609804302454;0.009773843921720982
01:00:0A:00:00:00:00;1724285397;22/08/24;00:09:57;1.014;-0.02;0.084;0.04886921867728233;-0.0012217304902151227;0.00855211354792118
01:00:0A:00:00:00:00;1724285398;22/08/24;00:09:58;1.014;-0.02;0.081;0.04764748737215996;-0.013439035043120384;0.004886921960860491
01:00:0A:00:00:00:00;1724285399;22/08/24;00:09:59;1.013;-0.02;0.08;0.04764748737215996;-0.019547687843441963;0.0012217304902151227
01:00:0A:00:00:00:00;1724285400;22/08/24;00:10:00;1.015;-0.022;0.086;0.04764748737215996;-0.018325956538319588;-0.0012217304902151227
01:00:0A:00:00:00:00;1724285401;22/08/24;00:10:01;1.015;-0.022;0.088;0.04642575979232788;-0.013439035043120384;0.006108652334660292
01:00:0A:00:00:00:00;1724285402;22/08/24;00:10:02;1.016;-0.025;0.087;0.04642575979232788;-0.006108652334660292;0.0073303827084600925
01:00:0A:00:00:00:00;1724285403;22/08/24;00:10:03;1.016;-0.022;0.084;0.04642575979232788;-0.0024434609804302454;0.010995574295520782
01:00:0A:00:00:00:00;1724285404;22/08/24;00:10:04;1.015;-0.021;0.082;0.04398229718208313;-0.0073303827084600925;0.013439035043120384
01:00:0A:00:00:00:00;1724285405;22/08/24;00:10:05;1.015;-0.021;0.081;0.045204028487205505;-0.013439035043120384;0.006108652334660292
01:00:0A:00:00:00:00;1724285406;22/08/24;00:10:06;1.012;-0.019;0.082;0.045204028487205505;-0.018325956538319588;0.0036651913542300463
01:00:0A:00:00:00:00;1724285407;22/08/24;00:10:07;1.012;-0.021;0.087;0.04398229718208313;-0.01710422709584236;0.004886921960860491
01:00:0A:00:00:00:00;1724285408;22/08/24;00:10:08;1.013;-0.024;0.086;0.045204028487205505;-0.010995574295520782;0.0036651913542300463
01:00:0A:00:00:00:00;1724285409;22/08/24;00:10:09;1.015;-0.021;0.086;0.04398229718208313;-0.006108652334660292;0.0073303827084600925
01:00:0A:00:00:00:00;1724285410;22/08/24;00:10:10;1.016;-0.021;0.082;0.042760565876960754;-0.009773843921720982;0.0073303827084600925
01:00:0A:00:00:00:00;1724285411;22/08/24;00:10:11;1.016;-0.022;0.081;0.04398229718208313;-0.010995574295520782;0.0024434609804302454
01:00:0A:00:00:00:00;1724285412;22/08/24;00:10:12;1.015;-0.02;0.082;0.042760565876960754;-0.015882495790719986;0.0012217304902151227
01:00:0A:00:00:00:00;1724285413;22/08/24;00:10:13;1.014;-0.022;0.084;0.040317103266716;-0.01710422709584236;0.006108652334660292
01:00:0A:00:00:00:00;1724285414;22/08/24;00:10:14;1.013;-0.022;0.086;0.04153883829712868;-0.012217304669320583;0.0024434609804302454
01:00:0A:00:00:00:00;1724285415;22/08/24;00:10:15;1.014;-0.021;0.085;0.04153883829712868;-0.010995574295520782;0.0024434609804302454
01:00:0A:00:00:00:00;1724285416;22/08/24;00:10:16;1.016;-0.022;0.084;0.039095375686883926;-0.00855211354792118;0.00855211354792118
01:00:0A:00:00:00:00;1724285417;22/08/24;00:10:17;1.017;-0.022;0.084;0.040317103266716;-0.009773843921720982;0.0012217304902151227
01:00:0A:00:00:00:00;1724285418;22/08/24;00:10:18;1.016;-0.021;0.084;0.039095375686883926;-0.012217304669320583;0.004886921960860491
01:00:0A:00:00:00:00;1724285419;22/08/24;00:10:19;1.015;-0.023;0.085;0.036651913076639175;-0.012217304669320583;0.012217304669320583
01:00:0A:00:00:00:00;1724285420;22/08/24;00:10:20;1.013;-0.022;0.086;0.03787364438176155;-0.009773843921720982;0.00855211354792118
01:00:0A:00:00:00:00;1724285421;22/08/24;00:10:21;1.012;-0.018;0.085;0.036651913076639175;-0.009773843921720982;0.006108652334660292
01:00:0A:00:00:00:00;1724285422;22/08/24;00:10:22;1.012;-0.02;0.084;0.0354301817715168;-0.00855211354792118;0.006108652334660292
01:00:0A:00:00:00:00;1724285423;22/08/24;00:10:23;1.015;-0.022;0.083;0.036651913076639175;-0.012217304669320583;0.0
01:00:0A:00:00:00:00;1724285424;22/08/24;00:10:24;1.012;-0.02;0.082;0.036651913076639175;-0.013439035043120384;0.0
01:00:0A:00:00:00:00;1724285425;22/08/24;00:10:25;1.014;-0.023;0.084;0.03420845419168472;-0.012217304669320583;0.0073303827084600925
01:00:0A:00:00:00:00;1724285426;22/08/24;00:10:26;1.014;-0.023;0.085;0.0354301817715168;-0.013439035043120384;0.004886921960860491
01:00:0A:00:00:00:00;1724285427;22/08/24;00:10:27;1.014;-0.019;0.084;0.03420845419168472;-0.013439035043120384;0.004886921960860491
01:00:0A:00:00:00:00;1724285428;22/08/24;00:10:28;1.015;-0.022;0.085;0.03420845419168472;-0.010995574295520782;0.0073303827084600925
01:00:0A:00:00:00:00;1724285429;22/08/24;00:10:29;1.015;-0.022;0.086;0.0354301817715168;-0.013439035043120384;0.0012217304902151227
01:00:0A:00:00:00:00;1724285430;22/08/24;00:10:30;1.016;-0.019;0.084;0.03420845419168472;-0.010995574295520782;0.0036651913542300463
01:00:0A:00:00:00:00;1724285431;22/08/24;00:10:31;1.016;-0.023;0.085;0.03298672288656235;-0.00855211354792118;0.0073303827084600925
01:00:0A:00:00:00:00;1724285432;22/08/24;00:10:32;1.016;-0.024;0.086;0.03298672288656235;-0.009773843921720982;0.0036651913542300463
01:00:0A:00:00:00:00;1724285433;22/08/24;00:10:33;1.016;-0.02;0.083;0.03176499158143997;-0.00855211354792118;0.00855211354792118
01:00:0A:00:00:00:00;1724285434;22/08/24;00:10:34;1.013;-0.021;0.084;0.03176499158143997;-0.009773843921720982;0.00855211354792118
01:00:0A:00:00:00:00;1724285435;22/08/24;00:10:35;1.012;-0.021;0.085;0.03298672288656235;-0.014660765416920185;0.0024434609804302454
01:00:0A:00:00:00:00;1724285436;22/08/24;00:10:36;1.012;-0.018;0.084;0.03176499158143997;-0.012217304669320583;0.004886921960860491
01:00:0A:00:00:00:00;1724285437;22/08/24;00:10:37;1.015;-0.022;0.085;0.030543262138962746;-0.00855211354792118;0.004886921960860491
01:00:0A:00:00:00:00;1724285438;22/08/24;00:10:38;1.016;-0.022;0.084;0.03176499158143997;-0.012217304669320583;0.0
01:00:0A:00:00:00:00;1724285439;22/08/24;00:10:39;1.016;-0.021;0.082;0.02932153083384037;-0.010995574295520782;0.006108652334660292
01:00:0A:00:00:00:00;1724285440;22/08/24;00:10:40;1.014;-0.023;0.083;0.02932153083384037;-0.00855211354792118;0.010995574295520782
01:00:0A:00:00:00:00;1724285441;22/08/24;00:10:41;1.01;-0.021;0.083;0.02932153083384037;-0.018325956538319588;0.0036651913542300463
01:00:0A:00:00:00:00;1724285442;22/08/24;00:10:42;1.012;-0.019;0.082;0.028099799528717995;-0.014660765416920185;0.006108652334660292
01:00:0A:00:00:00:00;1724285443;22/08/24;00:10:43;1.015;-0.021;0.085;0.02932153083384037;-0.012217304669320583;0.0024434609804302454
01:00:0A:00:00:00:00;1724285444;22/08/24;00:10:44;1.017;-0.021;0.085;0.02932153083384037;-0.01710422709584236;-0.0036651913542300463
01:00:0A:00:00:00:00;1724285445;22/08/24;00:10:45;1.02;-0.022;0.082;0.028099799528717995;-0.010995574295520782;0.0036651913542300463
01:00:0A:00:00:00:00;1724285446;22/08/24;00:10:46;1.017;-0.024;0.086;0.02687807008624077;-0.006108652334660292;0.010995574295520782
01:00:0A:00:00:00:00;1724285447;22/08/24;00:10:47;1.015;-0.022;0.084;0.02687807008624077;-0.012217304669320583;0.0073303827084600925
01:00:0A:00:00:00:00;1724285448;22/08/24;00:10:48;1.012;-0.019;0.081;0.02687807008624077;-0.009773843921720982;0.00855211354792118
01:00:0A:00:00:00:00;1724285449;22/08/24;00:10:49;1.012;-0.022;0.086;0.02687807008624077;-0.00855211354792118;0.006108652334660292
01:00:0A:00:00:00:00;1724285450;22/08/24;00:10:50;1.014;-0.021;0.083;0.02687807008624077;-0.014660765416920185;0.0
01:00:0A:00:00:00:00;1724285451;22/08/24;00:10:51;1.012;-0.02;0.082;0.02687807008624077;-0.010995574295520782;0.0036651913542300463
01:00:0A:00:00:00:00;1724285452;22/08/24;00:10:52;1.014;-0.022;0.085;0.02687807008624077;-0.010995574295520782;0.004886921960860491
01:00:0A:00:00:00:00;1724285453;22/08/24;00:10:53;1.014;-0.023;0.084;0.025656338781118393;-0.014660765416920185;0.0036651913542300463
01:00:0A:00:00:00:00;1724285454;22/08/24;00:10:54;1.015;-0.02;0.082;0.025656338781118393;-0.00855211354792118;0.009773843921720982
01:00:0A:00:00:00:00;1724285455;22/08/24;00:10:55;1.015;-0.022;0.085;0.025656338781118393;-0.009773843921720982;0.006108652334660292
01:00:0A:00:00:00:00;1724285456;22/08/24;00:10:56;1.015;-0.021;0.083;0.025656338781118393;-0.013439035043120384;0.0012217304902151227
01:00:0A:00:00:00:00;1724285457;22/08/24;00:10:57;1.014;-0.02;0.083;0.025656338781118393;-0.006108652334660292;0.0036651913542300463
01:00:0A:00:00:00:00;1724285458;22/08/24;00:10:58;1.016;-0.023;0.086;0.025656338781118393;-0.009773843921720982;0.0024434609804302454
01:00:0A:00:00:00:00;1724285459;22/08/24;00:10:59;1.016;-0.021;0.084;0.024434609338641167;-0.014660765416920185;0.0036651913542300463
01:00:0A:00:00:00:00;1724285460;22/08/24;00:11:00;1.016;-0.022;0.083;0.024434609338641167;-0.0073303827084600925;0.009773843921720982
01:00:0A:00:00:00:00;1724285461;22/08/24;00:11:01;1.012;-0.021;0.086;0.024434609338641167;-0.010995574295520782;0.0073303827084600925
01:00:0A:00:00:00:00;1724285462;22/08/24;00:11:02;1.013;-0.019;0.082;0.024434609338641167;-0.01710422709584236;0.0024434609804302454
01:00:0A:00:00:00:00;1724285463;22/08/24;00:11:03;1.012;-0.021;0.085;0.024434609338641167;-0.00855211354792118;0.0024434609804302454
01:00:0A:00:00:00:00;1724285464;22/08/24;00:11:04;1.015;-0.022;0.088;0.024434609338641167;-0.012217304669320583;0.0012217304902151227
01:00:0A:00:00:00:00;1724285465;22/08/24;00:11:05;1.016;-0.022;0.085;0.024434609338641167;-0.015882495790719986;0.0024434609804302454
01:00:0A:00:00:00:00;1724285466;22/08/24;00:11:06;1.016;-0.021;0.085;0.024434609338641167;-0.004886921960860491;0.009773843921720982
01:00:0A:00:00:00:00;1724285467;22/08/24;00:11:07;1.015;-0.022;0.087;0.02321287989616394;-0.00855211354792118;0.0073303827084600925
01:00:0A:00:00:00:00;1724285468;22/08/24;00:11:08;1.012;-0.02;0.081;0.02321287989616394;-0.013439035043120384;0.0036651913542300463
01:00:0A:00:00:00:00;1724285469;22/08/24;00:11:09;1.012;-0.02;0.082;0.024434609338641167;-0.0073303827084600925;0.0036651913542300463
01:00:0A:00:00:00:00;1724285470;22/08/24;00:11:10;1.015;-0.022;0.086;0.02321287989616394;-0.014660765416920185;0.0012217304902151227
01:00:0A:00:00:00:00;1724285471;22/08/24;00:11:11;1.016;-0.023;0.082;0.021991148591041565;-0.014660765416920185;0.0036651913542300463
01:00:0A:00:00:00:00;1724285472;22/08/24;00:11:12;1.016;-0.022;0.084;0.02321287989616394;-0.00855211354792118;0.00855211354792118
01:00:0A:00:00:00:00;1724285473;22/08/24;00:11:13;1.013;-0.021;0.087;0.02321287989616394;-0.012217304669320583;0.006108652334660292
01:00:0A:00:00:00:00;1724285474;22/08/24;00:11:14;1.013;-0.02;0.081;0.021991148591041565;-0.014660765416920185;0.0036651913542300463
01:00:0A:00:00:00:00;1724285475;22/08/24;00:11:15;1.014;-0.02;0.084;0.02321287989616394;-0.009773843921720982;0.0036651913542300463
01:00:0A:00:00:00:00;1724285476;22/08/24;00:11:16;1.015;-0.022;0.087;0.021991148591041565;-0.015882495790719986;0.0024434609804302454
01:00:0A:00:00:00:00;1724285477;22/08/24;00:11:17;1.016;-0.022;0.082;0.021991148591041565;-0.014660765416920185;0.004886921960860491
01:00:0A:00:00:00:00;1724285478;22/08/24;00:11:18;1.014;-0.022;0.086;0.02321287989616394;-0.006108652334660292;0.00855211354792118
01:00:0A:00:00:00:00;1724285479;22/08/24;00:11:19;1.013;-0.022;0.085;0.02076941914856434;-0.013439035043120384;0.0073303827084600925
01:00:0A:00:00:00:00;1724285480;22/08/24;00:11:20;1.013;-0.021;0.082;0.021991148591041565;-0.013439035043120384;0.0036651913542300463
01:00:0A:00:00:00:00;1724285481;22/08/24;00:11:21;1.015;-0.023;0.084;0.02321287989616394;-0.0073303827084600925;0.0036651913542300463
01:00:0A:00:00:00:00;1724285482;22/08/24;00:11:22;1.015;-0.023;0.086;0.02076941914856434;-0.014660765416920185;0.004886921960860491
01:00:0A:00:00:00:00;1724285483;22/08/24;00:11:23;1.016;-0.022;0.083;0.021991148591041565;-0.010995574295520782;0.006108652334660292
01:00:0A:00:00:00:00;1724285484;22/08/24;00:11:24;1.014;-0.021;0.083;0.021991148591041565;-0.006108652334660292;0.006108652334660292
01:00:0A:00:00:00:00;1724285485;22/08/24;00:11:25;1.014;-0.022;0.084;0.02076941914856434;-0.015882495790719986;0.0036651913542300463
01:00:0A:00:00:00:00;1724285486;22/08/24;00:11:26;1.014;-0.021;0.082;0.021991148591041565;-0.014660765416920185;0.0012217304902151227
01:00:0A:00:00:00:00;1724285487;22/08/24;00:11:27;1.015;-0.023;0.085;0.02321287989616394;-0.009773843921720982;0.0024434609804302454
01:00:0A:00:00:00:00;1724285488;22/08/24;00:11:28;1.015;-0.023;0.085;0.02076941914856434;-0.014660765416920185;0.004886921960860491
01:00:0A:00:00:00:00;1724285489;22/08/24;00:11:29;1.014;-0.023;0.082;0.021991148591041565;-0.012217304669320583;0.006108652334660292
01:00:0A:00:00:00:00;1724285490;22/08/24;00:11:30;1.012;-0.021;0.085;0.021991148591041565;-0.0073303827084600925;0.006108652334660292
01:00:0A:00:00:00:00;1724285491;22/08/24;00:11:31;1.015;-0.02;0.084;0.02076941914856434;-0.015882495790719986;0.0024434609804302454
01:00:0A:00:00:00:00;1724285492;22/08/24;00:11:32;1.015;-0.021;0.082;0.021991148591041565;-0.013439035043120384;0.0024434609804302454
01:00:0A:00:00:00:00;1724285493;22/08/24;00:11:33;1.016;-0.022;0.087;0.021991148591041565;-0.0073303827084600925;0.0024434609804302454
01:00:0A:00:00:00:00;1724285494;22/08/24;00:11:34;1.016;-0.022;0.085;0.019547687843441963;-0.014660765416920185;0.0036651913542300463
01:00:0A:00:00:00:00;1724285495;22/08/24;00:11:35;1.016;-0.021;0.081;0.02076941914856434;-0.00855211354792118;0.004886921960860491
01:00:0A:00:00:00:00;1724285496;22/08/24;00:11:36;1.014;-0.021;0.085;0.021991148591041565;-0.006108652334660292;0.006108652334660292
01:00:0A:00:00:00:00;1724285497;22/08/24;00:11:37;1.012;-0.02;0.084;0.019547687843441963;-0.01710422709584236;0.0024434609804302454
01:00:0A:00:00:00:00;1724285498;22/08/24;00:11:38;1.014;-0.022;0.082;0.02076941914856434;-0.010995574295520782;0.0024434609804302454
01:00:0A:00:00:00:00;1724285499;22/08/24;00:11:39;1.014;-0.022;0.086;0.02076941914856434;-0.00855211354792118;0.0036651913542300463
01:00:0A:00:00:00:00;1724285500;22/08/24;00:11:40;1.015;-0.022;0.085;0.019547687843441963;-0.014660765416920185;0.004886921960860491
01:00:0A:00:00:00:00;1724285501;22/08/24;00:11:41;1.014;-0.022;0.081;0.02076941914856434;-0.00855211354792118;0.006108652334660292
01:00:0A:00:00:00:00;1724285502;22/08/24;00:11:42;1.014;-0.02;0.084;0.02076941914856434;-0.009773843921720982;0.006108652334660292
01:00:0A:00:00:00:00;1724285503;22/08/24;00:11:43;1.015;-0.02;0.083;0.018325956538319588;-0.018325956538319588;0.004886921960860491
01:00:0A:00:00:00:00;1724285504;22/08/24;00:11:44;1.015;-0.021;0.082;0.02076941914856434;-0.010995574295520782;0.0012217304902151227
01:00:0A:00:00:00:00;1724285505;22/08/24;00:11:45;1.016;-0.021;0.087;0.02076941914856434;-0.009773843921720982;0.0036651913542300463
01:00:0A:00:00:00:00;1724285506;22/08/24;00:11:46;1.014;-0.022;0.084;0.018325956538319588;-0.014660765416920185;0.004886921960860491
01:00:0A:00:00:00:00;1724285507;22/08/24;00:11:47;1.015;-0.022;0.082;0.02076941914856434;-0.00855211354792118;0.0036651913542300463
01:00:0A:00:00:00:00;1724285508;22/08/24;00:11:48;1.015;-0.021;0.086;0.02076941914856434;-0.009773843921720982;0.004886921960860491
01:00:0A:00:00:00:00;1724285509;22/08/24;00:11:49;1.016;-0.021;0.084;0.018325956538319588;-0.015882495790719986;0.006108652334660292
01:00:0A:00:00:00:00;1724285510;22/08/24;00:11:50;1.016;-0.021;0.083;0.02076941914856434;-0.0073303827084600925;0.0036651913542300463
01:00:0A:00:00:00:00;1724285511;22/08/24;00:11:51;1.014;-0.02;0.086;0.02076941914856434;-0.0073303827084600925;0.0036651913542300463
01:00:0A:00:00:00:00;1724285512;22/08/24;00:11:52;1.013;-0.023;0.082;0.019547687843441963;-0.013439035043120384;0.006108652334660292
01:00:0A:00:00:00:00;1724285513;22/08/24;00:11:53;1.012;-0.022;0.082;0.021991148591041565;-0.00855211354792118;0.004886921960860491
01:00:0A:00:00:00:00;1724285514;22/08/24;00:11:54;1.014;-0.021;0.085;0.02076941914856434;-0.012217304669320583;0.004886921960860491
01:00:0A:00:00:00:00;1724285515;22/08/24;00:11:55;1.015;-0.021;0.083;0.019547687843441963;-0.01710422709584236;0.004886921960860491
01:00:0A:00:00:00:00;1724285516;22/08/24;00:11:56;1.014;-0.021;0.083;0.02321287989616394;-0.0073303827084600925;0.0024434609804302454
01:00:0A:00:00:00:00;1724285517;22/08/24;00:11:57;1.014;-0.021;0.086;0.021991148591041565;-0.010995574295520782;0.0024434609804302454
01:00:0A:00:00:00:00;1724285518;22/08/24;00:11:58;1.016;-0.023;0.084;0.02076941914856434;-0.014660765416920185;0.004886921960860491
01:00:0A:00:00:00:00;1724285519;22/08/24;00:11:59;1.014;-0.023;0.084;0.02321287989616394;-0.00855211354792118;0.0036651913542300463
01:00:0A:00:00:00:00;1724285520;22/08/24;00:12:00;1.015;-0.021;0.086;0.02076941914856434;-0.010995574295520782;0.006108652334660292
01:00:0A:00:00:00:00;1724285521;22/08/24;00:12:01;1.016;-0.021;0.083;0.019547687843441963;-0.013439035043120384;0.006108652334660292
01:00:0A:00:00:00:00;1724285522;22/08/24;00:12:02;1.015;-0.021;0.084;0.021991148591041565;-0.0073303827084600925;0.0024434609804302454
01:00:0A:00:00:00:00;1724285523;22/08/24;00:12:03;1.014;-0.019;0.086;0.02076941914856434;-0.010995574295520782;0.004886921960860491
01:00:0A:00:00:00:00;1724285524;22/08/24;00:12:04;1.014;-0.023;0.083;0.019547687843441963;-0.014660765416920185;0.0036651913542300463
01:00:0A:00:00:00:00;1724285525;22/08/24;00:12:05;1.013;-0.022;0.083;0.021991148591041565;-0.00855211354792118;0.0024434609804302454
01:00:0A:00:00:00:00;1724285526;22/08/24;00:12:06;1.015;-0.02;0.086;0.02076941914856434;-0.012217304669320583;0.004886921960860491
01:00:0A:00:00:00:00;1724285527;22/08/24;00:12:07;1.016;-0.021;0.083;0.019547687843441963;-0.013439035043120384;0.004886921960860491
01:00:0A:00:00:00:00;1724285528;22/08/24;00:12:08;1.015;-0.022;0.084;0.021991148591041565;-0.0073303827084600925;0.0012217304902151227
01:00:0A:00:00:00:00;1724285529;22/08/24;00:12:09;1.015;-0.021;0.087;0.019547687843441963;-0.012217304669320583;0.006108652334660292
01:00:0A:00:00:00:00;1724285530;22/08/24;00:12:10;1.014;-0.022;0.082;0.018325956538319588;-0.014660765416920185;0.006108652334660292
01:00:0A:00:00:00:00;1724285531;22/08/24;00:12:11;1.015;-0.022;0.084;0.02076941914856434;-0.0073303827084600925;0.0024434609804302454
01:00:0A:00:00:00:00;1724285532;22/08/24;00:12:12;1.014;-0.021;0.086;0.018325956538319588;-0.012217304669320583;0.006108652334660292
01:00:0A:00:00:00:00;1724285533;22/08/24;00:12:13;1.014;-0.023;0.081;0.018325956538319588;-0.012217304669320583;0.006108652334660292
01:00:0A:00:00:00:00;1724285534;22/08/24;00:12:14;1.014;-0.021;0.084;0.019547687843441963;-0.00855211354792118;0.0012217304902151227
01:00:0A:00:00:00:00;1724285535;22/08/24;00:12:15;1.015;-0.021;0.085;0.01710422709584236;-0.014660765416920185;0.004886921960860491
01:00:0A:00:00:00:00;1724285536;22/08/24;00:12:16;1.014;-0.025;0.083;0.01710422709584236;-0.013439035043120384;0.0036651913542300463
01:00:0A:00:00:00:00;1724285537;22/08/24;00:12:17;1.014;-0.021;0.085;0.018325956538319588;-0.00855211354792118;0.0012217304902151227
01:00:0A:00:00:00:00;1724285538;22/08/24;00:12:18;1.016;-0.02;0.087;0.015882495790719986;-0.012217304669320583;0.004886921960860491
01:00:0A:00:00:00:00;1724285539;22/08/24;00:12:19;1.016;-0.024;0.083;0.015882495790719986;-0.010995574295520782;0.004886921960860491
01:00:0A:00:00:00:00;1724285540;22/08/24;00:12:20;1.015;-0.022;0.084;0.018325956538319588;-0.0073303827084600925;0.0024434609804302454
01:00:0A:00:00:00:00;1724285541;22/08/24;00:12:21;1.015;-0.021;0.084;0.014660765416920185;-0.014660765416920185;0.006108652334660292
01:00:0A:00:00:00:00;1724285542;22/08/24;00:12:22;1.013;-0.023;0.084;0.015882495790719986;-0.013439035043120384;0.006108652334660292
01:00:0A:00:00:00:00;1724285543;22/08/24;00:12:23;1.013;-0.022;0.086;0.01710422709584236;-0.00855211354792118;0.0024434609804302454
01:00:0A:00:00:00:00;1724285544;22/08/24;00:12:24;1.013;-0.02;0.085;0.014660765416920185;-0.013439035043120384;0.006108652334660292
01:00:0A:00:00:00:00;1724285545;22/08/24;00:12:25;1.015;-0.023;0.083;0.015882495790719986;-0.010995574295520782;0.0024434609804302454
01:00:0A:00:00:00:00;1724285546;22/08/24;00:12:26;1.015;-0.021;0.085;0.015882495790719986;-0.00855211354792118;0.0012217304902151227
01:00:0A:00:00:00:00;1724285547;22/08/24;00:12:27;1.014;-0.021;0.085;0.013439035043120384;-0.014660765416920185;0.006108652334660292
01:00:0A:00:00:00:00;1724285548;22/08/24;00:12:28;1.013;-0.022;0.083;0.014660765416920185;-0.013439035043120384;0.0036651913542300463
01:00:0A:00:00:00:00;1724285549;22/08/24;00:12:29;1.016;-0.019;0.086;0.015882495790719986;-0.009773843921720982;0.0024434609804302454
01:00:0A:00:00:00:00;1724285550;22/08/24;00:12:30;1.016;-0.02;0.085;0.013439035043120384;-0.013439035043120384;0.006108652334660292
01:00:0A:00:00:00:00;1724285551;22/08/24;00:12:31;1.016;-0.023;0.083;0.014660765416920185;-0.009773843921720982;0.0024434609804302454
01:00:0A:00:00:00:00;1724285552;22/08/24;00:12:32;1.016;-0.02;0.085;0.015882495790719986;-0.00855211354792118;0.0024434609804302454
01:00:0A:00:00:00:00;1724285553;22/08/24;00:12:33;1.012;-0.023;0.085;0.012217304669320583;-0.012217304669320583;0.0073303827084600925
01:00:0A:00:00:00:00;1724285554;22/08/24;00:12:34;1.013;-0.023;0.082;0.014660765416920185;-0.012217304669320583;0.004886921960860491
01:00:0A:00:00:00:00;1724285555;22/08/24;00:12:35;1.014;-0.02;0.085;0.014660765416920185;-0.010995574295520782;0.0024434609804302454
01:00:0A:00:00:00:00;1724285556;22/08/24;00:12:36;1.016;-0.021;0.084;0.012217304669320583;-0.014660765416920185;0.0073303827084600925
01:00:0A:00:00:00:00;1724285557;22/08/24;00:12:37;1.015;-0.023;0.083;0.014660765416920185;-0.010995574295520782;0.0024434609804302454
01:00:0A:00:00:00:00;1724285558;22/08/24;00:12:38;1.015;-0.02;0.085;0.014660765416920185;-0.00855211354792118;0.0024434609804302454
01:00:0A:00:00:00:00;1724285559;22/08/24;00:12:39;1.015;-0.021;0.084;0.012217304669320583;-0.012217304669320583;0.006108652334660292
01:00:0A:00:00:00:00;1724285560;22/08/24;00:12:40;1.015;-0.024;0.083;0.013439035043120384;-0.009773843921720982;0.0036651913542300463
01:00:0A:00:00:00:00;1724285561;22/08/24;00:12:41;1.015;-0.02;0.084;0.013439035043120384;-0.009773843921720982;0.0036651913542300463
01:00:0A:00:00:00:00;1724285562;22/08/24;00:12:42;1.015;-0.021;0.085;0.010995574295520782;-0.014660765416920185;0.0073303827084600925
01:00:0A:00:00:00:00;1724285563;22/08/24;00:12:43;1.015;-0.023;0.084;0.013439035043120384;-0.009773843921720982;0.0024434609804302454
01:00:0A:00:00:00:00;1724285564;22/08/24;00:12:44;1.015;-0.02;0.085;0.013439035043120384;-0.009773843921720982;0.0024434609804302454
01:00:0A:00:00:00:00;1724285565;22/08/24;00:12:45;1.015;-0.022;0.084;0.010995574295520782;-0.013439035043120384;0.006108652334660292
01:00:0A:00:00:00:00;1724285566;22/08/24;00:12:46;1.014;-0.023;0.083;0.013439035043120384;-0.009773843921720982;0.0024434609804302454
01:00:0A:00:00:00:00;1724285567;22/08/24;00:12:47;1.015;-0.02;0.085;0.013439035043120384;-0.012217304669320583;0.0024434609804302454
01:00:0A:00:00:00:00;1724285568;22/08/24;00:12:48;1.015;-0.021;0.084;0.010995574295520782;-0.015882495790719986;0.006108652334660292
01:00:0A:00:00:00:00;1724285569;22/08/24;00:12:49;1.016;-0.023;0.084;0.013439035043120384;-0.009773843921720982;0.0012217304902151227
01:00:0A:00:00:00:00;1724285570;22/08/24;00:12:50;1.015;-0.021;0.087;0.012217304669320583;-0.009773843921720982;0.0036651913542300463
01:00:0A:00:00:00:00;1724285571;22/08/24;00:12:51;1.015;-0.021;0.085;0.009773843921720982;-0.012217304669320583;0.0073303827084600925
01:00:0A:00:00:00:00;1724285572;22/08/24;00:12:52;1.014;-0.021;0.083;0.013439035043120384;-0.00855211354792118;0.0012217304902151227
01:00:0A:00:00:00:00;1724285573;22/08/24;00:12:53;1.014;-0.019;0.084;0.010995574295520782;-0.010995574295520782;0.0036651913542300463
01:00:0A:00:00:00:00;1724285574;22/08/24;00:12:54;1.014;-0.021;0.083;0.009773843921720982;-0.014660765416920185;0.006108652334660292
01:00:0A:00:00:00:00;1724285575;22/08/24;00:12:55;1.015;-0.023;0.083;0.012217304669320583;-0.010995574295520782;0.0012217304902151227
01:00:0A:00:00:00:00;1724285576;22/08/24;00:12:56;1.015;-0.02;0.084;0.010995574295520782;-0.010995574295520782;0.004886921960860491
01:00:0A:00:00:00:00;1724285577;22/08/24;00:12:57;1.014;-0.022;0.084;0.009773843921720982;-0.013439035043120384;0.006108652334660292
01:00:0A:00:00:00:00;1724285578;22/08/24;00:12:58;1.015;-0.022;0.084;0.012217304669320583;-0.009773843921720982;0.0012217304902151227
01:00:0A:00:00:00:00;1724285579;22/08/24;00:12:59;1.015;-0.019;0.085;0.010995574295520782;-0.012217304669320583;0.0036651913542300463
01:00:0A:00:00:00:00;1724285580;22/08/24;00:13:00;1.015;-0.022;0.084;0.009773843921720982;-0.013439035043120384;0.004886921960860491
01:00:0A:00:00:00:00;1724285581;22/08/24;00:13:01;1.014;-0.022;0.083;0.012217304669320583;-0.009773843921720982;0.0012217304902151227
01:00:0A:00:00:00:00;1724285582;22/08/24;00:13:02;1.015;-0.02;0.085;0.010995574295520782;-0.010995574295520782;0.006108652334660292
01:00:0A:00:00:00:00;1724285583;22/08/24;00:13:03;1.015;-0.022;0.083;0.009773843921720982;-0.012217304669320583;0.0073303827084600925
01:00:0A:00:00:00:00;1724285584;22/08/24;00:13:04;1.014;-0.021;0.083;0.012217304669320583;-0.00855211354792118;0.0012217304902151227
01:00:0A:00:00:00:00;1724285585;22/08/24;00:13:05;1.014;-0.019;0.085;0.010995574295520782;-0.012217304669320583;0.0036651913542300463
01:00:0A:00:00:00:00;1724285586;22/08/24;00:13:06;1.014;-0.023;0.083;0.010995574295520782;-0.013439035043120384;0.004886921960860491
01:00:0A:00:00:00:00;1724285587;22/08/24;00:13:07;1.014;-0.022;0.083;0.012217304669320583;-0.009773843921720982;0.0012217304902151227
01:00:0A:00:00:00:00;1724285588;22/08/24;00:13:08;1.015;-0.02;0.085;0.009773843921720982;-0.012217304669320583;0.006108652334660292
01:00:0A:00:00:00:00;1724285589;22/08/24;00:13:09;1.014;-0.023;0.083;0.009773843921720982;-0.012217304669320583;0.006108652334660292
01:00:0A:00:00:00:00;1724285590;22/08/24;00:13:10;1.014;-0.022;0.083;0.012217304669320583;-0.009773843921720982;0.0012217304902151227
01:00:0A:00:00:00:00;1724285591;22/08/24;00:13:11;1.015;-0.019;0.084;0.009773843921720982;-0.012217304669320583;0.004886921960860491
01:00:0A:00:00:00:00;1724285592;22/08/24;00:13:12;1.014;-0.023;0.084;0.009773843921720982;-0.013439035043120384;0.006108652334660292
01:00:0A:00:00:00:00;1724285593;22/08/24;00:13:13;1.014;-0.022;0.085;0.012217304669320583;-0.009773843921720982;0.0012217304902151227
01:00:0A:00:00:00:00;1724285594;22/08/24;00:13:14;1.015;-0.02;0.085;0.009773843921720982;-0.010995574295520782;0.006108652334660292
01:00:0A:00:00:00:00;1724285595;22/08/24;00:13:15;1.016;-0.022;0.083;0.009773843921720982;-0.012217304669320583;0.006108652334660292
01:00:0A:00:00:00:00;1724285596;22/08/24;00:13:16;1.015;-0.02;0.084;0.012217304669320583;-0.009773843921720982;0.0
01:00:0A:00:00:00:00;1724285597;22/08/24;00:13:17;1.015;-0.021;0.085;0.009773843921720982;-0.012217304669320583;0.004886921960860491
01:00:0A:00:00:00:00;1724285598;22/08/24;00:13:18;1.014;-0.024;0.083;0.009773843921720982;-0.012217304669320583;0.004886921960860491
01:00:0A:00:00:00:00;1724285599;22/08/24;00:13:19;1.016;-0.022;0.086;0.012217304669320583;-0.00855211354792118;0.0012217304902151227
01:00:0A:00:00:00:00;1724285600;22/08/24;00:13:20;1.015;-0.021;0.084;0.009773843921720982;-0.010995574295520782;0.006108652334660292
01:00:0A:00:00:00:00;1724285601;22/08/24;00:13:21;1.015;-0.023;0.083;0.010995574295520782;-0.010995574295520782;0.004886921960860491
01:00:0A:00:00:00:00;1724285602;22/08/24;00:13:22;1.015;-0.02;0.084;0.012217304669320583;-0.009773843921720982;0.0012217304902151227
01:00:0A:00:00:00:00;1724285603;22/08/24;00:13:23;1.014;-0.021;0.084;0.009773843921720982;-0.013439035043120384;0.004886921960860491
01:00:0A:00:00:00:00;1724285604;22/08/24;00:13:24;1.015;-0.024;0.083;0.010995574295520782;-0.012217304669320583;0.0036651913542300463
01:00:0A:00:00:00:00;1724285605;22/08/24;00:13:25;1.015;-0.022;0.086;0.012217304669320583;-0.009773843921720982;0.0024434609804302454
01:00:0A:00:00:00:00;1724285606;22/08/24;00:13:26;1.014;-0.021;0.085;0.009773843921720982;-0.012217304669320583;0.0073303827084600925
01:00:0A:00:00:00:00;1724285607;22/08/24;00:13:27;1.014;-0.023;0.083;0.010995574295520782;-0.009773843921720982;0.004886921960860491
01:00:0A:00:00:00:00;1724285608;22/08/24;00:13:28;1.015;-0.02;0.084;0.012217304669320583;-0.009773843921720982;0.0012217304902151227
01:00:0A:00:00:00:00;1724285609;22/08/24;00:13:29;1.014;-0.02;0.084;0.009773843921720982;-0.014660765416920185;0.006108652334660292
01:00:0A:00:00:00:00;1724285610;22/08/24;00:13:30;1.015;-0.023;0.084;0.012217304669320583;-0.012217304669320583;0.0024434609804302454
01:00:0A:00:00:00:00;1724285611;22/08/24;00:13:31;1.015;-0.021;0.085;0.012217304669320583;-0.009773843921720982;0.0012217304902151227
01:00:0A:00:00:00:00;1724285612;22/08/24;00:13:32;1.015;-0.022;0.085;0.009773843921720982;-0.012217304669320583;0.0073303827084600925
01:00:0A:00:00:00:00;1724285613;22/08/24;00:13:33;1.015;-0.022;0.083;0.012217304669320583;-0.009773843921720982;0.0036651913542300463
01:00:0A:00:00:00:00;1724285614;22/08/24;00:13:34;1.014;-0.021;0.084;0.012217304669320583;-0.009773843921720982;0.0012217304902151227
01:00:0A:00:00:00:00;1724285615;22/08/24;00:13:35;1.015;-0.021;0.085;0.009773843921720982;-0.013439035043120384;0.004886921960860491
01:00:0A:00:00:00:00;1724285616;22/08/24;00:13:36;1.014;-0.024;0.084;0.012217304669320583;-0.012217304669320583;0.0024434609804302454
01:00:0A:00:00:00:00;1724285617;22/08/24;00:13:37;1.014;-0.021;0.085;0.012217304669320583;-0.010995574295520782;0.0012217304902151227
01:00:0A:00:00:00:00;1724285618;22/08/24;00:13:38;1.016;-0.022;0.085;0.009773843921720982;-0.012217304669320583;0.0073303827084600925
01:00:0A:00:00:00:00;1724285619;22/08/24;00:13:39;1.014;-0.023;0.084;0.010995574295520782;-0.009773843921720982;0.004886921960860491
01:00:0A:00:00:00:00;1724285620;22/08/24;00:13:40;1.015;-0.02;0.085;0.012217304669320583;-0.009773843921720982;0.0024434609804302454
01:00:0A:00:00:00:00;1724285621;22/08/24;00:13:41;1.016;-0.022;0.084;0.009773843921720982;-0.013439035043120384;0.006108652334660292
01:00:0A:00:00:00:00;1724285622;22/08/24;00:13:42;1.016;-0.023;0.084;0.012217304669320583;-0.010995574295520782;0.0024434609804302454
01:00:0A:00:00:00:00;1724285623;22/08/24;00:13:43;1.014;-0.021;0.085;0.010995574295520782;-0.010995574295520782;0.0012217304902151227
01:00:0A:00:00:00:00;1724285624;22/08/24;00:13:44;1.013;-0.022;0.084;0.009773843921720982;-0.012217304669320583;0.006108652334660292
01:00:0A:00:00:00:00;1724285625;22/08/24;00:13:45;1.014;-0.023;0.083;0.010995574295520782;-0.009773843921720982;0.0024434609804302454
01:00:0A:00:00:00:00;1724285626;22/08/24;00:13:46;1.013;-0.02;0.085;0.010995574295520782;-0.010995574295520782;0.0024434609804302454
01:00:0A:00:00:00:00;1724285627;22/08/24;00:13:47;1.016;-0.021;0.084;0.009773843921720982;-0.012217304669320583;0.004886921960860491
01:00:0A:00:00:00:00;1724285628;22/08/24;00:13:48;1.016;-0.024;0.085;0.010995574295520782;-0.010995574295520782;0.0012217304902151227
01:00:0A:00:00:00:00;1724285629;22/08/24;00:13:49;1.015;-0.02;0.085;0.010995574295520782;-0.012217304669320583;0.0024434609804302454
01:00:0A:00:00:00:00;1724285630;22/08/24;00:13:50;1.013;-0.023;0.085;0.009773843921720982;-0.012217304669320583;0.006108652334660292
01:00:0A:00:00:00:00;1724285631;22/08/24;00:13:51;1.014;-0.022;0.085;0.012217304669320583;-0.009773843921720982;0.0012217304902151227
01:00:0A:00:00:00:00;1724285632;22/08/24;00:13:52;1.015;-0.02;0.085;0.010995574295520782;-0.010995574295520782;0.0024434609804302454
01:00:0A:00:00:00:00;1724285633;22/08/24;00:13:53;1.015;-0.022;0.084;0.009773843921720982;-0.012217304669320583;0.006108652334660292
01:00:0A:00:00:00:00;1724285634;22/08/24;00:13:54;1.015;-0.021;0.084;0.012217304669320583;-0.010995574295520782;0.0024434609804302454
01:00:0A:00:00:00:00;1724285635;22/08/24;00:13:55;1.015;-0.02;0.085;0.010995574295520782;-0.010995574295520782;0.0036651913542300463
01:00:0A:00:00:00:00;1724285636;22/08/24;00:13:56;1.014;-0.021;0.084;0.009773843921720982;-0.012217304669320583;0.0073303827084600925
01:00:0A:00:00:00:00;1724285637;22/08/24;00:13:57;1.013;-0.022;0.084;0.012217304669320583;-0.009773843921720982;0.0
01:00:0A:00:00:00:00;1724285638;22/08/24;00:13:58;1.014;-0.021;0.085;0.010995574295520782;-0.010995574295520782;0.0036651913542300463
01:00:0A:00:00:00:00;1724285639;22/08/24;00:13:59;1.015;-0.022;0.084;0.010995574295520782;-0.012217304669320583;0.006108652334660292
01:00:0A:00:00:00:00;1724285640;22/08/24;00:14:00;1.014;-0.021;0.083;0.013439035043120384;-0.010995574295520782;0.0024434609804302454
01:00:0A:00:00:00:00;1724285641;22/08/24;00:14:01;1.014;-0.021;0.084;0.012217304669320583;-0.012217304669320583;0.004886921960860491
01:00:0A:00:00:00:00;1724285642;22/08/24;00:14:02;1.016;-0.022;0.084;0.012217304669320583;-0.009773843921720982;0.0
01:00:0A:00:00:00:00;1724285643;22/08/24;00:14:03;1.014;-0.024;0.083;0.010995574295520782;-0.013439035043120384;0.0073303827084600925
01:00:0A:00:00:00:00;1724285644;22/08/24;00:14:04;1.006;-0.022;0.084;0.009773843921720982;-0.019547687843441963;0.013439035043120384
01:00:0A:00:00:00:00;1724285645;22/08/24;00:14:05;1.001;-0.015;0.091;0.012217304669320583;-0.010995574295520782;0.0012217304902151227
01:00:0A:00:00:00:00;1724285646;22/08/24;00:14:06;1.014;-0.02;0.093;0.012217304669320583;-0.0012217304902151227;-0.014660765416920185
01:00:0A:00:00:00:00;1724285647;22/08/24;00:14:07;1.028;-0.03;0.094;0.009773843921720982;0.0012217304902151227;-0.010995574295520782
01:00:0A:00:00:00:00;1724285648;22/08/24;00:14:08;1.042;-0.021;0.086;0.0024434609804302454;-0.0012217304902151227;-0.0012217304902151227
01:00:0A:00:00:00:00;1724285649;22/08/24;00:14:09;1.033;-0.025;0.085;-0.0073303827084600925;-0.02076941914856434;0.0073303827084600925
01:00:0A:00:00:00:00;1724285650;22/08/24;00:14:10;0.995;-0.033;0.092;-0.010995574295520782;-0.030543262138962746;0.02076941914856434
01:00:0A:00:00:00:00;1724285651;22/08/24;00:14:11;0.978;-0.022;0.097;-0.010995574295520782;-0.02932153083384037;0.014660765416920185
01:00:0A:00:00:00:00;1724285652;22/08/24;00:14:12;0.984;-0.013;0.102;-0.012217304669320583;0.00855211354792118;0.015882495790719986
01:00:0A:00:00:00:00;1724285653;22/08/24;00:14:13;1.021;-0.02;0.09;-0.00855211354792118;0.009773843921720982;-0.02076941914856434
01:00:0A:00:00:00:00;1724285654;22/08/24;00:14:14;1.039;-0.007;0.073;-0.015882495790719986;-0.0036651913542300463;-0.0036651913542300463
01:00:0A:00:00:00:00;1724285655;22/08/24;00:14:15;1.051;-0.029;0.085;-0.015882495790719986;-0.045204028487205505;-0.0073303827084600925
01:00:0A:00:00:00:00;1724285656;22/08/24;00:14:16;1.047;-0.018;0.094;-0.013439035043120384;-0.05009094998240471;-0.021991148591041565
01:00:0A:00:00:00:00;1724285657;22/08/24;00:14:17;1.011;-0.038;0.117;-0.014660765416920185;0.02076941914856434;0.025656338781118393
01:00:0A:00:00:00:00;1724285658;22/08/24;00:14:18;0.981;-0.027;0.094;-0.0073303827084600925;0.02076941914856434;0.0
01:00:0A:00:00:00:00;1724285659;22/08/24;00:14:19;0.954;-0.011;0.069;-0.010995574295520782;0.013439035043120384;0.0354301817715168
01:00:0A:00:00:00:00;1724285660;22/08/24;00:14:20;0.97;-0.014;0.072;0.004886921960860491;-0.018325956538319588;-0.03420845419168472
01:00:0A:00:00:00:00;1724285661;22/08/24;00:14:21;1.037;0.023;0.096;-0.02321287989616394;-0.06963863223791122;0.019547687843441963
01:00:0A:00:00:00:00;1724285662;22/08/24;00:14:22;1.095;-0.029;0.075;-0.015882495790719986;0.04398229718208313;0.018325956538319588
01:00:0A:00:00:00:00;1724285663;22/08/24;00:14:23;1.084;-0.001;0.189;-0.06230825558304787;0.1368338167667389;0.042760565876960754
01:00:0A:00:00:00:00;1724285664;22/08/24;00:14:24;1.014;0.005;-0.046;-0.09529497474431992;-0.2076941877603531;-0.0036651913542300463
01:00:0A:00:00:00:00;1724285665;22/08/24;00:14:25;0.922;0.014;0.21;-0.10506881773471832;0.3897320330142975;-0.05864306166768074
01:00:0A:00:00:00:00;1724285666;22/08/24;00:14:26;0.933;-0.028;-0.04;-0.20402899384498596;-0.7965682148933411;-0.08429940044879913
01:00:0A:00:00:00:00;1724285667;22/08/24;00:14:27;0.962;-0.037;0.071;0.06475171446800232;1.0128145217895508;0.24434609711170197
01:00:0A:00:00:00:00;1724285668;22/08/24;00:14:28;0.946;0.06;0.331;-0.15515977144241333;-0.7305948734283447;-0.4153883755207062
01:00:0A:00:00:00:00;1724285669;22/08/24;00:14:29;0.993;0.124;-0.221;-0.21624629199504852;-0.014660765416920185;0.1820378452539444
01:00:0A:00:00:00:00;1724285670;22/08/24;00:14:30;1.031;-0.179;0.124;-0.08674286305904388;0.3738495111465454;0.1319468915462494
01:00:0A:00:00:00:00;1724285671;22/08/24;00:14:31;0.987;0.085;0.096;-0.16493360698223114;-0.2871066629886627;-0.18081611394882202
01:00:0A:00:00:00:00;1724285672;22/08/24;00:14:32;0.955;-0.086;-0.004;-0.20647244155406952;-0.04886921867728233;0.4251621961593628
01:00:0A:00:00:00:00;1724285673;22/08/24;00:14:33;0.982;-0.056;0.095;0.10018189996480942;0.251676470041275;-0.48747044801712036
01:00:0A:00:00:00:00;1724285674;22/08/24;00:14:34;0.98;0.22;0.159;-0.2724458873271942;-0.48747044801712036;0.34208452701568604
01:00:0A:00:00:00:00;1724285675;22/08/24;00:14:35;1.039;-0.062;-0.258;0.0012217304902151227;0.3347541391849518;-0.29565879702568054
01:00:0A:00:00:00:00;1724285676;22/08/24;00:14:36;0.965;0.249;0.446;-0.17348572611808777;-0.03298672288656235;-0.09896016865968704
01:00:0A:00:00:00:00;1724285677;22/08/24;00:14:37;1.029;0.06;-0.153;-0.41783180832862854;-0.4813618063926697;0.22113320231437683
01:00:0A:00:00:00:00;1724285678;22/08/24;00:14:38;0.954;-0.154;0.203;-0.22479839622974396;0.588874101638794;0.2834414541721344
01:00:0A:00:00:00:00;1724285679;22/08/24;00:14:39;0.935;0.114;-0.094;-0.09773843735456467;-0.7269296050071716;-0.720820963382721
01:00:0A:00:00:00:00;1724285680;22/08/24;00:14:40;0.964;0.014;-0.125;-0.07819075137376785;0.49357908964157104;0.6841690540313721
01:00:0A:00:00:00:00;1724285681;22/08/24;00:14:41;0.973;-0.194;0.2;0.2174680233001709;-0.23945917189121246;-0.5766568183898926
01:00:0A:00:00:00:00;1724285682;22/08/24;00:14:42;1.016;0.236;-0.069;0.1062905490398407;-0.0659734457731247;0.3090977966785431
01:00:0A:00:00:00:00;1724285683;22/08/24;00:14:43;1.013;-0.355;0.203;0.2626720666885376;-0.030543262138962746;0.24556782841682434
01:00:0A:00:00:00:00;1724285684;22/08/24;00:14:44;0.911;0.156;-0.465;0.6340781450271606;-0.5803219676017761;-1.0299187898635864
01:00:0A:00:00:00:00;1724285685;22/08/24;00:14:45;0.87;0.539;0.017;0.40194931626319885;1.3292428255081177;0.0024434609804302454
01:00:0A:00:00:00:00;1724285686;22/08/24;00:14:46;0.957;-0.287;0.232;0.27611109614372253;-0.6157521605491638;0.5962044596672058
01:00:0A:00:00:00:00;1724285687;22/08/24;00:14:47;1.027;-0.024;0.114;0.6365215182304382;-0.10262535512447357;-0.1062905490398407
01:00:0A:00:00:00:00;1724285688;22/08/24;00:14:48;1.057;-0.163;-0.041;0.8234463334083557;-0.15515977144241333;-0.23335053026676178
01:00:0A:00:00:00:00;1724285689;22/08/24;00:14:49;1.031;0.211;0.043;0.8735373020172119;0.27122414112091064;-0.1466076523065567
01:00:0A:00:00:00:00;1724285690;22/08/24;00:14:50;1.002;-0.242;0.147;0.8332201242446899;0.161268413066864;0.49724429845809937
01:00:0A:00:00:00:00;1724285691;22/08/24;00:14:51;0.984;0.053;0.022;0.8820894360542297;-0.2993239760398865;-0.24556782841682434
01:00:0A:00:00:00:00;1724285692;22/08/24;00:14:52;0.965;-0.027;0.183;0.7464773058891296;0.5180137157440186;0.2015855312347412
01:00:0A:00:00:00:00;1724285693;22/08/24;00:14:53;0.973;0.088;0.199;0.43860122561454773;-0.5106833577156067;0.03420845419168472
01:00:0A:00:00:00:00;1724285694;22/08/24;00:14:54;1.01;-0.09;-0.045;0.40683624148368835;0.3066543638706207;0.27488934993743896
01:00:0A:00:00:00:00;1724285695;22/08/24;00:14:55;0.983;0.006;0.335;0.42271876335144043;-0.1319468915462494;-0.2321287840604782
01:00:0A:00:00:00:00;1724285696;22/08/24;00:14:56;1.031;-0.047;-0.041;0.2638937830924988;-0.13439035415649414;0.22846359014511108
01:00:0A:00:00:00:00;1724285697;22/08/24;00:14:57;1.01;-0.081;0.253;0.3237585723400116;0.12828169763088226;0.0073303827084600925
01:00:0A:00:00:00:00;1724285698;22/08/24;00:14:58;1.035;0.004;0.079;0.26145032048225403;-0.4141666293144226;-0.12950342893600464
01:00:0A:00:00:00:00;1724285699;22/08/24;00:14:59;0.998;0.064;-0.188;0.37262779474258423;0.015882495790719986;-0.21135938167572021
01:00:0A:00:00:00:00;1724285700;22/08/24;00:15:00;0.991;0.081;0.133;0.34697145223617554;0.40072759985923767;0.11484266817569733
01:00:0A:00:00:00:00;1724285701;22/08/24;00:15:01;0.988;-0.052;0.075;0.22602014243602753;-0.27611109614372253;0.11484266817569733
01:00:0A:00:00:00:00;1724285702;22/08/24;00:15:02;1.004;0.002;0.04;0.33964109420776367;0.19914205372333527;-0.15515977144241333
01:00:0A:00:00:00:00;1724285703;22/08/24;00:15:03;1.007;0.111;0.125;0.16004669666290283;-0.08918632566928864;0.2541199326515198
01:00:0A:00:00:00:00;1724285704;22/08/24;00:15:04;1.04;-0.144;0.088;0.1966986060142517;0.09285151958465576;0.10018189996480942
01:00:0A:00:00:00:00;1724285705;22/08/24;00:15:05;1.006;-0.083;0.31;0.15515977144241333;-0.1661553531885147;0.13805554807186127
01:00:0A:00:00:00:00;1724285706;22/08/24;00:15:06;0.993;-0.074;-0.202;0.2883284091949463;-0.4447098970413208;-0.10384709388017654
01:00:0A:00:00:00:00;1724285707;22/08/24;00:15:07;0.998;-0.009;0.072;0.5656611919403076;0.4202752709388733;-0.20402899384498596
01:00:0A:00:00:00:00;1724285708;22/08/24;00:15:08;0.969;0.043;-0.002;0.46792274713516235;-0.2528982162475586;-0.045204028487205505
01:00:0A:00:00:00:00;1724285709;22/08/24;00:15:09;1.0;0.085;0.056;0.4789183437824249;0.5803219676017761;0.030543262138962746
01:00:0A:00:00:00:00;1724285710;22/08/24;00:15:10;0.952;0.162;0.408;0.09529497474431992;-0.21380282938480377;0.3494149148464203
01:00:0A:00:00:00:00;1724285711;22/08/24;00:15:11;1.051;-0.316;0.014;0.21502456068992615;-0.41783180832862854;0.019547687843441963
01:00:0A:00:00:00:00;1724285712;22/08/24;00:15:12;1.057;-0.001;0.225;0.48869219422340393;0.11972958594560623;-0.13561207056045532
01:00:0A:00:00:00:00;1724285713;22/08/24;00:15:13;0.929;0.231;-0.351;0.46547931432724;-0.21502456068992615;-0.4703662395477295
01:00:0A:00:00:00:00;1724285714;22/08/24;00:15:14;0.941;0.175;0.331;0.17837265133857727;0.8710938096046448;0.44348815083503723
