Source;Epoch timestamp (UTC);Date;Time (UTC);Accel X (G);Accel Y (G);Accel Z (G);Gyro X (rad/s);Gyro Y (rad/s);Gyro Z (rad/s)
01:00:0A:00:00:00:00;1725062408;31/08/24;00:00:08;1.015;-0.032;0.065;-0.012217304669320583;-0.010995574295520782;0.0024434609804302454
01:00:0A:00:00:00:00;1725062409;31/08/24;00:00:09;1.015;-0.033;0.064;-0.012217304669320583;-0.010995574295520782;0.0024434609804302454
01:00:0A:00:00:00:00;1725062410;31/08/24;00:00:10;1.015;-0.032;0.065;-0.012217304669320583;-0.010995574295520782;0.0024434609804302454
01:00:0A:00:00:00:00;1725062411;31/08/24;00:00:11;1.016;-0.033;0.065;-0.012217304669320583;-0.010995574295520782;0.0012217304902151227
01:00:0A:00:00:00:00;1725062412;31/08/24;00:00:12;1.015;-0.032;0.064;-0.012217304669320583;-0.010995574295520782;0.0024434609804302454
01:00:0A:00:00:00:00;1725062413;31/08/24;00:00:13;1.015;-0.032;0.064;-0.012217304669320583;-0.010995574295520782;0.0024434609804302454
01:00:0A:00:00:00:00;1725062414;31/08/24;00:00:14;1.015;-0.032;0.064;-0.010995574295520782;-0.010995574295520782;0.0024434609804302454
01:00:0A:00:00:00:00;1725062415;31/08/24;00:00:15;1.016;-0.032;0.064;-0.010995574295520782;-0.010995574295520782;0.0024434609804302454
01:00:0A:00:00:00:00;1725062416;31/08/24;00:00:16;1.016;-0.033;0.064;-0.010995574295520782;-0.010995574295520782;0.0024434609804302454
01:00:0A:00:00:00:00;1725062417;31/08/24;00:00:17;1.014;-0.033;0.065;-0.010995574295520782;-0.010995574295520782;0.0024434609804302454
01:00:0A:00:00:00:00;1725062418;31/08/24;00:00:18;1.016;-0.031;0.064;-0.010995574295520782;-0.010995574295520782;0.0024434609804302454
01:00:0A:00:00:00:00;1725062419;31/08/24;00:00:19;1.016;-0.034;0.064;-0.010995574295520782;-0.010995574295520782;0.0024434609804302454
01:00:0A:00:00:00:00;1725062420;31/08/24;00:00:20;1.016;-0.033;0.064;-0.010995574295520782;-0.010995574295520782;0.0024434609804302454
01:00:0A:00:00:00:00;1725062421;31/08/24;00:00:21;1.016;-0.032;0.065;-0.009773843921720982;-0.010995574295520782;0.0024434609804302454
01:00:0A:00:00:00:00;1725062422;31/08/24;00:00:22;1.015;-0.032;0.064;-0.009773843921720982;-0.010995574295520782;0.0024434609804302454
01:00:0A:00:00:00:00;1725062423;31/08/24;00:00:23;1.015;-0.032;0.065;-0.009773843921720982;-0.010995574295520782;0.0024434609804302454
01:00:0A:00:00:00:00;1725062424;31/08/24;00:00:24;1.014;-0.032;0.066;-0.009773843921720982;-0.010995574295520782;0.0024434609804302454
01:00:0A:00:00:00:00;1725062425;31/08/24;00:00:25;1.016;-0.033;0.065;-0.009773843921720982;-0.010995574295520782;0.0024434609804302454
01:00:0A:00:00:00:00;1725062426;31/08/24;00:00:26;1.016;-0.032;0.064;-0.00855211354792118;-0.010995574295520782;0.0024434609804302454
01:00:0A:00:00:00:00;1725062427;31/08/24;00:00:27;1.014;-0.032;0.064;-0.00855211354792118;-0.010995574295520782;0.0024434609804302454
01:00:0A:00:00:00:00;1725062428;31/08/24;00:00:28;1.016;-0.032;0.065;-0.00855211354792118;-0.010995574295520782;0.0024434609804302454
01:00:0A:00:00:00:00;1725062429;31/08/24;00:00:29;1.016;-0.032;0.064;-0.00855211354792118;-0.010995574295520782;0.0024434609804302454
01:00:0A:00:00:00:00;1725062430;31/08/24;00:00:30;1.015;-0.032;0.065;-0.00855211354792118;-0.010995574295520782;0.0024434609804302454
01:00:0A:00:00:00:00;1725062431;31/08/24;00:00:31;1.015;-0.033;0.065;-0.00855211354792118;-0.010995574295520782;0.0024434609804302454
01:00:0A:00:00:00:00;1725062432;31/08/24;00:00:32;1.016;-0.034;0.064;-0.00855211354792118;-0.010995574295520782;0.0024434609804302454
01:00:0A:00:00:00:00;1725062433;31/08/24;00:00:33;1.015;-0.033;0.064;-0.00855211354792118;-0.010995574295520782;0.0024434609804302454
01:00:0A:00:00:00:00;1725062434;31/08/24;00:00:34;1.016;-0.033;0.064;-0.00855211354792118;-0.010995574295520782;0.0024434609804302454
01:00:0A:00:00:00:00;1725062435;31/08/24;00:00:35;1.016;-0.033;0.065;-0.00855211354792118;-0.010995574295520782;0.0024434609804302454
01:00:0A:00:00:00:00;1725062436;31/08/24;00:00:36;1.015;-0.032;0.064;-0.0073303827084600925;-0.010995574295520782;0.0024434609804302454
01:00:0A:00:00:00:00;1725062437;31/08/24;00:00:37;1.015;-0.032;0.065;-0.00855211354792118;-0.010995574295520782;0.0024434609804302454
01:00:0A:00:00:00:00;1725062438;31/08/24;00:00:38;1.015;-0.031;0.065;-0.0073303827084600925;-0.010995574295520782;0.0024434609804302454
01:00:0A:00:00:00:00;1725062439;31/08/24;00:00:39;1.015;-0.032;0.065;-0.0073303827084600925;-0.010995574295520782;0.0024434609804302454
01:00:0A:00:00:00:00;1725062440;31/08/24;00:00:40;1.015;-0.032;0.064;-0.0073303827084600925;-0.010995574295520782;0.0024434609804302454
01:00:0A:00:00:00:00;1725062441;31/08/24;00:00:41;1.015;-0.032;0.064;-0.0073303827084600925;-0.010995574295520782;0.0024434609804302454
01:00:0A:00:00:00:00;1725062442;31/08/24;00:00:42;1.016;-0.032;0.065;-0.0073303827084600925;-0.010995574295520782;0.0024434609804302454
01:00:0A:00:00:00:00;1725062443;31/08/24;00:00:43;1.015;-0.032;0.065;-0.0073303827084600925;-0.010995574295520782;0.0024434609804302454
01:00:0A:00:00:00:00;1725062444;31/08/24;00:00:44;1.016;-0.032;0.064;-0.0073303827084600925;-0.010995574295520782;0.0024434609804302454
01:00:0A:00:00:00:00;1725062445;31/08/24;00:00:45;1.015;-0.033;0.064;-0.0073303827084600925;-0.010995574295520782;0.0024434609804302454
01:00:0A:00:00:00:00;1725062446;31/08/24;00:00:46;1.016;-0.032;0.064;-0.0073303827084600925;-0.010995574295520782;0.0024434609804302454
01:00:0A:00:00:00:00;1725062447;31/08/24;00:00:47;1.014;-0.032;0.064;-0.0073303827084600925;-0.010995574295520782;0.0024434609804302454
01:00:0A:00:00:00:00;1725062448;31/08/24;00:00:48;1.015;-0.034;0.064;-0.0073303827084600925;-0.010995574295520782;0.0024434609804302454
01:00:0A:00:00:00:00;1725062449;31/08/24;00:00:49;1.016;-0.031;0.065;-0.0073303827084600925;-0.010995574295520782;0.0024434609804302454
01:00:0A:00:00:00:00;1725062450;31/08/24;00:00:50;1.015;-0.032;0.065;-0.0073303827084600925;-0.010995574295520782;0.0024434609804302454
01:00:0A:00:00:00:00;1725062451;31/08/24;00:00:51;1.016;-0.032;0.065;-0.0073303827084600925;-0.010995574295520782;0.0024434609804302454
01:00:0A:00:00:00:00;1725062452;31/08/24;00:00:52;1.015;-0.031;0.065;-0.0073303827084600925;-0.010995574295520782;0.0024434609804302454
01:00:0A:00:00:00:00;1725062453;31/08/24;00:00:53;1.015;-0.032;0.065;-0.0073303827084600925;-0.010995574295520782;0.0024434609804302454
01:00:0A:00:00:00:00;1725062454;31/08/24;00:00:54;1.016;-0.032;0.063;-0.0073303827084600925;-0.010995574295520782;0.0024434609804302454
01:00:0A:00:00:00:00;1725062455;31/08/24;00:00:55;1.015;-0.032;0.065;-0.0073303827084600925;-0.010995574295520782;0.0024434609804302454
01:00:0A:00:00:00:00;1725062456;31/08/24;00:00:56;1.016;-0.033;0.064;-0.0073303827084600925;-0.010995574295520782;0.0024434609804302454
01:00:0A:00:00:00:00;1725062457;31/08/24;00:00:57;1.016;-0.032;0.065;-0.006108652334660292;-0.010995574295520782;0.0024434609804302454
01:00:0A:00:00:00:00;1725062458;31/08/24;00:00:58;1.015;-0.032;0.064;-0.0073303827084600925;-0.010995574295520782;0.0024434609804302454
01:00:0A:00:00:00:00;1725062459;31/08/24;00:00:59;1.015;-0.032;0.065;-0.0073303827084600925;-0.010995574295520782;0.0024434609804302454
01:00:0A:00:00:00:00;1725062460;31/08/24;00:01:00;1.015;-0.033;0.065;-0.0073303827084600925;-0.010995574295520782;0.0024434609804302454
01:00:0A:00:00:00:00;1725062461;31/08/24;00:01:01;1.016;-0.032;0.065;-0.0073303827084600925;-0.010995574295520782;0.0024434609804302454
01:00:0A:00:00:00:00;1725062462;31/08/24;00:01:02;1.016;-0.032;0.066;-0.0073303827084600925;-0.010995574295520782;0.0024434609804302454
01:00:0A:00:00:00:00;1725062463;31/08/24;00:01:03;1.015;-0.033;0.065;-0.0073303827084600925;-0.010995574295520782;0.0024434609804302454
01:00:0A:00:00:00:00;1725062464;31/08/24;00:01:04;1.016;-0.032;0.065;-0.0073303827084600925;-0.010995574295520782;0.0024434609804302454
01:00:0A:00:00:00:00;1725062465;31/08/24;00:01:05;1.015;-0.031;0.065;-0.0073303827084600925;-0.010995574295520782;0.0024434609804302454
01:00:0A:00:00:00:00;1725062466;31/08/24;00:01:06;1.016;-0.033;0.064;-0.0073303827084600925;-0.010995574295520782;0.0024434609804302454
01:00:0A:00:00:00:00;1725062467;31/08/24;00:01:07;1.016;-0.032;0.064;-0.0073303827084600925;-0.010995574295520782;0.0024434609804302454
01:00:0A:00:00:00:00;1725062468;31/08/24;00:01:08;1.015;-0.033;0.064;-0.0073303827084600925;-0.010995574295520782;0.0024434609804302454
01:00:0A:00:00:00:00;1725062469;31/08/24;00:01:09;1.016;-0.033;0.064;-0.0073303827084600925;-0.010995574295520782;0.0024434609804302454
01:00:0A:00:00:00:00;1725062470;31/08/24;00:01:10;1.015;-0.033;0.064;-0.0073303827084600925;-0.010995574295520782;0.0024434609804302454
01:00:0A:00:00:00:00;1725062471;31/08/24;00:01:11;1.016;-0.032;0.065;-0.0073303827084600925;-0.010995574295520782;0.0024434609804302454
01:00:0A:00:00:00:00;1725062472;31/08/24;00:01:12;1.015;-0.032;0.065;-0.0073303827084600925;-0.010995574295520782;0.0024434609804302454
01:00:0A:00:00:00:00;1725062473;31/08/24;00:01:13;1.016;-0.032;0.064;-0.0073303827084600925;-0.010995574295520782;0.0024434609804302454
01:00:0A:00:00:00:00;1725062474;31/08/24;00:01:14;1.015;-0.032;0.065;-0.0073303827084600925;-0.010995574295520782;0.0024434609804302454
01:00:0A:00:00:00:00;1725062475;31/08/24;00:01:15;1.016;-0.031;0.065;-0.0073303827084600925;-0.010995574295520782;0.0024434609804302454
01:00:0A:00:00:00:00;1725062476;31/08/24;00:01:16;1.016;-0.032;0.065;-0.0073303827084600925;-0.010995574295520782;0.0024434609804302454
01:00:0A:00:00:00:00;1725062477;31/08/24;00:01:17;1.015;-0.032;0.065;-0.0073303827084600925;-0.010995574295520782;0.0024434609804302454
01:00:0A:00:00:00:00;1725062478;31/08/24;00:01:18;1.015;-0.033;0.064;-0.0073303827084600925;-0.010995574295520782;0.0024434609804302454
01:00:0A:00:00:00:00;1725062479;31/08/24;00:01:19;1.016;-0.032;0.064;-0.0073303827084600925;-0.010995574295520782;0.0024434609804302454
01:00:0A:00:00:00:00;1725062480;31/08/24;00:01:20;1.016;-0.032;0.065;-0.0073303827084600925;-0.010995574295520782;0.0024434609804302454
01:00:0A:00:00:00:00;1725062481;31/08/24;00:01:21;1.015;-0.032;0.065;-0.0073303827084600925;-0.010995574295520782;0.0024434609804302454
01:00:0A:00:00:00:00;1725062482;31/08/24;00:01:22;1.015;-0.032;0.064;-0.0073303827084600925;-0.010995574295520782;0.0024434609804302454
01:00:0A:00:00:00:00;1725062483;31/08/24;00:01:23;1.015;-0.032;0.065;-0.0073303827084600925;-0.010995574295520782;0.0024434609804302454
01:00:0A:00:00:00:00;1725062484;31/08/24;00:01:24;1.016;-0.031;0.066;-0.00855211354792118;-0.010995574295520782;0.0024434609804302454
01:00:0A:00:00:00:00;1725062485;31/08/24;00:01:25;1.016;-0.032;0.065;-0.00855211354792118;-0.010995574295520782;0.0024434609804302454
01:00:0A:00:00:00:00;1725062486;31/08/24;00:01:26;1.015;-0.033;0.064;-0.00855211354792118;-0.010995574295520782;0.0024434609804302454
01:00:0A:00:00:00:00;1725062487;31/08/24;00:01:27;1.015;-0.032;0.065;-0.00855211354792118;-0.010995574295520782;0.0024434609804302454
01:00:0A:00:00:00:00;1725062488;31/08/24;00:01:28;1.016;-0.031;0.064;-0.00855211354792118;-0.010995574295520782;0.0024434609804302454
01:00:0A:00:00:00:00;1725062489;31/08/24;00:01:29;1.016;-0.033;0.064;-0.00855211354792118;-0.010995574295520782;0.0024434609804302454
01:00:0A:00:00:00:00;1725062490;31/08/24;00:01:30;1.016;-0.032;0.065;-0.00855211354792118;-0.010995574295520782;0.0024434609804302454
01:00:0A:00:00:00:00;1725062491;31/08/24;00:01:31;1.015;-0.032;0.064;-0.00855211354792118;-0.010995574295520782;0.0024434609804302454
01:00:0A:00:00:00:00;1725062492;31/08/24;00:01:32;1.015;-0.033;0.064;-0.00855211354792118;-0.010995574295520782;0.0024434609804302454
01:00:0A:00:00:00:00;1725062493;31/08/24;00:01:33;1.016;-0.032;0.064;-0.009773843921720982;-0.010995574295520782;0.0024434609804302454
01:00:0A:00:00:00:00;1725062494;31/08/24;00:01:34;1.015;-0.032;0.064;-0.009773843921720982;-0.010995574295520782;0.0024434609804302454
01:00:0A:00:00:00:00;1725062495;31/08/24;00:01:35;1.015;-0.031;0.065;-0.009773843921720982;-0.010995574295520782;0.0024434609804302454
01:00:0A:00:00:00:00;1725062496;31/08/24;00:01:36;1.016;-0.032;0.065;-0.009773843921720982;-0.010995574295520782;0.0024434609804302454
01:00:0A:00:00:00:00;1725062497;31/08/24;00:01:37;1.016;-0.032;0.065;-0.009773843921720982;-0.010995574295520782;0.0024434609804302454
01:00:0A:00:00:00:00;1725062498;31/08/24;00:01:38;1.015;-0.032;0.065;-0.009773843921720982;-0.010995574295520782;0.0024434609804302454
01:00:0A:00:00:00:00;1725062499;31/08/24;00:01:39;1.015;-0.031;0.065;-0.009773843921720982;-0.010995574295520782;0.0024434609804302454
01:00:0A:00:00:00:00;1725062500;31/08/24;00:01:40;1.016;-0.031;0.064;-0.009773843921720982;-0.010995574295520782;0.0024434609804302454
01:00:0A:00:00:00:00;1725062501;31/08/24;00:01:41;1.016;-0.032;0.064;-0.009773843921720982;-0.010995574295520782;0.0024434609804302454
01:00:0A:00:00:00:00;1725062502;31/08/24;00:01:42;1.016;-0.032;0.065;-0.009773843921720982;-0.010995574295520782;0.0024434609804302454
01:00:0A:00:00:00:00;1725062503;31/08/24;00:01:43;1.016;-0.033;0.065;-0.009773843921720982;-0.010995574295520782;0.0024434609804302454
01:00:0A:00:00:00:00;1725062504;31/08/24;00:01:44;1.015;-0.033;0.065;-0.010995574295520782;-0.010995574295520782;0.0024434609804302454
01:00:0A:00:00:00:00;1725062505;31/08/24;00:01:45;1.016;-0.032;0.065;-0.009773843921720982;-0.010995574295520782;0.0024434609804302454
01:00:0A:00:00:00:00;1725062506;31/08/24;00:01:46;1.015;-0.033;0.065;-0.009773843921720982;-0.010995574295520782;0.0024434609804302454
01:00:0A:00:00:00:00;1725062507;31/08/24;00:01:47;1.015;-0.032;0.065;-0.009773843921720982;-0.010995574295520782;0.0024434609804302454
01:00:0A:00:00:00:00;1725062508;31/08/24;00:01:48;1.016;-0.031;0.064;-0.009773843921720982;-0.010995574295520782;0.0024434609804302454
01:00:0A:00:00:00:00;1725062509;31/08/24;00:01:49;1.016;-0.031;0.065;-0.009773843921720982;-0.010995574295520782;0.0024434609804302454
01:00:0A:00:00:00:00;1725062510;31/08/24;00:01:50;1.016;-0.032;0.064;-0.009773843921720982;-0.010995574295520782;0.0024434609804302454
01:00:0A:00:00:00:00;1725062511;31/08/24;00:01:51;1.014;-0.032;0.064;-0.009773843921720982;-0.010995574295520782;0.0024434609804302454
01:00:0A:00:00:00:00;1725062512;31/08/24;00:01:52;1.016;-0.033;0.065;-0.009773843921720982;-0.010995574295520782;0.0024434609804302454
01:00:0A:00:00:00:00;1725062513;31/08/24;00:01:53;1.016;-0.032;0.066;-0.009773843921720982;-0.010995574295520782;0.0024434609804302454
01:00:0A:00:00:00:00;1725062514;31/08/24;00:01:54;1.016;-0.032;0.066;-0.009773843921720982;-0.010995574295520782;0.0024434609804302454
01:00:0A:00:00:00:00;1725062515;31/08/24;00:01:55;1.016;-0.032;0.065;-0.009773843921720982;-0.010995574295520782;0.0024434609804302454
01:00:0A:00:00:00:00;1725062516;31/08/24;00:01:56;1.016;-0.033;0.067;-0.009773843921720982;-0.010995574295520782;0.0024434609804302454
01:00:0A:00:00:00:00;1725062517;31/08/24;00:01:57;1.015;-0.032;0.064;-0.009773843921720982;-0.010995574295520782;0.0024434609804302454
01:00:0A:00:00:00:00;1725062518;31/08/24;00:01:58;1.016;-0.032;0.065;-0.00855211354792118;-0.010995574295520782;0.0024434609804302454
01:00:0A:00:00:00:00;1725062519;31/08/24;00:01:59;1.015;-0.032;0.064;-0.009773843921720982;-0.010995574295520782;0.0024434609804302454
01:00:0A:00:00:00:00;1725062520;31/08/24;00:02:00;1.016;-0.032;0.066;-0.00855211354792118;-0.010995574295520782;0.0024434609804302454
01:00:0A:00:00:00:00;1725062521;31/08/24;00:02:01;1.016;-0.032;0.066;-0.00855211354792118;-0.010995574295520782;0.0024434609804302454
01:00:0A:00:00:00:00;1725062522;31/08/24;00:02:02;1.016;-0.032;0.066;-0.00855211354792118;-0.010995574295520782;0.0036651913542300463
01:00:0A:00:00:00:00;1725062523;31/08/24;00:02:03;1.016;-0.032;0.065;-0.00855211354792118;-0.010995574295520782;0.0024434609804302454
01:00:0A:00:00:00:00;1725062524;31/08/24;00:02:04;1.015;-0.032;0.065;-0.00855211354792118;-0.010995574295520782;0.0024434609804302454
01:00:0A:00:00:00:00;1725062525;31/08/24;00:02:05;1.016;-0.031;0.064;-0.0073303827084600925;-0.010995574295520782;0.0024434609804302454
01:00:0A:00:00:00:00;1725062526;31/08/24;00:02:06;1.015;-0.032;0.065;-0.00855211354792118;-0.010995574295520782;0.0024434609804302454
01:00:0A:00:00:00:00;1725062527;31/08/24;00:02:07;1.016;-0.033;0.065;-0.00855211354792118;-0.010995574295520782;0.0024434609804302454
01:00:0A:00:00:00:00;1725062528;31/08/24;00:02:08;1.015;-0.032;0.064;-0.0073303827084600925;-0.010995574295520782;0.0024434609804302454
01:00:0A:00:00:00:00;1725062529;31/08/24;00:02:09;1.015;-0.032;0.064;-0.0073303827084600925;-0.010995574295520782;0.0024434609804302454
01:00:0A:00:00:00:00;1725062530;31/08/24;00:02:10;1.015;-0.032;0.065;-0.0073303827084600925;-0.010995574295520782;0.0024434609804302454
01:00:0A:00:00:00:00;1725062531;31/08/24;00:02:11;1.014;-0.031;0.064;-0.0073303827084600925;-0.010995574295520782;0.0024434609804302454
01:00:0A:00:00:00:00;1725062532;31/08/24;00:02:12;1.016;-0.032;0.066;-0.0073303827084600925;-0.010995574295520782;0.0024434609804302454
01:00:0A:00:00:00:00;1725062533;31/08/24;00:02:13;1.016;-0.033;0.064;-0.0073303827084600925;-0.010995574295520782;0.0024434609804302454
01:00:0A:00:00:00:00;1725062534;31/08/24;00:02:14;1.015;-0.032;0.064;-0.0073303827084600925;-0.010995574295520782;0.0024434609804302454
01:00:0A:00:00:00:00;1725062535;31/08/24;00:02:15;1.016;-0.033;0.065;-0.0073303827084600925;-0.010995574295520782;0.0024434609804302454
01:00:0A:00:00:00:00;1725062536;31/08/24;00:02:16;1.015;-0.032;0.064;-0.006108652334660292;-0.010995574295520782;0.0024434609804302454
01:00:0A:00:00:00:00;1725062537;31/08/24;00:02:17;1.015;-0.033;0.065;-0.006108652334660292;-0.010995574295520782;0.0024434609804302454
01:00:0A:00:00:00:00;1725062538;31/08/24;00:02:18;1.015;-0.032;0.065;-0.006108652334660292;-0.010995574295520782;0.0024434609804302454
01:00:0A:00:00:00:00;1725062539;31/08/24;00:02:19;1.016;-0.032;0.066;-0.006108652334660292;-0.010995574295520782;0.0024434609804302454
01:00:0A:00:00:00:00;1725062540;31/08/24;00:02:20;1.015;-0.032;0.065;-0.006108652334660292;-0.010995574295520782;0.0024434609804302454
01:00:0A:00:00:00:00;1725062541;31/08/24;00:02:21;1.015;-0.033;0.064;-0.006108652334660292;-0.010995574295520782;0.0024434609804302454
01:00:0A:00:00:00:00;1725062542;31/08/24;00:02:22;1.015;-0.031;0.065;-0.006108652334660292;-0.010995574295520782;0.0024434609804302454
01:00:0A:00:00:00:00;1725062543;31/08/24;00:02:23;1.015;-0.033;0.064;-0.006108652334660292;-0.010995574295520782;0.0024434609804302454
01:00:0A:00:00:00:00;1725062544;31/08/24;00:02:24;1.016;-0.032;0.065;-0.006108652334660292;-0.010995574295520782;0.0024434609804302454
01:00:0A:00:00:00:00;1725062545;31/08/24;00:02:25;1.016;-0.031;0.065;-0.006108652334660292;-0.010995574295520782;0.0024434609804302454
01:00:0A:00:00:00:00;1725062546;31/08/24;00:02:26;1.016;-0.033;0.064;-0.006108652334660292;-0.010995574295520782;0.0024434609804302454
01:00:0A:00:00:00:00;1725062547;31/08/24;00:02:27;1.015;-0.032;0.065;-0.004886921960860491;-0.010995574295520782;0.0024434609804302454
01:00:0A:00:00:00:00;1725062548;31/08/24;00:02:28;1.015;-0.033;0.064;-0.004886921960860491;-0.010995574295520782;0.0024434609804302454
01:00:0A:00:00:00:00;1725062549;31/08/24;00:02:29;1.016;-0.033;0.064;-0.004886921960860491;-0.010995574295520782;0.0024434609804302454
01:00:0A:00:00:00:00;1725062550;31/08/24;00:02:30;1.014;-0.033;0.066;-0.004886921960860491;-0.010995574295520782;0.0024434609804302454
01:00:0A:00:00:00:00;1725062551;31/08/24;00:02:31;1.015;-0.032;0.065;-0.004886921960860491;-0.010995574295520782;0.0024434609804302454
01:00:0A:00:00:00:00;1725062552;31/08/24;00:02:32;1.015;-0.032;0.065;-0.004886921960860491;-0.010995574295520782;0.0024434609804302454
01:00:0A:00:00:00:00;1725062553;31/08/24;00:02:33;1.016;-0.032;0.065;-0.004886921960860491;-0.010995574295520782;0.0024434609804302454
01:00:0A:00:00:00:00;1725062554;31/08/24;00:02:34;1.016;-0.032;0.065;-0.004886921960860491;-0.010995574295520782;0.0024434609804302454
01:00:0A:00:00:00:00;1725062555;31/08/24;00:02:35;1.015;-0.033;0.064;-0.004886921960860491;-0.010995574295520782;0.0024434609804302454
01:00:0A:00:00:00:00;1725062556;31/08/24;00:02:36;1.016;-0.033;0.064;-0.0036651913542300463;-0.010995574295520782;0.0024434609804302454
01:00:0A:00:00:00:00;1725062557;31/08/24;00:02:37;1.016;-0.032;0.064;-0.004886921960860491;-0.010995574295520782;0.0024434609804302454
01:00:0A:00:00:00:00;1725062558;31/08/24;00:02:38;1.016;-0.033;0.065;-0.0036651913542300463;-0.010995574295520782;0.0024434609804302454
01:00:0A:00:00:00:00;1725062559;31/08/24;00:02:39;1.016;-0.031;0.064;-0.004886921960860491;-0.010995574295520782;0.0024434609804302454
01:00:0A:00:00:00:00;1725062560;31/08/24;00:02:40;1.014;-0.031;0.065;-0.0036651913542300463;-0.010995574295520782;0.0024434609804302454
01:00:0A:00:00:00:00;1725062561;31/08/24;00:02:41;1.015;-0.033;0.064;-0.004886921960860491;-0.010995574295520782;0.0024434609804302454
01:00:0A:00:00:00:00;1725062562;31/08/24;00:02:42;1.016;-0.032;0.065;-0.0036651913542300463;-0.010995574295520782;0.0036651913542300463
01:00:0A:00:00:00:00;1725062563;31/08/24;00:02:43;1.015;-0.033;0.064;-0.0036651913542300463;-0.010995574295520782;0.0024434609804302454
01:00:0A:00:00:00:00;1725062564;31/08/24;00:02:44;1.015;-0.032;0.065;-0.004886921960860491;-0.010995574295520782;0.0024434609804302454
01:00:0A:00:00:00:00;1725062565;31/08/24;00:02:45;1.015;-0.032;0.064;-0.0036651913542300463;-0.010995574295520782;0.0024434609804302454
01:00:0A:00:00:00:00;1725062566;31/08/24;00:02:46;1.015;-0.032;0.064;-0.0036651913542300463;-0.010995574295520782;0.0024434609804302454
01:00:0A:00:00:00:00;1725062567;31/08/24;00:02:47;1.02;-0.033;0.076;-0.009773843921720982;0.0;0.013439035043120384
01:00:0A:00:00:00:00;1725062568;31/08/24;00:02:48;1.073;-0.138;0.139;-0.030543262138962746;-0.0036651913542300463;-0.13316862285137177
01:00:0A:00:00:00:00;1725062569;31/08/24;00:02:49;1.03;0.125;0.097;-0.021991148591041565;0.4948008358478546;0.5106833577156067
01:00:0A:00:00:00:00;1725062570;31/08/24;00:02:50;0.865;-0.086;0.195;-0.1319468915462494;-0.3066543638706207;-0.02932153083384037
01:00:0A:00:00:00:00;1725062571;31/08/24;00:02:51;0.894;0.131;0.191;-0.23090705275535583;0.5400049090385437;-0.2382374405860901
01:00:0A:00:00:00:00;1725062572;31/08/24;00:02:52;1.076;-0.197;0.051;-0.6218608021736145;-0.862541675567627;0.7171557545661926
01:00:0A:00:00:00:00;1725062573;31/08/24;00:02:53;1.007;-0.31;-0.153;0.1771509200334549;1.0592403411865234;-0.7257078886032104
01:00:0A:00:00:00:00;1725062574;31/08/24;00:02:54;0.778;0.528;0.33;-0.48258352279663086;-1.605353832244873;0.4593706727027893
01:00:0A:00:00:00:00;1725062575;31/08/24;00:02:55;0.944;-0.387;-0.282;-0.739146888256073;0.7452555894851685;-0.09529497474431992
01:00:0A:00:00:00:00;1725062576;31/08/24;00:02:56;1.023;-0.159;0.131;-1.1386528015136719;0.455705463886261;-0.2675589621067047
01:00:0A:00:00:00:00;1725062577;31/08/24;00:02:57;0.973;-0.112;0.33;-1.7910568714141846;-0.8222246170043945;-0.5021312236785889
01:00:0A:00:00:00:00;1725062578;31/08/24;00:02:58;0.979;0.124;0.176;-1.4318681955337524;0.20036379992961884;-0.12461651116609573
01:00:0A:00:00:00:00;1725062579;31/08/24;00:02:59;0.949;-0.242;0.058;-1.2473868131637573;-0.7220427393913269;-0.27611109614372253
01:00:0A:00:00:00:00;1725062580;31/08/24;00:03:00;0.898;0.01;0.38;-1.1007791757583618;0.49357908964157104;0.3384193480014801
01:00:0A:00:00:00:00;1725062581;31/08/24;00:03:01;0.747;0.25;0.717;-1.0030406713485718;0.015882495790719986;-1.3023645877838135
01:00:0A:00:00:00:00;1725062582;31/08/24;00:03:02;0.867;0.324;-0.335;-1.4563027620315552;-0.62796950340271;0.03787364438176155
01:00:0A:00:00:00:00;1725062583;31/08/24;00:03:03;0.758;-0.01;0.663;-1.6395622491836548;1.1899654865264893;0.23335053026676178
01:00:0A:00:00:00:00;1725062584;31/08/24;00:03:04;0.998;0.268;-0.185;-1.0885618925094604;-0.5644394755363464;-0.5778785347938538
01:00:0A:00:00:00:00;1725062585;31/08/24;00:03:05;1.016;0.226;0.175;-1.4208725690841675;0.1869247555732727;0.07941248267889023
01:00:0A:00:00:00:00;1725062586;31/08/24;00:03:06;0.978;-0.117;-0.199;-1.0433577299118042;-0.2370157092809677;0.12339477241039276
01:00:0A:00:00:00:00;1725062587;31/08/24;00:03:07;0.839;-0.316;0.612;0.5791001915931702;-0.7757988572120667;-0.7904595732688904
01:00:0A:00:00:00:00;1725062588;31/08/24;00:03:08;1.044;-0.141;-0.174;0.5668829083442688;0.25534167885780334;0.004886921960860491
01:00:0A:00:00:00:00;1725062589;31/08/24;00:03:09;0.976;-0.052;0.437;0.7916813492774963;-0.05009094998240471;-0.4251621961593628
01:00:0A:00:00:00:00;1725062590;31/08/24;00:03:10;0.912;0.479;-0.15;0.09773843735456467;-0.875980794429779;0.080634206533432
01:00:0A:00:00:00:00;1725062591;31/08/24;00:03:11;0.926;-0.284;-0.356;-0.010995574295520782;0.4948008358478546;0.8674286603927612
01:00:0A:00:00:00:00;1725062592;31/08/24;00:03:12;0.969;-0.243;0.275;0.3176499307155609;0.49846604466438293;-0.7623597979545593
01:00:0A:00:00:00:00;1725062593;31/08/24;00:03:13;0.84;0.424;0.468;-0.24678954482078552;0.37262779474258423;-0.7648032903671265
01:00:0A:00:00:00:00;1725062594;31/08/24;00:03:14;0.824;0.398;0.466;-1.1044443845748901;-0.9040805697441101;-0.3078760802745819
01:00:0A:00:00:00:00;1725062595;31/08/24;00:03:15;0.949;0.077;0.28;-1.4648548364639282;-0.3078760802745819;-0.07330382615327835
01:00:0A:00:00:00:00;1725062596;31/08/24;00:03:16;1.014;0.113;-0.162;-1.310916781425476;-0.21502456068992615;-0.36651912331581116
01:00:0A:00:00:00:00;1725062597;31/08/24;00:03:17;1.027;0.184;0.183;1.3145819902420044;0.6524040699005127;-0.41783180832862854
01:00:0A:00:00:00:00;1725062598;31/08/24;00:03:18;0.887;0.382;0.228;-0.4043927788734436;-0.07330382615327835;0.44348815083503723
01:00:0A:00:00:00:00;1725062599;31/08/24;00:03:19;0.834;0.556;0.173;-0.6670648455619812;-0.8038986325263977;-0.021991148591041565
01:00:0A:00:00:00:00;1725062600;31/08/24;00:03:20;0.86;0.415;0.082;-2.0219638347625732;-1.263269305229187;0.08429940044879913
01:00:0A:00:00:00:00;1725062601;31/08/24;00:03:21;1.003;0.19;0.004;-2.370157241821289;-0.6438519358634949;0.6328563690185547
01:00:0A:00:00:00:00;1725062602;31/08/24;00:03:22;1.058;-0.099;0.069;-2.230879783630371;0.9834930300712585;1.0555751323699951
01:00:0A:00:00:00:00;1725062603;31/08/24;00:03:23;0.847;-0.697;-0.17;-1.2693779468536377;0.4703662395477295;0.41172316670417786
01:00:0A:00:00:00:00;1725062604;31/08/24;00:03:24;0.994;0.132;0.048;-0.42760565876960754;-0.5119050741195679;-0.37751471996307373
01:00:0A:00:00:00:00;1725062605;31/08/24;00:03:25;0.999;-0.155;0.002;-0.8051203489303589;0.01710422709584236;0.6609562039375305
01:00:0A:00:00:00:00;1725062606;31/08/24;00:03:26;0.969;0.12;0.196;-0.836885392665863;-0.015882495790719986;-0.6255260109901428
01:00:0A:00:00:00:00;1725062607;31/08/24;00:03:27;1.092;0.075;-0.311;-1.086118459701538;-1.783726453781128;1.1166616678237915
01:00:0A:00:00:00:00;1725062608;31/08/24;00:03:28;0.927;0.048;-0.22;-1.2302825450897217;0.8649851679801941;0.455705463886261
01:00:0A:00:00:00:00;1725062609;31/08/24;00:03:29;0.926;-0.202;0.298;-1.1142181158065796;0.1661553531885147;-0.616973876953125
01:00:0A:00:00:00:00;1725062610;31/08/24;00:03:30;0.83;0.14;-0.485;-1.1691960096359253;-2.9626963138580322;-0.27000245451927185
01:00:0A:00:00:00:00;1725062611;31/08/24;00:03:31;0.937;-0.347;0.393;-0.7367035150527954;0.25534167885780334;0.7171557545661926
01:00:0A:00:00:00:00;1725062612;31/08/24;00:03:32;0.915;-0.212;0.158;-0.929736852645874;0.14416420459747314;-0.6609562039375305
01:00:0A:00:00:00:00;1725062613;31/08/24;00:03:33;0.942;-0.202;0.295;0.31154125928878784;-0.38240164518356323;-1.4037683010101318
01:00:0A:00:00:00:00;1725062614;31/08/24;00:03:34;0.991;0.121;0.003;-0.07330382615327835;0.014660765416920185;0.3689626157283783
01:00:0A:00:00:00:00;1725062615;31/08/24;00:03:35;1.021;-0.141;-0.081;0.22479839622974396;-0.04153883829712868;-0.23335053026676178
01:00:0A:00:00:00:00;1725062616;31/08/24;00:03:36;0.855;0.384;-0.061;-0.08307767659425735;-1.57481050491333;-2.3518309593200684
01:00:0A:00:00:00:00;1725062617;31/08/24;00:03:37;0.979;-0.203;-0.079;-0.27000245451927185;-0.15515977144241333;1.1630873680114746
01:00:0A:00:00:00:00;1725062618;31/08/24;00:03:38;0.956;0.189;0.151;-0.0659734457731247;0.5387831330299377;-0.797789990901947
01:00:0A:00:00:00:00;1725062619;31/08/24;00:03:39;0.859;-0.565;0.449;-0.38240164518356323;-0.0024434609804302454;-1.3952162265777588
01:00:0A:00:00:00:00;1725062620;31/08/24;00:03:40;0.886;0.48;-0.164;-0.778242290019989;-0.5644394755363464;0.46303585171699524
01:00:0A:00:00:00:00;1725062621;31/08/24;00:03:41;0.948;0.184;-0.127;-0.5558874011039734;0.4349360466003418;1.0458012819290161
01:00:0A:00:00:00:00;1725062622;31/08/24;00:03:42;0.946;-0.179;0.007;-0.1820378452539444;0.8222246170043945;-0.42271876335144043
01:00:0A:00:00:00:00;1725062623;31/08/24;00:03:43;0.867;0.043;0.289;-0.32009339332580566;0.0036651913542300463;0.19425514340400696
01:00:0A:00:00:00:00;1725062624;31/08/24;00:03:44;1.001;-0.144;0.004;-0.2528982162475586;-0.161268413066864;-0.14416420459747314
01:00:0A:00:00:00:00;1725062625;31/08/24;00:03:45;0.973;0.036;0.415;-0.27488934993743896;0.5717698335647583;-0.04764748737215996
01:00:0A:00:00:00:00;1725062626;31/08/24;00:03:46;0.94;-0.108;0.479;-0.5473352670669556;-0.08796459436416626;-0.2895500957965851
01:00:0A:00:00:00:00;1725062627;31/08/24;00:03:47;0.888;0.234;0.381;-0.8417722582817078;0.11239919811487198;-0.3787364363670349
01:00:0A:00:00:00:00;1725062628;31/08/24;00:03:48;0.946;-0.053;0.324;-0.9834930300712585;-0.778242290019989;-0.1918116807937622
01:00:0A:00:00:00:00;1725062629;31/08/24;00:03:49;1.012;0.021;-0.027;-0.7892378568649292;-0.004886921960860491;0.059864792972803116
01:00:0A:00:00:00:00;1725062630;31/08/24;00:03:50;1.012;-0.15;0.022;-0.6230825185775757;0.1111774742603302;0.1319468915462494
01:00:0A:00:00:00:00;1725062631;31/08/24;00:03:51;0.992;0.147;0.103;-0.5119050741195679;0.2480112910270691;-0.019547687843441963
01:00:0A:00:00:00:00;1725062632;31/08/24;00:03:52;1.071;0.126;0.02;-0.8063421249389648;-0.4948008358478546;0.31642818450927734
01:00:0A:00:00:00:00;1725062633;31/08/24;00:03:53;1.093;0.029;-0.097;-0.6218608021736145;0.5021312236785889;0.16371189057826996
01:00:0A:00:00:00:00;1725062634;31/08/24;00:03:54;0.869;0.402;0.44;-0.6255260109901428;-0.4911356568336487;-0.1661553531885147
01:00:0A:00:00:00:00;1725062635;31/08/24;00:03:55;0.952;0.355;-0.006;-1.1740829944610596;-0.6719517707824707;-0.09529497474431992
01:00:0A:00:00:00:00;1725062636;31/08/24;00:03:56;0.911;0.395;-0.186;-1.9010125398635864;-1.4587461948394775;0.6377432942390442
01:00:0A:00:00:00:00;1725062637;31/08/24;00:03:57;0.734;0.489;-0.285;-2.4605650901794434;-0.14538592100143433;1.2461650371551514
01:00:0A:00:00:00:00;1725062638;31/08/24;00:03:58;0.935;0.275;-0.206;-2.3518309593200684;-0.4312708377838135;0.11850785464048386
01:00:0A:00:00:00:00;1725062639;31/08/24;00:03:59;1.017;0.024;-0.043;-2.188119411468506;-0.3677408695220947;0.5314527750015259
01:00:0A:00:00:00:00;1725062640;31/08/24;00:04:00;1.051;-0.025;0.183;-1.8362609148025513;0.7134906053543091;0.3995058536529541
01:00:0A:00:00:00:00;1725062641;31/08/24;00:04:01;0.913;-0.122;-0.24;-1.2620476484298706;-0.2773328125476837;-0.08185594528913498
01:00:0A:00:00:00:00;1725062642;31/08/24;00:04:02;0.918;-0.336;0.164;-0.8161159753799438;0.5546656250953674;0.6438519358634949
01:00:0A:00:00:00:00;1725062643;31/08/24;00:04:03;0.956;-0.089;0.276;-0.2382374405860901;0.1869247555732727;-0.6487389206886292
01:00:0A:00:00:00:00;1725062644;31/08/24;00:04:04;0.989;-0.028;-0.083;-0.2822197377681732;-0.5839871764183044;0.4715879559516907
01:00:0A:00:00:00:00;1725062645;31/08/24;00:04:05;0.974;-0.218;-0.049;0.3628539443016052;1.2315043210983276;-0.4801400899887085
01:00:0A:00:00:00:00;1725062646;31/08/24;00:04:06;0.791;0.128;0.67;0.23945917189121246;0.7012733221054077;0.10262535512447357
01:00:0A:00:00:00:00;1725062647;31/08/24;00:04:07;1.057;-0.204;-0.162;0.2480112910270691;-0.42638394236564636;0.07819075137376785
01:00:0A:00:00:00:00;1725062648;31/08/24;00:04:08;1.02;-0.12;-0.024;0.5705481767654419;0.39828410744667053;-0.6951646208763123
01:00:0A:00:00:00:00;1725062649;31/08/24;00:04:09;1.012;0.278;0.138;0.17348572611808777;-0.09407324343919754;0.5571090579032898
01:00:0A:00:00:00:00;1725062650;31/08/24;00:04:10;0.973;-0.351;0.354;-0.3286454975605011;0.7476990222930908;0.014660765416920185
01:00:0A:00:00:00:00;1725062651;31/08/24;00:04:11;1.078;-0.109;0.011;-0.24678954482078552;0.08307767659425735;0.00855211354792118
01:00:0A:00:00:00:00;1725062652;31/08/24;00:04:12;0.917;0.076;0.516;-0.28099802136421204;0.38240164518356323;-0.13439035415649414
01:00:0A:00:00:00:00;1725062653;31/08/24;00:04:13;0.974;0.027;-0.286;-0.3885102868080139;-0.5803219676017761;-0.11728612333536148
01:00:0A:00:00:00:00;1725062654;31/08/24;00:04:14;0.99;0.204;-0.038;-0.4605923891067505;0.1258382350206375;0.07819075137376785
01:00:0A:00:00:00:00;1725062655;31/08/24;00:04:15;1.007;-0.184;0.021;-0.5229006409645081;0.018325956538319588;0.45326200127601624
01:00:0A:00:00:00:00;1725062656;31/08/24;00:04:16;1.044;-0.174;0.003;-0.04886921867728233;0.2382374405860901;-0.7819074988365173
01:00:0A:00:00:00:00;1725062657;31/08/24;00:04:17;0.826;0.447;0.382;-0.455705463886261;0.18081611394882202;-0.4715879559516907
01:00:0A:00:00:00:00;1725062658;31/08/24;00:04:18;1.022;-0.133;-0.092;-0.7843509316444397;-1.0665706396102905;0.2687807083129883
01:00:0A:00:00:00:00;1725062659;31/08/24;00:04:19;0.761;0.55;-0.221;-0.6597344279289246;-1.508837103843689;-2.063502788543701
01:00:0A:00:00:00:00;1725062660;31/08/24;00:04:20;1.0;-0.326;-0.3;-0.8381071090698242;-0.26511549949645996;1.0934487581253052
01:00:0A:00:00:00:00;1725062661;31/08/24;00:04:21;0.946;0.366;0.384;-0.6805038452148438;0.5632177591323853;-0.7269296050071716
01:00:0A:00:00:00:00;1725062662;31/08/24;00:04:22;1.024;-0.082;0.17;-0.7293730974197388;-0.33964109420776367;0.313984751701355
01:00:0A:00:00:00:00;1725062663;31/08/24;00:04:23;0.985;0.168;0.029;-0.5314527750015259;0.1563815027475357;-0.21624629199504852
01:00:0A:00:00:00:00;1725062664;31/08/24;00:04:24;0.945;-0.04;0.209;-0.4508185386657715;-0.06230825558304787;0.31154125928878784
01:00:0A:00:00:00:00;1725062665;31/08/24;00:04:25;0.962;0.068;0.007;-0.27122414112091064;-0.08307767659425735;-0.37629297375679016
01:00:0A:00:00:00:00;1725062666;31/08/24;00:04:26;0.99;0.08;0.054;-0.4349360466003418;0.15027284622192383;0.21135938167572021
01:00:0A:00:00:00:00;1725062667;31/08/24;00:04:27;1.018;0.115;0.072;-0.35063666105270386;0.11484266817569733;-0.6243042349815369
01:00:0A:00:00:00:00;1725062668;31/08/24;00:04:28;0.912;0.401;0.197;-0.720820963382721;-1.1044443845748901;0.5705481767654419
01:00:0A:00:00:00:00;1725062669;31/08/24;00:04:29;0.826;0.24;-0.433;-0.817337691783905;-0.1563815027475357;0.10384709388017654
01:00:0A:00:00:00:00;1725062670;31/08/24;00:04:30;0.9;0.366;-0.198;-0.7892378568649292;-0.49357908964157104;0.6181955933570862
01:00:0A:00:00:00:00;1725062671;31/08/24;00:04:31;0.965;0.073;0.004;-0.5595525503158569;0.5119050741195679;1.0873401165008545
01:00:0A:00:00:00:00;1725062672;31/08/24;00:04:32;0.903;-0.327;0.003;-0.28588491678237915;0.08185594528913498;0.15882496535778046
01:00:0A:00:00:00:00;1725062673;31/08/24;00:04:33;0.974;0.141;0.116;-0.19425514340400696;-0.039095375686883926;-0.5827654600143433
01:00:0A:00:00:00:00;1725062674;31/08/24;00:04:34;0.942;-0.321;0.062;-0.846659243106842;0.6352998614311218;1.2217304706573486
01:00:0A:00:00:00:00;1725062675;31/08/24;00:04:35;0.985;-0.123;0.0;-0.5216788649559021;-0.0354301817715168;-0.7122688889503479
01:00:0A:00:00:00:00;1725062676;31/08/24;00:04:36;0.907;-0.037;0.192;-0.47280970215797424;0.33719760179519653;0.33719760179519653
01:00:0A:00:00:00:00;1725062677;31/08/24;00:04:37;0.926;-0.081;0.075;-0.2638937830924988;-0.15882496535778046;-0.41783180832862854
01:00:0A:00:00:00:00;1725062678;31/08/24;00:04:38;0.721;0.651;0.455;-0.8552113175392151;-0.6157521605491638;0.0012217304902151227
01:00:0A:00:00:00:00;1725062679;31/08/24;00:04:39;1.079;-0.085;-0.012;-0.9822713136672974;-0.5290092825889587;0.09651670604944229
01:00:0A:00:00:00:00;1725062680;31/08/24;00:04:40;1.077;0.236;-0.217;-0.9224064946174622;1.0616837739944458;0.15882496535778046
01:00:0A:00:00:00:00;1725062681;31/08/24;00:04:41;0.914;-0.335;0.281;-0.6743952035903931;0.26511549949645996;0.2590068578720093
01:00:0A:00:00:00:00;1725062682;31/08/24;00:04:42;0.993;-0.048;-0.228;1.5344934463500977;1.0543533563613892;1.320690631866455
01:00:0A:00:00:00:00;1725062683;31/08/24;00:04:43;0.99;0.102;0.169;1.3988813161849976;-0.294437050819397;0.24434609711170197
01:00:0A:00:00:00:00;1725062684;31/08/24;00:04:44;1.017;-0.065;0.014;1.3573424816131592;-0.3176499307155609;0.05253440886735916
01:00:0A:00:00:00:00;1725062685;31/08/24;00:04:45;0.929;0.105;-0.313;0.862541675567627;1.7397441864013672;-0.4813618063926697
01:00:0A:00:00:00:00;1725062686;31/08/24;00:04:46;0.812;0.326;0.443;0.49235740303993225;0.3127630054950714;0.9089674949645996
01:00:0A:00:00:00:00;1725062687;31/08/24;00:04:47;0.998;-0.307;0.094;0.4642575681209564;-0.6206390857696533;0.5900958180427551
01:00:0A:00:00:00:00;1725062688;31/08/24;00:04:48;1.04;-0.269;-0.105;0.7892378568649292;-0.1319468915462494;-0.38606682419776917
01:00:0A:00:00:00:00;1725062689;31/08/24;00:04:49;0.952;0.439;-0.2;0.6475171446800232;-0.10018189996480942;-0.5913175940513611
01:00:0A:00:00:00:00;1725062690;31/08/24;00:04:50;0.959;-0.064;0.52;0.30543261766433716;0.6756169199943542;0.2822197377681732
01:00:0A:00:00:00:00;1725062691;31/08/24;00:04:51;1.032;0.042;-0.015;0.23945917189121246;-0.5143485069274902;-0.040317103266716
01:00:0A:00:00:00:00;1725062692;31/08/24;00:04:52;0.991;-0.105;0.096;0.1771509200334549;0.3029891550540924;0.1270599663257599
01:00:0A:00:00:00:00;1725062693;31/08/24;00:04:53;0.943;0.07;0.156;0.12217304855585098;-0.19547687470912933;-0.23457224667072296
01:00:0A:00:00:00:00;1725062694;31/08/24;00:04:54;0.973;-0.064;0.04;-0.1514945775270462;-0.040317103266716;0.4715879559516907
01:00:0A:00:00:00:00;1725062695;31/08/24;00:04:55;0.991;-0.199;0.153;0.080634206533432;0.08185594528913498;-0.48869219422340393
01:00:0A:00:00:00:00;1725062696;31/08/24;00:04:56;1.015;0.243;0.076;-0.09285151958465576;-0.1661553531885147;-0.04886921867728233
01:00:0A:00:00:00:00;1725062697;31/08/24;00:04:57;1.044;-0.123;0.015;-0.22846359014511108;0.0757472887635231;0.31031954288482666
01:00:0A:00:00:00:00;1725062698;31/08/24;00:04:58;1.138;-0.048;0.123;-0.10018189996480942;0.15027284622192383;-0.19058994948863983
01:00:0A:00:00:00:00;1725062699;31/08/24;00:04:59;0.926;0.273;0.393;-0.3298672139644623;0.18936821818351746;-0.44104471802711487
01:00:0A:00:00:00:00;1725062700;31/08/24;00:05:00;1.011;0.129;0.14;-0.6695082783699036;-0.5522221922874451;0.12950342893600464
01:00:0A:00:00:00:00;1725062701;31/08/24;00:05:01;0.979;-0.11;-0.017;-0.5962044596672058;0.1111774742603302;0.27488934993743896
01:00:0A:00:00:00:00;1725062702;31/08/24;00:05:02;0.961;-0.065;0.164;-0.3445279896259308;0.2431243658065796;-0.2272418737411499
01:00:0A:00:00:00:00;1725062703;31/08/24;00:05:03;0.994;0.04;0.092;-0.3127630054950714;-0.48747044801712036;-0.17470745742321014
01:00:0A:00:00:00:00;1725062704;31/08/24;00:05:04;1.006;0.127;-0.105;-0.4141666293144226;0.1417207270860672;0.06230825558304787
01:00:0A:00:00:00:00;1725062705;31/08/24;00:05:05;1.024;-0.119;0.163;-0.39217546582221985;0.042760565876960754;0.10384709388017654
01:00:0A:00:00:00:00;1725062706;31/08/24;00:05:06;1.032;0.012;0.099;-0.26633724570274353;-0.13439035415649414;-0.22357667982578278
01:00:0A:00:00:00:00;1725062707;31/08/24;00:05:07;1.006;0.086;0.1;-0.3677408695220947;0.0024434609804302454;0.024434609338641167
01:00:0A:00:00:00:00;1725062708;31/08/24;00:05:08;1.013;-0.058;0.077;-0.3946189284324646;0.00855211354792118;0.13439035415649414
01:00:0A:00:00:00:00;1725062709;31/08/24;00:05:09;1.018;0.018;0.082;-0.3066543638706207;0.05742133408784866;-0.13927726447582245
01:00:0A:00:00:00:00;1725062710;31/08/24;00:05:10;1.006;0.015;0.123;-0.3640756905078888;0.02076941914856434;0.05497787147760391
01:00:0A:00:00:00:00;1725062711;31/08/24;00:05:11;0.967;-0.053;0.028;-0.33108896017074585;-0.14782939851284027;0.030543262138962746
01:00:0A:00:00:00:00;1725062712;31/08/24;00:05:12;0.966;0.012;0.087;-0.2370157092809677;0.2028072476387024;-0.16249015927314758
01:00:0A:00:00:00:00;1725062713;31/08/24;00:05:13;1.0;0.04;0.138;-0.3090977966785431;-0.2272418737411499;0.05375614017248154
01:00:0A:00:00:00:00;1725062714;31/08/24;00:05:14;1.04;-0.055;-0.029;-0.2724458873271942;-0.05742133408784866;-0.019547687843441963
01:00:0A:00:00:00:00;1725062715;31/08/24;00:05:15;1.029;0.028;0.129;-0.2895500957965851;0.08796459436416626;-0.030543262138962746
01:00:0A:00:00:00:00;1725062716;31/08/24;00:05:16;1.019;0.01;0.127;-0.3445279896259308;-0.1417207270860672;0.045204028487205505
01:00:0A:00:00:00:00;1725062717;31/08/24;00:05:17;1.025;0.031;0.042;-0.3347541391849518;-0.03298672288656235;-0.05009094998240471
01:00:0A:00:00:00:00;1725062718;31/08/24;00:05:18;1.013;-0.01;0.131;-0.35185837745666504;0.09651670604944229;-0.010995574295520782
01:00:0A:00:00:00:00;1725062719;31/08/24;00:05:19;1.004;-0.032;0.07;-0.32498031854629517;-0.12339477241039276;-0.06475171446800232
01:00:0A:00:00:00:00;1725062720;31/08/24;00:05:20;1.002;0.001;0.066;-0.31642818450927734;0.021991148591041565;0.0024434609804302454
01:00:0A:00:00:00:00;1725062721;31/08/24;00:05:21;0.983;-0.111;0.139;-0.33719760179519653;0.1368338167667389;0.2174680233001709
01:00:0A:00:00:00:00;1725062722;31/08/24;00:05:22;0.905;-0.4;0.295;0.04642575979232788;0.025656338781118393;-0.0659734457731247
01:00:0A:00:00:00:00;1725062723;31/08/24;00:05:23;1.044;-0.06;0.136;0.21380282938480377;-0.4899139106273651;-0.5510004162788391
01:00:0A:00:00:00:00;1725062724;31/08/24;00:05:24;0.974;0.237;-0.267;0.08552113175392151;0.1111774742603302;0.16371189057826996
01:00:0A:00:00:00:00;1725062725;31/08/24;00:05:25;0.962;-0.227;0.355;0.08307767659425735;0.5204571485519409;0.34574973583221436
01:00:0A:00:00:00:00;1725062726;31/08/24;00:05:26;1.023;-0.028;0.132;0.13805554807186127;-0.4593706727027893;-0.2528982162475586
01:00:0A:00:00:00:00;1725062727;31/08/24;00:05:27;0.985;0.093;-0.171;0.11484266817569733;-0.03298672288656235;0.0024434609804302454
01:00:0A:00:00:00:00;1725062728;31/08/24;00:05:28;0.996;-0.053;0.234;0.1258382350206375;0.39217546582221985;0.08918632566928864
01:00:0A:00:00:00:00;1725062729;31/08/24;00:05:29;0.991;-0.037;0.213;0.04764748737215996;-0.2834414541721344;-0.05742133408784866
01:00:0A:00:00:00:00;1725062730;31/08/24;00:05:30;0.99;0.011;-0.102;0.04642575979232788;-0.04886921867728233;0.05009094998240471
01:00:0A:00:00:00:00;1725062731;31/08/24;00:05:31;1.0;-0.014;0.103;0.08918632566928864;0.39217546582221985;0.04642575979232788
01:00:0A:00:00:00:00;1725062732;31/08/24;00:05:32;0.994;-0.01;0.23;0.0036651913542300463;-0.2883284091949463;-0.02321287989616394
01:00:0A:00:00:00:00;1725062733;31/08/24;00:05:33;1.023;-0.02;-0.081;0.015882495790719986;-0.08552113175392151;-0.010995574295520782
01:00:0A:00:00:00:00;1725062734;31/08/24;00:05:34;1.029;-0.014;0.085;0.06108652427792549;0.21991148591041565;-0.015882495790719986
01:00:0A:00:00:00:00;1725062735;31/08/24;00:05:35;1.009;0.0;0.169;-0.0024434609804302454;-0.07819075137376785;0.00855211354792118
01:00:0A:00:00:00:00;1725062736;31/08/24;00:05:36;1.023;-0.012;-0.007;-0.009773843921720982;-0.14049901068210602;0.0
01:00:0A:00:00:00:00;1725062737;31/08/24;00:05:37;1.031;-0.022;0.092;0.036651913076639175;0.1466076523065567;-0.025656338781118393
01:00:0A:00:00:00:00;1725062738;31/08/24;00:05:38;1.006;0.004;0.134;-0.0024434609804302454;-0.010995574295520782;-0.015882495790719986
01:00:0A:00:00:00:00;1725062739;31/08/24;00:05:39;0.988;-0.015;0.031;-0.02321287989616394;-0.13439035415649414;0.024434609338641167
01:00:0A:00:00:00:00;1725062740;31/08/24;00:05:40;0.982;-0.029;0.08;0.019547687843441963;0.13805554807186127;0.0024434609804302454
01:00:0A:00:00:00:00;1725062741;31/08/24;00:05:41;1.004;-0.013;0.138;-0.0073303827084600925;-0.1319468915462494;0.004886921960860491
01:00:0A:00:00:00:00;1725062742;31/08/24;00:05:42;1.017;0.002;0.02;-0.0073303827084600925;-0.039095375686883926;0.015882495790719986
01:00:0A:00:00:00:00;1725062743;31/08/24;00:05:43;1.035;-0.025;0.098;0.012217304669320583;0.00855211354792118;-0.006108652334660292
01:00:0A:00:00:00:00;1725062744;31/08/24;00:05:44;1.029;-0.073;0.0;0.21380282938480377;-0.36651912331581116;0.15393804013729095
01:00:0A:00:00:00:00;1725062745;31/08/24;00:05:45;0.997;-0.21;0.019;1.0140362977981567;0.12828169763088226;0.10995574295520782
01:00:0A:00:00:00:00;1725062746;31/08/24;00:05:46;1.013;0.002;0.081;1.1997392177581787;-0.09407324343919754;-0.25534167885780334
01:00:0A:00:00:00:00;1725062747;31/08/24;00:05:47;1.013;-0.04;0.019;1.1423180103302002;0.09529497474431992;0.10506881773471832
01:00:0A:00:00:00:00;1725062748;31/08/24;00:05:48;1.001;0.026;0.183;1.0225883722305298;0.025656338781118393;0.03298672288656235
01:00:0A:00:00:00:00;1725062749;31/08/24;00:05:49;1.012;-0.056;0.098;0.8710938096046448;-0.02687807008624077;0.23457224667072296
01:00:0A:00:00:00:00;1725062750;31/08/24;00:05:50;1.0;-0.052;0.123;0.875980794429779;-0.009773843921720982;-0.042760565876960754
01:00:0A:00:00:00:00;1725062751;31/08/24;00:05:51;1.001;0.004;0.035;0.7660250067710876;-0.00855211354792118;0.08552113175392151
01:00:0A:00:00:00:00;1725062752;31/08/24;00:05:52;1.022;-0.019;0.079;0.7220427393913269;0.05497787147760391;0.010995574295520782
01:00:0A:00:00:00:00;1725062753;31/08/24;00:05:53;1.027;0.018;0.1;0.6206390857696533;-0.0354301817715168;0.10262535512447357
01:00:0A:00:00:00:00;1725062754;31/08/24;00:05:54;1.02;-0.067;0.057;0.5962044596672058;0.006108652334660292;0.10384709388017654
01:00:0A:00:00:00:00;1725062755;31/08/24;00:05:55;1.009;0.0;0.081;0.6047565937042236;-0.012217304669320583;-0.059864792972803116
01:00:0A:00:00:00:00;1725062756;31/08/24;00:05:56;1.007;0.0;0.054;0.5241223573684692;0.021991148591041565;0.10018189996480942
01:00:0A:00:00:00:00;1725062757;31/08/24;00:05:57;1.002;-0.032;0.095;0.5106833577156067;0.015882495790719986;0.0024434609804302454
01:00:0A:00:00:00:00;1725062758;31/08/24;00:05:58;1.006;-0.021;0.073;0.46670106053352356;-0.08796459436416626;0.025656338781118393
01:00:0A:00:00:00:00;1725062759;31/08/24;00:05:59;1.021;-0.022;0.074;0.4398229718208313;0.03787364438176155;0.04398229718208313
01:00:0A:00:00:00:00;1725062760;31/08/24;00:06:00;1.027;0.017;0.117;0.3897320330142975;-0.014660765416920185;0.03420845419168472
01:00:0A:00:00:00:00;1725062761;31/08/24;00:06:01;1.037;-0.026;0.07;0.34697145223617554;-0.04153883829712868;0.07208210229873657
01:00:0A:00:00:00:00;1725062762;31/08/24;00:06:02;1.026;-0.011;0.091;0.34086278080940247;0.03176499158143997;0.00855211354792118
01:00:0A:00:00:00:00;1725062763;31/08/24;00:06:03;1.001;0.002;0.081;0.3029891550540924;-0.00855211354792118;0.024434609338641167
01:00:0A:00:00:00:00;1725062764;31/08/24;00:06:04;0.987;-0.022;0.078;0.27488934993743896;-0.0024434609804302454;0.05497787147760391
01:00:0A:00:00:00:00;1725062765;31/08/24;00:06:05;0.987;-0.001;0.078;0.2736676335334778;-0.015882495790719986;-0.01710422709584236
01:00:0A:00:00:00:00;1725062766;31/08/24;00:06:06;1.007;0.002;0.066;0.23579397797584534;-0.013439035043120384;0.05009094998240471
01:00:0A:00:00:00:00;1725062767;31/08/24;00:06:07;1.038;-0.024;0.092;0.22602014243602753;-0.030543262138962746;0.013439035043120384
01:00:0A:00:00:00:00;1725062768;31/08/24;00:06:08;1.049;0.0;0.075;0.21624629199504852;-0.014660765416920185;0.015882495790719986
01:00:0A:00:00:00:00;1725062769;31/08/24;00:06:09;1.03;0.001;0.076;0.19547687470912933;0.013439035043120384;0.02932153083384037
01:00:0A:00:00:00:00;1725062770;31/08/24;00:06:10;1.002;-0.014;0.096;0.18325956165790558;-0.0024434609804302454;0.01710422709584236
01:00:0A:00:00:00:00;1725062771;31/08/24;00:06:11;0.997;-0.004;0.088;0.16982054710388184;-0.04398229718208313;0.0012217304902151227
01:00:0A:00:00:00:00;1725062772;31/08/24;00:06:12;0.994;0.007;0.083;0.14416420459747314;0.021991148591041565;0.030543262138962746
01:00:0A:00:00:00:00;1725062773;31/08/24;00:06:13;1.004;0.01;0.084;0.12461651116609573;-0.0036651913542300463;-0.009773843921720982
01:00:0A:00:00:00:00;1725062774;31/08/24;00:06:14;1.023;-0.004;0.081;0.10262535512447357;-0.02932153083384037;-0.015882495790719986
01:00:0A:00:00:00:00;1725062775;31/08/24;00:06:15;1.025;-0.011;0.076;0.08552113175392151;-0.009773843921720982;0.0036651913542300463
01:00:0A:00:00:00:00;1725062776;31/08/24;00:06:16;1.022;-0.01;0.094;0.06963863223791122;0.0036651913542300463;0.02076941914856434
01:00:0A:00:00:00:00;1725062777;31/08/24;00:06:17;1.02;-0.003;0.083;0.0659734457731247;-0.0073303827084600925;0.004886921960860491
01:00:0A:00:00:00:00;1725062778;31/08/24;00:06:18;1.016;-0.016;0.069;0.06352998316287994;0.0036651913542300463;-0.0024434609804302454
01:00:0A:00:00:00:00;1725062779;31/08/24;00:06:19;1.005;-0.014;0.091;0.059864792972803116;-0.014660765416920185;-0.00855211354792118
01:00:0A:00:00:00:00;1725062780;31/08/24;00:06:20;1.004;-0.013;0.095;0.039095375686883926;-0.02076941914856434;0.02687807008624077
01:00:0A:00:00:00:00;1725062781;31/08/24;00:06:21;1.02;-0.015;0.087;0.039095375686883926;-0.0036651913542300463;0.0
01:00:0A:00:00:00:00;1725062782;31/08/24;00:06:22;1.028;-0.004;0.089;0.02932153083384037;-0.0012217304902151227;0.0
01:00:0A:00:00:00:00;1725062783;31/08/24;00:06:23;1.019;-0.009;0.077;0.015882495790719986;-0.024434609338641167;0.006108652334660292
01:00:0A:00:00:00:00;1725062784;31/08/24;00:06:24;1.012;-0.015;0.085;0.010995574295520782;-0.0036651913542300463;0.006108652334660292
01:00:0A:00:00:00:00;1725062785;31/08/24;00:06:25;1.011;-0.006;0.077;0.0036651913542300463;-0.010995574295520782;0.0
01:00:0A:00:00:00:00;1725062786;31/08/24;00:06:26;1.018;-0.004;0.081;-0.0073303827084600925;-0.009773843921720982;0.02076941914856434
01:00:0A:00:00:00:00;1725062787;31/08/24;00:06:27;1.016;-0.011;0.09;-0.004886921960860491;0.0024434609804302454;0.0024434609804302454
01:00:0A:00:00:00:00;1725062788;31/08/24;00:06:28;1.002;-0.006;0.077;-0.009773843921720982;-0.0024434609804302454;0.0024434609804302454
01:00:0A:00:00:00:00;1725062789;31/08/24;00:06:29;0.998;-0.008;0.079;-0.015882495790719986;-0.013439035043120384;0.0036651913542300463
01:00:0A:00:00:00:00;1725062790;31/08/24;00:06:30;1.017;-0.01;0.082;-0.014660765416920185;-0.05253440886735916;-0.013439035043120384
01:00:0A:00:00:00:00;1725062791;31/08/24;00:06:31;1.031;-0.005;0.082;-0.018325956538319588;-0.014660765416920185;-0.0012217304902151227
01:00:0A:00:00:00:00;1725062792;31/08/24;00:06:32;1.025;-0.008;0.088;-0.024434609338641167;0.004886921960860491;0.018325956538319588
01:00:0A:00:00:00:00;1725062793;31/08/24;00:06:33;1.018;-0.005;0.08;-0.02687807008624077;-0.018325956538319588;0.004886921960860491
01:00:0A:00:00:00:00;1725062794;31/08/24;00:06:34;1.015;0.0;0.085;-0.02932153083384037;-0.01710422709584236;-0.013439035043120384
01:00:0A:00:00:00:00;1725062795;31/08/24;00:06:35;1.009;-0.02;0.087;-0.02932153083384037;-0.0036651913542300463;-0.0024434609804302454
01:00:0A:00:00:00:00;1725062796;31/08/24;00:06:36;1.007;-0.026;0.085;-0.02687807008624077;-0.010995574295520782;0.009773843921720982
01:00:0A:00:00:00:00;1725062797;31/08/24;00:06:37;1.011;-0.002;0.083;-0.02932153083384037;-0.02687807008624077;0.028099799528717995
01:00:0A:00:00:00:00;1725062798;31/08/24;00:06:38;1.017;0.002;0.087;-0.025656338781118393;-0.013439035043120384;0.015882495790719986
01:00:0A:00:00:00:00;1725062799;31/08/24;00:06:39;1.001;-0.065;0.149;0.3017674386501312;0.17470745742321014;0.09773843735456467
01:00:0A:00:00:00:00;1725062800;31/08/24;00:06:40;0.993;-0.03;0.231;0.5803219676017761;-0.09285151958465576;0.010995574295520782
01:00:0A:00:00:00:00;1725062801;31/08/24;00:06:41;1.008;0.043;0.133;0.9822713136672974;-0.05497787147760391;0.09285151958465576
01:00:0A:00:00:00:00;1725062802;31/08/24;00:06:42;1.011;-0.076;0.095;0.8881980776786804;0.042760565876960754;0.12339477241039276
01:00:0A:00:00:00:00;1725062803;31/08/24;00:06:43;1.014;-0.005;0.123;0.8564330339431763;-0.1014036238193512;-0.014660765416920185
01:00:0A:00:00:00:00;1725062804;31/08/24;00:06:44;1.016;-0.02;0.031;0.7721336483955383;0.02932153083384037;0.11850785464048386
01:00:0A:00:00:00:00;1725062805;31/08/24;00:06:45;1.01;0.003;0.126;0.7440338730812073;0.02321287989616394;-0.03420845419168472
01:00:0A:00:00:00:00;1725062806;31/08/24;00:06:46;1.016;0.009;0.067;0.6255260109901428;-0.059864792972803116;0.14905111491680145
01:00:0A:00:00:00:00;1725062807;31/08/24;00:06:47;1.016;-0.042;0.102;0.6340781450271606;0.040317103266716;0.0073303827084600925
01:00:0A:00:00:00:00;1725062808;31/08/24;00:06:48;1.008;0.031;0.07;0.588874101638794;-0.07330382615327835;-0.013439035043120384
01:00:0A:00:00:00:00;1725062809;31/08/24;00:06:49;1.007;-0.032;0.074;0.5400049090385437;0.06719517707824707;0.0708603635430336
01:00:0A:00:00:00:00;1725062810;31/08/24;00:06:50;1.005;-0.015;0.13;0.5229006409645081;-0.036651913076639175;-0.009773843921720982
01:00:0A:00:00:00:00;1725062811;31/08/24;00:06:51;1.017;-0.012;0.055;0.4752531349658966;-0.04153883829712868;0.05864306166768074
01:00:0A:00:00:00:00;1725062812;31/08/24;00:06:52;1.016;-0.03;0.096;0.4801400899887085;0.051312677562236786;-0.012217304669320583
01:00:0A:00:00:00:00;1725062813;31/08/24;00:06:53;1.019;0.018;0.097;0.42271876335144043;-0.030543262138962746;0.04398229718208313
01:00:0A:00:00:00:00;1725062814;31/08/24;00:06:54;1.023;-0.038;0.073;0.39217546582221985;0.004886921960860491;0.06475171446800232
01:00:0A:00:00:00:00;1725062815;31/08/24;00:06:55;1.015;-0.007;0.099;0.39217546582221985;-0.004886921960860491;-0.012217304669320583
01:00:0A:00:00:00:00;1725062816;31/08/24;00:06:56;1.014;0.004;0.073;0.34208452701568604;-0.028099799528717995;0.05619959905743599
01:00:0A:00:00:00:00;1725062817;31/08/24;00:06:57;1.014;-0.031;0.09;0.33719760179519653;0.03787364438176155;0.028099799528717995
01:00:0A:00:00:00:00;1725062818;31/08/24;00:06:58;1.014;0.0;0.084;0.3188716471195221;-0.036651913076639175;-0.0073303827084600925
01:00:0A:00:00:00:00;1725062819;31/08/24;00:06:59;1.014;-0.008;0.063;0.2895500957965851;0.006108652334660292;0.04886921867728233
01:00:0A:00:00:00:00;1725062820;31/08/24;00:07:00;1.009;-0.014;0.095;0.28466320037841797;0.010995574295520782;0.012217304669320583
01:00:0A:00:00:00:00;1725062821;31/08/24;00:07:01;1.011;-0.003;0.084;0.2565633952617645;-0.05009094998240471;0.02687807008624077
01:00:0A:00:00:00:00;1725062822;31/08/24;00:07:02;1.015;-0.016;0.07;0.24556782841682434;0.009773843921720982;0.028099799528717995
01:00:0A:00:00:00:00;1725062823;31/08/24;00:07:03;1.014;-0.002;0.093;0.23579397797584534;-0.010995574295520782;-0.0036651913542300463
01:00:0A:00:00:00:00;1725062824;31/08/24;00:07:04;1.016;-0.001;0.078;0.20525071024894714;-0.040317103266716;0.03298672288656235
01:00:0A:00:00:00:00;1725062825;31/08/24;00:07:05;1.014;-0.018;0.082;0.2028072476387024;0.0073303827084600925;0.0073303827084600925
01:00:0A:00:00:00:00;1725062826;31/08/24;00:07:06;1.021;0.001;0.096;0.18570303916931152;-0.01710422709584236;-0.0012217304902151227
01:00:0A:00:00:00:00;1725062827;31/08/24;00:07:07;1.025;-0.011;0.077;0.1576032191514969;-0.012217304669320583;0.036651913076639175
01:00:0A:00:00:00:00;1725062828;31/08/24;00:07:08;1.016;-0.013;0.087;0.15393804013729095;0.004886921960860491;0.010995574295520782
01:00:0A:00:00:00:00;1725062829;31/08/24;00:07:09;1.005;0.001;0.087;0.1417207270860672;-0.009773843921720982;-0.004886921960860491
01:00:0A:00:00:00:00;1725062830;31/08/24;00:07:10;1.004;-0.007;0.075;0.11972958594560623;-0.013439035043120384;0.025656338781118393
01:00:0A:00:00:00:00;1725062831;31/08/24;00:07:11;1.008;-0.009;0.084;0.11850785464048386;-0.013439035043120384;-0.006108652334660292
01:00:0A:00:00:00:00;1725062832;31/08/24;00:07:12;1.013;0.001;0.083;0.10384709388017654;-0.028099799528717995;0.004886921960860491
01:00:0A:00:00:00:00;1725062833;31/08/24;00:07:13;1.021;-0.012;0.081;0.09285151958465576;-0.012217304669320583;0.014660765416920185
01:00:0A:00:00:00:00;1725062834;31/08/24;00:07:14;1.022;-0.013;0.09;0.09162978082895279;-0.0073303827084600925;-0.00855211354792118
01:00:0A:00:00:00:00;1725062835;31/08/24;00:07:15;1.022;0.0;0.082;0.07696902006864548;-0.009773843921720982;0.014660765416920185
01:00:0A:00:00:00:00;1725062836;31/08/24;00:07:16;1.019;-0.01;0.082;0.06841690838336945;0.0073303827084600925;0.018325956538319588
01:00:0A:00:00:00:00;1725062837;31/08/24;00:07:17;1.01;-0.009;0.08;0.07208210229873657;-0.0036651913542300463;-0.0012217304902151227
01:00:0A:00:00:00:00;1725062838;31/08/24;00:07:18;1.008;-0.002;0.079;0.06108652427792549;-0.015882495790719986;0.00855211354792118
01:00:0A:00:00:00:00;1725062839;31/08/24;00:07:19;1.01;-0.008;0.078;0.05497787147760391;-0.0073303827084600925;0.013439035043120384
01:00:0A:00:00:00:00;1725062840;31/08/24;00:07:20;1.013;-0.007;0.081;0.05619959905743599;-0.01710422709584236;-0.0073303827084600925
01:00:0A:00:00:00:00;1725062841;31/08/24;00:07:21;1.013;-0.006;0.077;0.045204028487205505;-0.02321287989616394;0.014660765416920185
01:00:0A:00:00:00:00;1725062842;31/08/24;00:07:22;1.016;-0.008;0.085;0.04398229718208313;-0.012217304669320583;0.0073303827084600925
01:00:0A:00:00:00:00;1725062843;31/08/24;00:07:23;1.021;-0.007;0.087;0.042760565876960754;-0.010995574295520782;-0.004886921960860491
01:00:0A:00:00:00:00;1725062844;31/08/24;00:07:24;1.02;-0.002;0.081;0.03787364438176155;0.0;0.004886921960860491
01:00:0A:00:00:00:00;1725062845;31/08/24;00:07:25;1.016;-0.01;0.079;0.03420845419168472;-0.006108652334660292;0.006108652334660292
01:00:0A:00:00:00:00;1725062846;31/08/24;00:07:26;1.012;-0.01;0.083;0.03298672288656235;-0.012217304669320583;0.0
01:00:0A:00:00:00:00;1725062847;31/08/24;00:07:27;1.01;-0.006;0.08;0.02932153083384037;-0.01710422709584236;0.0024434609804302454
01:00:0A:00:00:00:00;1725062848;31/08/24;00:07:28;1.015;-0.011;0.082;0.02687807008624077;0.0012217304902151227;0.0073303827084600925
01:00:0A:00:00:00:00;1725062849;31/08/24;00:07:29;1.016;-0.008;0.081;0.024434609338641167;-0.02076941914856434;0.0024434609804302454
01:00:0A:00:00:00:00;1725062850;31/08/24;00:07:30;1.016;-0.009;0.081;0.019547687843441963;-0.019547687843441963;0.004886921960860491
01:00:0A:00:00:00:00;1725062851;31/08/24;00:07:31;1.014;-0.009;0.083;0.015882495790719986;-0.00855211354792118;0.015882495790719986
01:00:0A:00:00:00:00;1725062852;31/08/24;00:07:32;1.013;-0.004;0.083;0.018325956538319588;-0.006108652334660292;-0.004886921960860491
01:00:0A:00:00:00:00;1725062853;31/08/24;00:07:33;1.016;-0.006;0.08;0.010995574295520782;-0.015882495790719986;0.004886921960860491
01:00:0A:00:00:00:00;1725062854;31/08/24;00:07:34;1.018;-0.009;0.079;0.009773843921720982;-0.00855211354792118;0.0036651913542300463
01:00:0A:00:00:00:00;1725062855;31/08/24;00:07:35;1.012;-0.01;0.083;0.00855211354792118;-0.014660765416920185;0.0
01:00:0A:00:00:00:00;1725062856;31/08/24;00:07:36;1.01;-0.006;0.081;0.006108652334660292;-0.014660765416920185;-0.0012217304902151227
01:00:0A:00:00:00:00;1725062857;31/08/24;00:07:37;1.013;-0.011;0.082;0.0036651913542300463;-0.010995574295520782;0.0024434609804302454
01:00:0A:00:00:00:00;1725062858;31/08/24;00:07:38;1.019;-0.011;0.084;0.0012217304902151227;-0.0073303827084600925;0.0073303827084600925
01:00:0A:00:00:00:00;1725062859;31/08/24;00:07:39;1.02;-0.004;0.08;-0.0012217304902151227;-0.009773843921720982;0.0073303827084600925
01:00:0A:00:00:00:00;1725062860;31/08/24;00:07:40;1.014;-0.011;0.08;-0.0024434609804302454;-0.0073303827084600925;0.004886921960860491
01:00:0A:00:00:00:00;1725062861;31/08/24;00:07:41;1.011;-0.009;0.081;-0.0024434609804302454;-0.013439035043120384;-0.0024434609804302454
01:00:0A:00:00:00:00;1725062862;31/08/24;00:07:42;1.016;-0.007;0.081;-0.004886921960860491;-0.013439035043120384;0.0036651913542300463
01:00:0A:00:00:00:00;1725062863;31/08/24;00:07:43;1.016;-0.009;0.082;-0.0073303827084600925;-0.0073303827084600925;0.0024434609804302454
01:00:0A:00:00:00:00;1725062864;31/08/24;00:07:44;1.014;-0.008;0.081;-0.006108652334660292;-0.0073303827084600925;-0.004886921960860491
01:00:0A:00:00:00:00;1725062865;31/08/24;00:07:45;1.01;-0.01;0.08;-0.009773843921720982;-0.013439035043120384;0.006108652334660292
01:00:0A:00:00:00:00;1725062866;31/08/24;00:07:46;1.013;-0.008;0.081;-0.010995574295520782;-0.01710422709584236;0.0012217304902151227
01:00:0A:00:00:00:00;1725062867;31/08/24;00:07:47;1.018;-0.01;0.082;-0.012217304669320583;-0.01710422709584236;0.0
01:00:0A:00:00:00:00;1725062868;31/08/24;00:07:48;1.019;-0.01;0.084;-0.014660765416920185;-0.0073303827084600925;0.004886921960860491
01:00:0A:00:00:00:00;1725062869;31/08/24;00:07:49;1.015;-0.01;0.079;-0.014660765416920185;-0.004886921960860491;0.0036651913542300463
01:00:0A:00:00:00:00;1725062870;31/08/24;00:07:50;1.011;-0.008;0.081;-0.014660765416920185;-0.013439035043120384;0.004886921960860491
01:00:0A:00:00:00:00;1725062871;31/08/24;00:07:51;1.016;-0.006;0.08;-0.015882495790719986;-0.019547687843441963;-0.0012217304902151227
01:00:0A:00:00:00:00;1725062872;31/08/24;00:07:52;1.018;-0.011;0.085;-0.01710422709584236;-0.010995574295520782;0.0036651913542300463
01:00:0A:00:00:00:00;1725062873;31/08/24;00:07:53;1.015;-0.007;0.081;-0.01710422709584236;-0.006108652334660292;0.0012217304902151227
01:00:0A:00:00:00:00;1725062874;31/08/24;00:07:54;1.012;-0.011;0.081;-0.01710422709584236;-0.009773843921720982;-0.0024434609804302454
01:00:0A:00:00:00:00;1725062875;31/08/24;00:07:55;1.013;-0.012;0.079;-0.01710422709584236;-0.018325956538319588;0.0024434609804302454
01:00:0A:00:00:00:00;1725062876;31/08/24;00:07:56;1.016;-0.009;0.083;-0.01710422709584236;-0.013439035043120384;0.0036651913542300463
01:00:0A:00:00:00:00;1725062877;31/08/24;00:07:57;1.016;-0.011;0.081;-0.01710422709584236;-0.009773843921720982;0.0073303827084600925
01:00:0A:00:00:00:00;1725062878;31/08/24;00:07:58;1.015;-0.01;0.081;-0.015882495790719986;-0.0036651913542300463;0.0
01:00:0A:00:00:00:00;1725062879;31/08/24;00:07:59;1.014;-0.01;0.078;-0.015882495790719986;-0.013439035043120384;0.0
01:00:0A:00:00:00:00;1725062880;31/08/24;00:08:00;1.014;-0.008;0.081;-0.015882495790719986;-0.013439035043120384;0.0036651913542300463
01:00:0A:00:00:00:00;1725062881;31/08/24;00:08:01;1.016;-0.008;0.081;-0.015882495790719986;-0.015882495790719986;0.0
01:00:0A:00:00:00:00;1725062882;31/08/24;00:08:02;1.016;-0.01;0.082;-0.015882495790719986;-0.00855211354792118;0.0036651913542300463
01:00:0A:00:00:00:00;1725062883;31/08/24;00:08:03;1.015;-0.008;0.08;-0.014660765416920185;-0.012217304669320583;-0.0024434609804302454
01:00:0A:00:00:00:00;1725062884;31/08/24;00:08:04;1.014;-0.01;0.081;-0.014660765416920185;-0.009773843921720982;0.0
01:00:0A:00:00:00:00;1725062885;31/08/24;00:08:05;1.016;-0.009;0.081;-0.014660765416920185;-0.014660765416920185;0.0012217304902151227
01:00:0A:00:00:00:00;1725062886;31/08/24;00:08:06;1.016;-0.01;0.081;-0.015882495790719986;-0.00855211354792118;0.004886921960860491
01:00:0A:00:00:00:00;1725062887;31/08/24;00:08:07;1.012;-0.01;0.08;-0.015882495790719986;-0.010995574295520782;0.004886921960860491
01:00:0A:00:00:00:00;1725062888;31/08/24;00:08:08;1.01;-0.007;0.08;-0.014660765416920185;-0.010995574295520782;-0.0012217304902151227
01:00:0A:00:00:00:00;1725062889;31/08/24;00:08:09;1.014;-0.01;0.081;-0.015882495790719986;-0.018325956538319588;0.0024434609804302454
01:00:0A:00:00:00:00;1725062890;31/08/24;00:08:10;1.016;-0.008;0.079;-0.014660765416920185;-0.012217304669320583;0.0012217304902151227
01:00:0A:00:00:00:00;1725062891;31/08/24;00:08:11;1.017;-0.009;0.081;-0.015882495790719986;-0.013439035043120384;0.0036651913542300463
01:00:0A:00:00:00:00;1725062892;31/08/24;00:08:12;1.016;-0.01;0.081;-0.015882495790719986;-0.009773843921720982;0.004886921960860491
01:00:0A:00:00:00:00;1725062893;31/08/24;00:08:13;1.016;-0.008;0.081;-0.014660765416920185;-0.00855211354792118;-0.0012217304902151227
01:00:0A:00:00:00:00;1725062894;31/08/24;00:08:14;1.015;-0.01;0.081;-0.015882495790719986;-0.0073303827084600925;0.0024434609804302454
01:00:0A:00:00:00:00;1725062895;31/08/24;00:08:15;1.021;-0.013;0.086;-0.030543262138962746;-0.040317103266716;-0.019547687843441963
01:00:0A:00:00:00:00;1725062896;31/08/24;00:08:16;1.013;0.059;0.019;-0.12461651116609573;-0.051312677562236786;-0.04642575979232788
01:00:0A:00:00:00:00;1725062897;31/08/24;00:08:17;1.013;0.069;0.024;-0.1869247555732727;-0.004886921960860491;0.0354301817715168
01:00:0A:00:00:00:00;1725062898;31/08/24;00:08:18;1.016;0.005;0.056;-0.20402899384498596;0.021991148591041565;0.07208210229873657
01:00:0A:00:00:00:00;1725062899;31/08/24;00:08:19;1.013;-0.038;0.09;-0.1576032191514969;0.00855211354792118;-0.028099799528717995
01:00:0A:00:00:00:00;1725062900;31/08/24;00:08:20;1.014;0.018;0.086;-0.15027284622192383;-0.04153883829712868;-0.05619959905743599
01:00:0A:00:00:00:00;1725062901;31/08/24;00:08:21;1.017;0.007;0.066;-0.17959438264369965;-0.021991148591041565;0.05253440886735916
01:00:0A:00:00:00:00;1725062902;31/08/24;00:08:22;1.016;-0.035;0.078;-0.14905111491680145;0.014660765416920185;-0.010995574295520782
01:00:0A:00:00:00:00;1725062903;31/08/24;00:08:23;1.022;0.008;0.093;-0.13439035415649414;-0.014660765416920185;-0.04886921867728233
01:00:0A:00:00:00:00;1725062904;31/08/24;00:08:24;1.012;0.021;0.085;-0.19303341209888458;0.006108652334660292;-0.02687807008624077
01:00:0A:00:00:00:00;1725062905;31/08/24;00:08:25;1.011;0.027;0.114;-0.2382374405860901;-0.00855211354792118;-0.0073303827084600925
01:00:0A:00:00:00:00;1725062906;31/08/24;00:08:26;1.014;0.01;0.097;-0.23579397797584534;-0.04886921867728233;-0.00855211354792118
01:00:0A:00:00:00:00;1725062907;31/08/24;00:08:27;1.016;0.007;0.077;-0.21868975460529327;-0.03298672288656235;0.0036651913542300463
01:00:0A:00:00:00:00;1725062908;31/08/24;00:08:28;1.016;-0.017;0.075;-0.21013763546943665;0.0012217304902151227;0.018325956538319588
01:00:0A:00:00:00:00;1725062909;31/08/24;00:08:29;1.015;-0.013;0.095;-0.1771509200334549;0.0;-0.025656338781118393
01:00:0A:00:00:00:00;1725062910;31/08/24;00:08:30;1.014;-0.003;0.095;-0.161268413066864;-0.015882495790719986;-0.013439035043120384
01:00:0A:00:00:00:00;1725062911;31/08/24;00:08:31;1.012;0.0;0.116;-0.10506881773471832;0.006108652334660292;-0.013439035043120384
01:00:0A:00:00:00:00;1725062912;31/08/24;00:08:32;1.012;-0.003;0.121;-0.09040805697441101;-0.019547687843441963;0.015882495790719986
01:00:0A:00:00:00:00;1725062913;31/08/24;00:08:33;1.012;-0.03;0.108;-0.08918632566928864;-0.03176499158143997;0.02321287989616394
01:00:0A:00:00:00:00;1725062914;31/08/24;00:08:34;1.014;-0.039;0.086;-0.09407324343919754;-0.019547687843441963;-0.02321287989616394
01:00:0A:00:00:00:00;1725062915;31/08/24;00:08:35;1.014;-0.017;0.091;-0.1270599663257599;-0.0012217304902151227;-0.013439035043120384
01:00:0A:00:00:00:00;1725062916;31/08/24;00:08:36;1.014;-0.011;0.104;-0.09651670604944229;-0.004886921960860491;-0.010995574295520782
01:00:0A:00:00:00:00;1725062917;31/08/24;00:08:37;1.013;-0.019;0.11;-0.07819075137376785;-0.012217304669320583;0.018325956538319588
01:00:0A:00:00:00:00;1725062918;31/08/24;00:08:38;1.014;-0.038;0.087;-0.07330382615327835;-0.03298672288656235;0.00855211354792118
01:00:0A:00:00:00:00;1725062919;31/08/24;00:08:39;1.016;-0.039;0.081;-0.06352998316287994;-0.0024434609804302454;-0.006108652334660292
01:00:0A:00:00:00:00;1725062920;31/08/24;00:08:40;1.013;-0.018;0.107;-0.02932153083384037;0.015882495790719986;-0.02932153083384037
01:00:0A:00:00:00:00;1725062921;31/08/24;00:08:41;1.01;0.0;0.126;0.004886921960860491;-0.00855211354792118;0.0024434609804302454
01:00:0A:00:00:00:00;1725062922;31/08/24;00:08:42;1.014;-0.017;0.105;0.05619959905743599;-0.0354301817715168;0.018325956538319588
01:00:0A:00:00:00:00;1725062923;31/08/24;00:08:43;1.014;-0.028;0.084;0.04764748737215996;-0.025656338781118393;0.01710422709584236
01:00:0A:00:00:00:00;1725062924;31/08/24;00:08:44;1.015;-0.024;0.087;0.030543262138962746;0.009773843921720982;-0.013439035043120384
01:00:0A:00:00:00:00;1725062925;31/08/24;00:08:45;1.012;0.0;0.119;0.06475171446800232;0.021991148591041565;-0.01710422709584236
01:00:0A:00:00:00:00;1725062926;31/08/24;00:08:46;1.01;0.0;0.122;0.080634206533432;-0.03420845419168472;0.03787364438176155
01:00:0A:00:00:00:00;1725062927;31/08/24;00:08:47;1.014;-0.023;0.099;0.1111774742603302;-0.03420845419168472;0.039095375686883926
01:00:0A:00:00:00:00;1725062928;31/08/24;00:08:48;1.014;-0.04;0.084;0.05375614017248154;-0.015882495790719986;0.0
01:00:0A:00:00:00:00;1725062929;31/08/24;00:08:49;1.014;-0.019;0.089;0.0036651913542300463;0.0073303827084600925;-0.03176499158143997
01:00:0A:00:00:00:00;1725062930;31/08/24;00:08:50;1.013;0.013;0.111;0.021991148591041565;-0.004886921960860491;-0.009773843921720982
01:00:0A:00:00:00:00;1725062931;31/08/24;00:08:51;1.014;-0.003;0.099;0.04153883829712868;-0.03420845419168472;0.040317103266716
01:00:0A:00:00:00:00;1725062932;31/08/24;00:08:52;1.015;-0.025;0.081;0.03298672288656235;-0.01710422709584236;0.01710422709584236
01:00:0A:00:00:00:00;1725062933;31/08/24;00:08:53;1.016;-0.02;0.083;-0.0036651913542300463;0.0;-0.014660765416920185
01:00:0A:00:00:00:00;1725062934;31/08/24;00:08:54;1.013;0.001;0.101;0.006108652334660292;0.006108652334660292;-0.021991148591041565
01:00:0A:00:00:00:00;1725062935;31/08/24;00:08:55;1.013;0.005;0.109;0.025656338781118393;-0.015882495790719986;0.02321287989616394
01:00:0A:00:00:00:00;1725062936;31/08/24;00:08:56;1.014;-0.016;0.092;0.03787364438176155;-0.02687807008624077;0.03298672288656235
01:00:0A:00:00:00:00;1725062937;31/08/24;00:08:57;1.014;-0.03;0.083;0.00855211354792118;-0.01710422709584236;0.0
01:00:0A:00:00:00:00;1725062938;31/08/24;00:08:58;1.014;-0.009;0.088;-0.006108652334660292;0.0024434609804302454;-0.025656338781118393
01:00:0A:00:00:00:00;1725062939;31/08/24;00:08:59;1.013;0.017;0.106;0.015882495790719986;-0.0036651913542300463;-0.0073303827084600925
01:00:0A:00:00:00:00;1725062940;31/08/24;00:09:00;1.013;-0.01;0.093;0.02687807008624077;-0.024434609338641167;0.039095375686883926
01:00:0A:00:00:00:00;1725062941;31/08/24;00:09:01;1.014;-0.023;0.088;0.01710422709584236;-0.014660765416920185;0.013439035043120384
01:00:0A:00:00:00:00;1725062942;31/08/24;00:09:02;1.015;-0.012;0.087;-0.0036651913542300463;-0.006108652334660292;-0.019547687843441963
01:00:0A:00:00:00:00;1725062943;31/08/24;00:09:03;1.014;0.008;0.101;0.0024434609804302454;0.0012217304902151227;-0.019547687843441963
01:00:0A:00:00:00:00;1725062944;31/08/24;00:09:04;1.014;0.004;0.098;0.0;-0.024434609338641167;0.03176499158143997
01:00:0A:00:00:00:00;1725062945;31/08/24;00:09:05;1.014;-0.019;0.089;0.021991148591041565;-0.014660765416920185;0.013439035043120384
01:00:0A:00:00:00:00;1725062946;31/08/24;00:09:06;1.014;-0.018;0.083;0.0012217304902151227;-0.013439035043120384;-0.0036651913542300463
01:00:0A:00:00:00:00;1725062947;31/08/24;00:09:07;1.014;-0.006;0.092;-0.0012217304902151227;0.0024434609804302454;-0.019547687843441963
01:00:0A:00:00:00:00;1725062948;31/08/24;00:09:08;1.013;0.006;0.098;-0.0024434609804302454;-0.015882495790719986;0.006108652334660292
01:00:0A:00:00:00:00;1725062949;31/08/24;00:09:09;1.013;-0.018;0.09;0.0024434609804302454;-0.018325956538319588;0.02932153083384037
01:00:0A:00:00:00:00;1725062950;31/08/24;00:09:10;1.015;-0.022;0.085;0.0073303827084600925;-0.014660765416920185;-0.0024434609804302454
01:00:0A:00:00:00:00;1725062951;31/08/24;00:09:11;1.015;-0.014;0.087;-0.014660765416920185;-0.0073303827084600925;-0.006108652334660292
01:00:0A:00:00:00:00;1725062952;31/08/24;00:09:12;1.014;0.0;0.093;0.004886921960860491;-0.006108652334660292;-0.015882495790719986
01:00:0A:00:00:00:00;1725062953;31/08/24;00:09:13;1.015;-0.001;0.093;0.004886921960860491;-0.01710422709584236;0.02932153083384037
01:00:0A:00:00:00:00;1725062954;31/08/24;00:09:14;1.014;-0.024;0.083;0.02076941914856434;-0.013439035043120384;0.006108652334660292
01:00:0A:00:00:00:00;1725062955;31/08/24;00:09:15;1.014;-0.016;0.087;0.012217304669320583;-0.004886921960860491;-0.004886921960860491
01:00:0A:00:00:00:00;1725062956;31/08/24;00:09:16;1.015;-0.006;0.09;0.0024434609804302454;-0.010995574295520782;-0.0073303827084600925
01:00:0A:00:00:00:00;1725062957;31/08/24;00:09:17;1.014;0.003;0.095;0.01710422709584236;-0.006108652334660292;0.0
01:00:0A:00:00:00:00;1725062958;31/08/24;00:09:18;1.015;-0.014;0.086;0.012217304669320583;-0.021991148591041565;0.02321287989616394
01:00:0A:00:00:00:00;1725062959;31/08/24;00:09:19;1.015;-0.017;0.086;0.019547687843441963;-0.0073303827084600925;0.0024434609804302454
01:00:0A:00:00:00:00;1725062960;31/08/24;00:09:20;1.015;-0.014;0.088;0.004886921960860491;-0.013439035043120384;0.0
01:00:0A:00:00:00:00;1725062961;31/08/24;00:09:21;1.013;0.0;0.092;0.009773843921720982;-0.0024434609804302454;-0.010995574295520782
01:00:0A:00:00:00:00;1725062962;31/08/24;00:09:22;1.014;-0.003;0.092;0.004886921960860491;-0.018325956538319588;0.019547687843441963
01:00:0A:00:00:00:00;1725062963;31/08/24;00:09:23;1.015;-0.014;0.088;0.02321287989616394;-0.010995574295520782;0.0012217304902151227
01:00:0A:00:00:00:00;1725062964;31/08/24;00:09:24;1.016;-0.015;0.088;0.009773843921720982;-0.013439035043120384;0.006108652334660292
01:00:0A:00:00:00:00;1725062965;31/08/24;00:09:25;1.015;-0.016;0.087;0.00855211354792118;-0.0073303827084600925;-0.004886921960860491
01:00:0A:00:00:00:00;1725062966;31/08/24;00:09:26;1.015;-0.002;0.093;0.012217304669320583;-0.009773843921720982;-0.0036651913542300463
01:00:0A:00:00:00:00;1725062967;31/08/24;00:09:27;1.014;-0.009;0.09;0.014660765416920185;-0.014660765416920185;0.013439035043120384
01:00:0A:00:00:00:00;1725062968;31/08/24;00:09:28;1.014;-0.013;0.086;0.018325956538319588;-0.013439035043120384;0.0073303827084600925
01:00:0A:00:00:00:00;1725062969;31/08/24;00:09:29;1.015;-0.016;0.086;0.012217304669320583;-0.012217304669320583;0.0024434609804302454
01:00:0A:00:00:00:00;1725062970;31/08/24;00:09:30;1.015;-0.013;0.085;0.0073303827084600925;-0.00855211354792118;-0.0024434609804302454
01:00:0A:00:00:00:00;1725062971;31/08/24;00:09:31;1.014;-0.004;0.089;0.012217304669320583;-0.009773843921720982;0.0
01:00:0A:00:00:00:00;1725062972;31/08/24;00:09:32;1.014;-0.01;0.086;0.010995574295520782;-0.013439035043120384;0.014660765416920185
01:00:0A:00:00:00:00;1725062973;31/08/24;00:09:33;1.014;-0.02;0.087;0.006108652334660292;-0.012217304669320583;0.00855211354792118
01:00:0A:00:00:00:00;1725062974;31/08/24;00:09:34;1.013;-0.017;0.085;-0.006108652334660292;-0.010995574295520782;-0.0012217304902151227
01:00:0A:00:00:00:00;1725062975;31/08/24;00:09:35;1.015;-0.015;0.09;-0.009773843921720982;-0.00855211354792118;-0.004886921960860491
01:00:0A:00:00:00:00;1725062976;31/08/24;00:09:36;1.015;-0.006;0.087;-0.00855211354792118;-0.010995574295520782;0.0012217304902151227
01:00:0A:00:00:00:00;1725062977;31/08/24;00:09:37;1.014;-0.017;0.085;-0.019547687843441963;-0.014660765416920185;0.014660765416920185
01:00:0A:00:00:00:00;1725062978;31/08/24;00:09:38;1.015;-0.018;0.083;-0.018325956538319588;-0.010995574295520782;-0.010995574295520782
01:00:0A:00:00:00:00;1725062979;31/08/24;00:09:39;1.014;-0.013;0.09;-0.03176499158143997;-0.00855211354792118;0.0
01:00:0A:00:00:00:00;1725062980;31/08/24;00:09:40;1.015;-0.007;0.09;-0.012217304669320583;-0.009773843921720982;-0.0036651913542300463
01:00:0A:00:00:00:00;1725062981;31/08/24;00:09:41;1.014;-0.009;0.089;-0.00855211354792118;-0.018325956538319588;0.012217304669320583
01:00:0A:00:00:00:00;1725062982;31/08/24;00:09:42;1.014;-0.019;0.081;-0.009773843921720982;-0.015882495790719986;0.0012217304902151227
01:00:0A:00:00:00:00;1725062983;31/08/24;00:09:43;1.016;-0.013;0.085;-0.02687807008624077;-0.0073303827084600925;-0.0024434609804302454
01:00:0A:00:00:00:00;1725062984;31/08/24;00:09:44;1.015;-0.011;0.087;-0.015882495790719986;-0.00855211354792118;-0.00855211354792118
01:00:0A:00:00:00:00;1725062985;31/08/24;00:09:45;1.015;0.0;0.097;0.009773843921720982;-0.00855211354792118;0.004886921960860491
01:00:0A:00:00:00:00;1725062986;31/08/24;00:09:46;1.014;-0.012;0.084;0.00855211354792118;-0.02687807008624077;0.019547687843441963
01:00:0A:00:00:00:00;1725062987;31/08/24;00:09:47;1.015;-0.022;0.077;-0.004886921960860491;-0.00855211354792118;0.0024434609804302454
01:00:0A:00:00:00:00;1725062988;31/08/24;00:09:48;1.015;-0.012;0.084;-0.02321287989616394;-0.0036651913542300463;-0.012217304669320583
01:00:0A:00:00:00:00;1725062989;31/08/24;00:09:49;1.014;0.0;0.098;0.0;0.0012217304902151227;-0.0073303827084600925
01:00:0A:00:00:00:00;1725062990;31/08/24;00:09:50;1.015;-0.008;0.092;0.0012217304902151227;-0.02932153083384037;0.025656338781118393
01:00:0A:00:00:00:00;1725062991;31/08/24;00:09:51;1.015;-0.021;0.079;0.014660765416920185;-0.013439035043120384;0.0073303827084600925
01:00:0A:00:00:00:00;1725062992;31/08/24;00:09:52;1.014;-0.014;0.082;0.0;-0.00855211354792118;-0.0073303827084600925
01:00:0A:00:00:00:00;1725062993;31/08/24;00:09:53;1.014;-0.005;0.088;0.010995574295520782;-0.0012217304902151227;-0.0073303827084600925
01:00:0A:00:00:00:00;1725062994;31/08/24;00:09:54;1.014;0.0;0.094;0.02076941914856434;-0.013439035043120384;0.012217304669320583
01:00:0A:00:00:00:00;1725062995;31/08/24;00:09:55;1.015;-0.017;0.082;0.024434609338641167;-0.021991148591041565;0.02076941914856434
01:00:0A:00:00:00:00;1725062996;31/08/24;00:09:56;1.016;-0.025;0.077;0.0073303827084600925;-0.014660765416920185;0.006108652334660292
01:00:0A:00:00:00:00;1725062997;31/08/24;00:09:57;1.014;-0.017;0.081;-0.0036651913542300463;0.0;-0.01710422709584236
01:00:0A:00:00:00:00;1725062998;31/08/24;00:09:58;1.013;0.001;0.094;0.0024434609804302454;-0.004886921960860491;-0.006108652334660292
01:00:0A:00:00:00:00;1725062999;31/08/24;00:09:59;1.013;-0.012;0.082;-0.0073303827084600925;-0.03298672288656235;0.028099799528717995
01:00:0A:00:00:00:00;1725063000;31/08/24;00:10:00;1.014;-0.018;0.079;0.01710422709584236;-0.006108652334660292;-0.009773843921720982
01:00:0A:00:00:00:00;1725063001;31/08/24;00:10:01;1.014;-0.007;0.087;0.0073303827084600925;-0.012217304669320583;0.0
01:00:0A:00:00:00:00;1725063002;31/08/24;00:10:02;1.015;-0.01;0.086;0.012217304669320583;-0.012217304669320583;0.0073303827084600925
01:00:0A:00:00:00:00;1725063003;31/08/24;00:10:03;1.014;-0.011;0.084;0.02076941914856434;-0.00855211354792118;0.0024434609804302454
01:00:0A:00:00:00:00;1725063004;31/08/24;00:10:04;1.015;-0.008;0.086;0.025656338781118393;-0.010995574295520782;0.0036651913542300463
01:00:0A:00:00:00:00;1725063005;31/08/24;00:10:05;1.015;-0.013;0.084;0.02076941914856434;-0.015882495790719986;0.010995574295520782
01:00:0A:00:00:00:00;1725063006;31/08/24;00:10:06;1.014;-0.015;0.081;0.021991148591041565;-0.00855211354792118;0.0012217304902151227
01:00:0A:00:00:00:00;1725063007;31/08/24;00:10:07;1.014;-0.008;0.086;0.024434609338641167;-0.004886921960860491;-0.0024434609804302454
01:00:0A:00:00:00:00;1725063008;31/08/24;00:10:08;1.015;-0.007;0.084;0.024434609338641167;-0.013439035043120384;0.00855211354792118
01:00:0A:00:00:00:00;1725063009;31/08/24;00:10:09;1.013;-0.011;0.085;0.02687807008624077;-0.013439035043120384;0.00855211354792118
01:00:0A:00:00:00:00;1725063010;31/08/24;00:10:10;1.015;-0.014;0.081;0.02321287989616394;-0.012217304669320583;0.0024434609804302454
01:00:0A:00:00:00:00;1725063011;31/08/24;00:10:11;1.015;-0.011;0.085;0.02076941914856434;-0.0073303827084600925;-0.0012217304902151227
01:00:0A:00:00:00:00;1725063012;31/08/24;00:10:12;1.015;-0.006;0.083;0.02321287989616394;-0.009773843921720982;0.0036651913542300463
01:00:0A:00:00:00:00;1725063013;31/08/24;00:10:13;1.015;-0.01;0.084;0.021991148591041565;-0.012217304669320583;0.00855211354792118
01:00:0A:00:00:00:00;1725063014;31/08/24;00:10:14;1.014;-0.012;0.083;0.021991148591041565;-0.013439035043120384;0.0036651913542300463
01:00:0A:00:00:00:00;1725063015;31/08/24;00:10:15;1.015;-0.011;0.084;0.02076941914856434;-0.009773843921720982;0.0
01:00:0A:00:00:00:00;1725063016;31/08/24;00:10:16;1.015;-0.009;0.083;0.01710422709584236;-0.014660765416920185;0.0024434609804302454
01:00:0A:00:00:00:00;1725063017;31/08/24;00:10:17;1.014;-0.007;0.085;0.02076941914856434;-0.0073303827084600925;0.006108652334660292
01:00:0A:00:00:00:00;1725063018;31/08/24;00:10:18;1.014;-0.01;0.084;0.019547687843441963;-0.018325956538319588;0.004886921960860491
01:00:0A:00:00:00:00;1725063019;31/08/24;00:10:19;1.015;-0.017;0.083;0.013439035043120384;-0.010995574295520782;0.0012217304902151227
01:00:0A:00:00:00:00;1725063020;31/08/24;00:10:20;1.014;-0.009;0.083;0.0036651913542300463;-0.014660765416920185;0.0
01:00:0A:00:00:00:00;1725063021;31/08/24;00:10:21;1.015;-0.006;0.085;0.0073303827084600925;-0.0073303827084600925;0.0
01:00:0A:00:00:00:00;1725063022;31/08/24;00:10:22;1.015;-0.01;0.082;0.0024434609804302454;-0.019547687843441963;0.012217304669320583
01:00:0A:00:00:00:00;1725063023;31/08/24;00:10:23;1.014;-0.014;0.081;0.0073303827084600925;-0.010995574295520782;0.0036651913542300463
01:00:0A:00:00:00:00;1725063024;31/08/24;00:10:24;1.015;-0.011;0.084;-0.0012217304902151227;-0.013439035043120384;0.0012217304902151227
01:00:0A:00:00:00:00;1725063025;31/08/24;00:10:25;1.015;-0.011;0.082;0.0036651913542300463;-0.00855211354792118;0.0
01:00:0A:00:00:00:00;1725063026;31/08/24;00:10:26;1.015;-0.002;0.086;0.009773843921720982;-0.009773843921720982;-0.0036651913542300463
01:00:0A:00:00:00:00;1725063027;31/08/24;00:10:27;1.015;-0.008;0.083;0.004886921960860491;-0.01710422709584236;0.018325956538319588
01:00:0A:00:00:00:00;1725063028;31/08/24;00:10:28;1.014;-0.018;0.081;0.006108652334660292;-0.013439035043120384;0.0012217304902151227
01:00:0A:00:00:00:00;1725063029;31/08/24;00:10:29;1.014;-0.014;0.082;-0.0073303827084600925;-0.004886921960860491;-0.0073303827084600925
01:00:0A:00:00:00:00;1725063030;31/08/24;00:10:30;1.014;-0.001;0.088;0.0036651913542300463;-0.00855211354792118;-0.0073303827084600925
01:00:0A:00:00:00:00;1725063031;31/08/24;00:10:31;1.015;-0.004;0.086;0.0024434609804302454;-0.01710422709584236;0.018325956538319588
01:00:0A:00:00:00:00;1725063032;31/08/24;00:10:32;1.015;-0.016;0.082;0.009773843921720982;-0.013439035043120384;0.0073303827084600925
01:00:0A:00:00:00:00;1725063033;31/08/24;00:10:33;1.013;-0.011;0.082;-0.0012217304902151227;-0.00855211354792118;-0.004886921960860491
01:00:0A:00:00:00:00;1725063034;31/08/24;00:10:34;1.014;-0.006;0.088;-0.0012217304902151227;-0.004886921960860491;-0.006108652334660292
01:00:0A:00:00:00:00;1725063035;31/08/24;00:10:35;1.014;0.0;0.09;0.006108652334660292;-0.012217304669320583;0.0073303827084600925
01:00:0A:00:00:00:00;1725063036;31/08/24;00:10:36;1.015;-0.014;0.084;0.004886921960860491;-0.019547687843441963;0.02076941914856434
01:00:0A:00:00:00:00;1725063037;31/08/24;00:10:37;1.015;-0.015;0.082;0.012217304669320583;-0.009773843921720982;-0.00855211354792118
01:00:0A:00:00:00:00;1725063038;31/08/24;00:10:38;1.014;-0.005;0.085;-0.0012217304902151227;-0.009773843921720982;0.0012217304902151227
01:00:0A:00:00:00:00;1725063039;31/08/24;00:10:39;1.014;0.0;0.088;0.012217304669320583;-0.00855211354792118;0.0
01:00:0A:00:00:00:00;1725063040;31/08/24;00:10:40;1.014;-0.008;0.087;0.009773843921720982;-0.018325956538319588;0.018325956538319588
01:00:0A:00:00:00:00;1725063041;31/08/24;00:10:41;1.015;-0.014;0.084;0.02076941914856434;-0.00855211354792118;0.0012217304902151227
01:00:0A:00:00:00:00;1725063042;31/08/24;00:10:42;1.015;-0.009;0.086;0.015882495790719986;-0.010995574295520782;0.0012217304902151227
01:00:0A:00:00:00:00;1725063043;31/08/24;00:10:43;1.016;-0.007;0.086;0.012217304669320583;-0.009773843921720982;-0.0012217304902151227
01:00:0A:00:00:00:00;1725063044;31/08/24;00:10:44;1.014;-0.002;0.086;0.012217304669320583;-0.013439035043120384;0.00855211354792118
01:00:0A:00:00:00:00;1725063045;31/08/24;00:10:45;1.015;-0.013;0.084;0.014660765416920185;-0.012217304669320583;0.012217304669320583
01:00:0A:00:00:00:00;1725063046;31/08/24;00:10:46;1.015;-0.01;0.084;0.01710422709584236;-0.00855211354792118;0.0012217304902151227
01:00:0A:00:00:00:00;1725063047;31/08/24;00:10:47;1.014;-0.01;0.087;0.014660765416920185;-0.00855211354792118;0.0036651913542300463
01:00:0A:00:00:00:00;1725063048;31/08/24;00:10:48;1.014;-0.007;0.086;0.018325956538319588;-0.010995574295520782;0.0
01:00:0A:00:00:00:00;1725063049;31/08/24;00:10:49;1.014;-0.007;0.087;0.02076941914856434;-0.010995574295520782;0.006108652334660292
01:00:0A:00:00:00:00;1725063050;31/08/24;00:10:50;1.015;-0.008;0.082;0.02321287989616394;-0.013439035043120384;0.004886921960860491
01:00:0A:00:00:00:00;1725063051;31/08/24;00:10:51;1.016;-0.01;0.084;0.02076941914856434;-0.009773843921720982;0.006108652334660292
01:00:0A:00:00:00:00;1725063052;31/08/24;00:10:52;1.014;-0.009;0.085;0.024434609338641167;-0.009773843921720982;-0.0012217304902151227
01:00:0A:00:00:00:00;1725063053;31/08/24;00:10:53;1.015;-0.001;0.089;0.02932153083384037;-0.00855211354792118;0.0036651913542300463
01:00:0A:00:00:00:00;1725063054;31/08/24;00:10:54;1.014;-0.008;0.087;0.03298672288656235;-0.01710422709584236;0.012217304669320583
01:00:0A:00:00:00:00;1725063055;31/08/24;00:10:55;1.015;-0.011;0.086;0.03420845419168472;-0.012217304669320583;0.009773843921720982
01:00:0A:00:00:00:00;1725063056;31/08/24;00:10:56;1.014;-0.014;0.083;0.02932153083384037;-0.012217304669320583;0.006108652334660292
01:00:0A:00:00:00:00;1725063057;31/08/24;00:10:57;1.015;-0.01;0.085;0.028099799528717995;-0.006108652334660292;-0.0024434609804302454
01:00:0A:00:00:00:00;1725063058;31/08/24;00:10:58;1.014;-0.002;0.085;0.02932153083384037;-0.010995574295520782;0.0036651913542300463
01:00:0A:00:00:00:00;1725063059;31/08/24;00:10:59;1.015;-0.007;0.087;0.03420845419168472;-0.009773843921720982;0.009773843921720982
01:00:0A:00:00:00:00;1725063060;31/08/24;00:11:00;1.014;-0.013;0.087;0.028099799528717995;-0.014660765416920185;0.010995574295520782
01:00:0A:00:00:00:00;1725063061;31/08/24;00:11:01;1.014;-0.016;0.083;0.021991148591041565;-0.010995574295520782;-0.0012217304902151227
01:00:0A:00:00:00:00;1725063062;31/08/24;00:11:02;1.015;-0.007;0.083;0.021991148591041565;-0.010995574295520782;-0.0073303827084600925
01:00:0A:00:00:00:00;1725063063;31/08/24;00:11:03;1.013;-0.003;0.085;0.02076941914856434;-0.009773843921720982;0.0073303827084600925
01:00:0A:00:00:00:00;1725063064;31/08/24;00:11:04;1.015;-0.011;0.085;0.021991148591041565;-0.012217304669320583;0.010995574295520782
01:00:0A:00:00:00:00;1725063065;31/08/24;00:11:05;1.014;-0.017;0.085;0.013439035043120384;-0.010995574295520782;0.006108652334660292
01:00:0A:00:00:00:00;1725063066;31/08/24;00:11:06;1.014;-0.013;0.085;0.006108652334660292;-0.012217304669320583;-0.0024434609804302454
01:00:0A:00:00:00:00;1725063067;31/08/24;00:11:07;1.015;-0.004;0.085;0.00855211354792118;-0.012217304669320583;-0.0024434609804302454
01:00:0A:00:00:00:00;1725063068;31/08/24;00:11:08;1.015;-0.005;0.084;0.00855211354792118;-0.010995574295520782;0.010995574295520782
01:00:0A:00:00:00:00;1725063069;31/08/24;00:11:09;1.015;-0.014;0.085;0.0073303827084600925;-0.012217304669320583;0.00855211354792118
01:00:0A:00:00:00:00;1725063070;31/08/24;00:11:10;1.015;-0.014;0.085;0.0012217304902151227;-0.00855211354792118;0.0012217304902151227
01:00:0A:00:00:00:00;1725063071;31/08/24;00:11:11;1.014;-0.01;0.086;0.0012217304902151227;-0.010995574295520782;-0.006108652334660292
01:00:0A:00:00:00:00;1725063072;31/08/24;00:11:12;1.015;-0.001;0.084;0.0024434609804302454;-0.014660765416920185;0.0024434609804302454
01:00:0A:00:00:00:00;1725063073;31/08/24;00:11:13;1.014;-0.009;0.085;0.004886921960860491;-0.012217304669320583;0.012217304669320583
01:00:0A:00:00:00:00;1725063074;31/08/24;00:11:14;1.014;-0.015;0.084;0.0024434609804302454;-0.009773843921720982;0.006108652334660292
01:00:0A:00:00:00:00;1725063075;31/08/24;00:11:15;1.015;-0.014;0.083;-0.0036651913542300463;-0.010995574295520782;-0.0012217304902151227
01:00:0A:00:00:00:00;1725063076;31/08/24;00:11:16;1.015;-0.003;0.084;0.0036651913542300463;-0.00855211354792118;-0.00855211354792118
01:00:0A:00:00:00:00;1725063077;31/08/24;00:11:17;1.015;-0.002;0.087;0.0024434609804302454;-0.012217304669320583;0.012217304669320583
01:00:0A:00:00:00:00;1725063078;31/08/24;00:11:18;1.015;-0.013;0.084;0.006108652334660292;-0.013439035043120384;0.00855211354792118
01:00:0A:00:00:00:00;1725063079;31/08/24;00:11:19;1.014;-0.013;0.084;0.0024434609804302454;-0.010995574295520782;0.0
01:00:0A:00:00:00:00;1725063080;31/08/24;00:11:20;1.015;-0.008;0.083;0.0036651913542300463;-0.010995574295520782;-0.0073303827084600925
01:00:0A:00:00:00:00;1725063081;31/08/24;00:11:21;1.015;0.0;0.085;0.006108652334660292;-0.012217304669320583;0.006108652334660292
01:00:0A:00:00:00:00;1725063082;31/08/24;00:11:22;1.015;-0.013;0.084;0.006108652334660292;-0.012217304669320583;0.014660765416920185
01:00:0A:00:00:00:00;1725063083;31/08/24;00:11:23;1.016;-0.013;0.085;0.00855211354792118;-0.009773843921720982;0.0
01:00:0A:00:00:00:00;1725063084;31/08/24;00:11:24;1.014;-0.008;0.084;0.004886921960860491;-0.012217304669320583;-0.0012217304902151227
01:00:0A:00:00:00:00;1725063085;31/08/24;00:11:25;1.014;-0.003;0.085;0.010995574295520782;-0.009773843921720982;0.0012217304902151227
01:00:0A:00:00:00:00;1725063086;31/08/24;00:11:26;1.014;-0.009;0.083;0.0073303827084600925;-0.013439035043120384;0.012217304669320583
01:00:0A:00:00:00:00;1725063087;31/08/24;00:11:27;1.014;-0.01;0.084;0.014660765416920185;-0.010995574295520782;-0.0012217304902151227
01:00:0A:00:00:00:00;1725063088;31/08/24;00:11:28;1.016;-0.008;0.081;0.00855211354792118;-0.012217304669320583;0.004886921960860491
01:00:0A:00:00:00:00;1725063089;31/08/24;00:11:29;1.015;-0.009;0.082;0.013439035043120384;-0.00855211354792118;0.0
01:00:0A:00:00:00:00;1725063090;31/08/24;00:11:30;1.014;-0.007;0.083;0.012217304669320583;-0.013439035043120384;0.0036651913542300463
01:00:0A:00:00:00:00;1725063091;31/08/24;00:11:31;1.015;-0.007;0.085;0.014660765416920185;-0.009773843921720982;0.006108652334660292
01:00:0A:00:00:00:00;1725063092;31/08/24;00:11:32;1.016;-0.013;0.082;0.010995574295520782;-0.013439035043120384;0.0073303827084600925
01:00:0A:00:00:00:00;1725063093;31/08/24;00:11:33;1.014;-0.011;0.082;0.010995574295520782;-0.00855211354792118;-0.0012217304902151227
01:00:0A:00:00:00:00;1725063094;31/08/24;00:11:34;1.015;-0.006;0.083;0.0073303827084600925;-0.012217304669320583;0.0024434609804302454
01:00:0A:00:00:00:00;1725063095;31/08/24;00:11:35;1.016;-0.009;0.081;0.0073303827084600925;-0.009773843921720982;0.004886921960860491
01:00:0A:00:00:00:00;1725063096;31/08/24;00:11:36;1.016;-0.01;0.084;0.006108652334660292;-0.012217304669320583;0.004886921960860491
01:00:0A:00:00:00:00;1725063097;31/08/24;00:11:37;1.015;-0.01;0.082;0.0036651913542300463;-0.009773843921720982;0.0024434609804302454
01:00:0A:00:00:00:00;1725063098;31/08/24;00:11:38;1.015;-0.012;0.083;-0.0012217304902151227;-0.010995574295520782;0.0036651913542300463
01:00:0A:00:00:00:00;1725063099;31/08/24;00:11:39;1.015;-0.008;0.081;-0.0012217304902151227;-0.013439035043120384;-0.0012217304902151227
01:00:0A:00:00:00:00;1725063100;31/08/24;00:11:40;1.016;-0.008;0.081;-0.0036651913542300463;-0.010995574295520782;0.006108652334660292
01:00:0A:00:00:00:00;1725063101;31/08/24;00:11:41;1.015;-0.011;0.081;-0.0036651913542300463;-0.010995574295520782;0.004886921960860491
01:00:0A:00:00:00:00;1725063102;31/08/24;00:11:42;1.016;-0.013;0.083;-0.00855211354792118;-0.0073303827084600925;0.0036651913542300463
01:00:0A:00:00:00:00;1725063103;31/08/24;00:11:43;1.016;-0.011;0.084;-0.014660765416920185;-0.012217304669320583;0.0012217304902151227
01:00:0A:00:00:00:00;1725063104;31/08/24;00:11:44;1.014;-0.008;0.081;-0.013439035043120384;-0.014660765416920185;-0.0012217304902151227
01:00:0A:00:00:00:00;1725063105;31/08/24;00:11:45;1.015;-0.008;0.081;-0.014660765416920185;-0.009773843921720982;0.006108652334660292
01:00:0A:00:00:00:00;1725063106;31/08/24;00:11:46;1.014;-0.012;0.081;-0.014660765416920185;-0.010995574295520782;0.0024434609804302454
01:00:0A:00:00:00:00;1725063107;31/08/24;00:11:47;1.015;-0.01;0.082;-0.018325956538319588;-0.013439035043120384;0.0
01:00:0A:00:00:00:00;1725063108;31/08/24;00:11:48;1.014;-0.008;0.082;-0.009773843921720982;-0.009773843921720982;-0.0024434609804302454
01:00:0A:00:00:00:00;1725063109;31/08/24;00:11:49;1.014;-0.007;0.081;-0.00855211354792118;-0.01710422709584236;0.006108652334660292
01:00:0A:00:00:00:00;1725063110;31/08/24;00:11:50;1.016;-0.012;0.079;-0.00855211354792118;-0.010995574295520782;0.004886921960860491
01:00:0A:00:00:00:00;1725063111;31/08/24;00:11:51;1.014;-0.011;0.081;-0.018325956538319588;-0.009773843921720982;0.0
01:00:0A:00:00:00:00;1725063112;31/08/24;00:11:52;1.014;-0.01;0.083;-0.012217304669320583;-0.00855211354792118;-0.006108652334660292
01:00:0A:00:00:00:00;1725063113;31/08/24;00:11:53;1.015;-0.001;0.086;0.0;-0.013439035043120384;0.0
01:00:0A:00:00:00:00;1725063114;31/08/24;00:11:54;1.015;-0.013;0.079;-0.006108652334660292;-0.01710422709584236;0.015882495790719986
01:00:0A:00:00:00:00;1725063115;31/08/24;00:11:55;1.014;-0.013;0.081;-0.0024434609804302454;-0.006108652334660292;-0.004886921960860491
01:00:0A:00:00:00:00;1725063116;31/08/24;00:11:56;1.015;-0.008;0.082;-0.013439035043120384;-0.009773843921720982;0.0
01:00:0A:00:00:00:00;1725063117;31/08/24;00:11:57;1.015;-0.003;0.086;0.0024434609804302454;-0.010995574295520782;-0.0024434609804302454
01:00:0A:00:00:00:00;1725063118;31/08/24;00:11:58;1.014;-0.006;0.08;0.0;-0.019547687843441963;0.014660765416920185
01:00:0A:00:00:00:00;1725063119;31/08/24;00:11:59;1.014;-0.014;0.079;0.004886921960860491;-0.0073303827084600925;0.0012217304902151227
01:00:0A:00:00:00:00;1725063120;31/08/24;00:12:00;1.014;-0.008;0.081;-0.004886921960860491;-0.010995574295520782;0.0
01:00:0A:00:00:00:00;1725063121;31/08/24;00:12:01;1.016;-0.007;0.082;0.0;-0.0073303827084600925;0.0
01:00:0A:00:00:00:00;1725063122;31/08/24;00:12:02;1.015;-0.001;0.087;0.00855211354792118;-0.009773843921720982;0.0
01:00:0A:00:00:00:00;1725063123;31/08/24;00:12:03;1.015;-0.011;0.082;0.004886921960860491;-0.015882495790719986;0.015882495790719986
01:00:0A:00:00:00:00;1725063124;31/08/24;00:12:04;1.015;-0.014;0.081;0.006108652334660292;-0.013439035043120384;0.0
01:00:0A:00:00:00:00;1725063125;31/08/24;00:12:05;1.015;-0.011;0.081;-0.00855211354792118;-0.009773843921720982;0.0012217304902151227
01:00:0A:00:00:00:00;1725063126;31/08/24;00:12:06;1.015;-0.004;0.082;0.0;-0.00855211354792118;-0.006108652334660292
01:00:0A:00:00:00:00;1725063127;31/08/24;00:12:07;1.015;-0.004;0.083;-0.0012217304902151227;-0.01710422709584236;0.014660765416920185
01:00:0A:00:00:00:00;1725063128;31/08/24;00:12:08;1.016;-0.015;0.079;0.0036651913542300463;-0.010995574295520782;0.004886921960860491
01:00:0A:00:00:00:00;1725063129;31/08/24;00:12:09;1.016;-0.009;0.082;0.0012217304902151227;-0.006108652334660292;-0.0024434609804302454
01:00:0A:00:00:00:00;1725063130;31/08/24;00:12:10;1.015;-0.006;0.084;0.0036651913542300463;-0.009773843921720982;-0.0012217304902151227
01:00:0A:00:00:00:00;1725063131;31/08/24;00:12:11;1.013;-0.002;0.085;0.00855211354792118;-0.012217304669320583;0.004886921960860491
01:00:0A:00:00:00:00;1725063132;31/08/24;00:12:12;1.016;-0.013;0.079;0.0073303827084600925;-0.015882495790719986;0.012217304669320583
01:00:0A:00:00:00:00;1725063133;31/08/24;00:12:13;1.015;-0.01;0.08;0.014660765416920185;-0.0073303827084600925;-0.004886921960860491
01:00:0A:00:00:00:00;1725063134;31/08/24;00:12:14;1.014;-0.007;0.082;0.0036651913542300463;-0.013439035043120384;0.006108652334660292
01:00:0A:00:00:00:00;1725063135;31/08/24;00:12:15;1.015;-0.007;0.083;0.013439035043120384;-0.009773843921720982;0.0012217304902151227
01:00:0A:00:00:00:00;1725063136;31/08/24;00:12:16;1.015;-0.005;0.084;0.010995574295520782;-0.012217304669320583;0.006108652334660292
01:00:0A:00:00:00:00;1725063137;31/08/24;00:12:17;1.016;-0.011;0.082;0.012217304669320583;-0.013439035043120384;0.00855211354792118
01:00:0A:00:00:00:00;1725063138;31/08/24;00:12:18;1.014;-0.011;0.08;0.00855211354792118;-0.010995574295520782;-0.0012217304902151227
01:00:0A:00:00:00:00;1725063139;31/08/24;00:12:19;1.015;-0.008;0.081;0.0;-0.010995574295520782;0.0012217304902151227
01:00:0A:00:00:00:00;1725063140;31/08/24;00:12:20;1.014;-0.004;0.083;0.00855211354792118;-0.00855211354792118;-0.0012217304902151227
01:00:0A:00:00:00:00;1725063141;31/08/24;00:12:21;1.014;-0.006;0.082;0.0036651913542300463;-0.015882495790719986;0.013439035043120384
01:00:0A:00:00:00:00;1725063142;31/08/24;00:12:22;1.015;-0.013;0.081;0.0073303827084600925;-0.010995574295520782;0.0024434609804302454
01:00:0A:00:00:00:00;1725063143;31/08/24;00:12:23;1.015;-0.009;0.082;0.0;-0.010995574295520782;-0.0012217304902151227
01:00:0A:00:00:00:00;1725063144;31/08/24;00:12:24;1.015;-0.006;0.083;0.0024434609804302454;-0.00855211354792118;-0.0024434609804302454
01:00:0A:00:00:00:00;1725063145;31/08/24;00:12:25;1.015;-0.004;0.085;0.004886921960860491;-0.013439035043120384;0.00855211354792118
01:00:0A:00:00:00:00;1725063146;31/08/24;00:12:26;1.015;-0.013;0.081;0.004886921960860491;-0.013439035043120384;0.009773843921720982
01:00:0A:00:00:00:00;1725063147;31/08/24;00:12:27;1.015;-0.011;0.082;0.004886921960860491;-0.00855211354792118;-0.0036651913542300463
01:00:0A:00:00:00:00;1725063148;31/08/24;00:12:28;1.015;-0.008;0.081;0.0024434609804302454;-0.009773843921720982;0.0012217304902151227
01:00:0A:00:00:00:00;1725063149;31/08/24;00:12:29;1.014;-0.004;0.084;0.012217304669320583;-0.009773843921720982;0.0
01:00:0A:00:00:00:00;1725063150;31/08/24;00:12:30;1.014;-0.008;0.081;0.00855211354792118;-0.01710422709584236;0.013439035043120384
01:00:0A:00:00:00:00;1725063151;31/08/24;00:12:31;1.016;-0.013;0.081;0.013439035043120384;-0.009773843921720982;0.0012217304902151227
01:00:0A:00:00:00:00;1725063152;31/08/24;00:12:32;1.014;-0.007;0.082;0.006108652334660292;-0.012217304669320583;0.0012217304902151227
01:00:0A:00:00:00:00;1725063153;31/08/24;00:12:33;1.015;-0.007;0.082;0.009773843921720982;-0.00855211354792118;0.0
01:00:0A:00:00:00:00;1725063154;31/08/24;00:12:34;1.015;-0.004;0.085;0.00855211354792118;-0.010995574295520782;0.0024434609804302454
01:00:0A:00:00:00:00;1725063155;31/08/24;00:12:35;1.015;-0.011;0.082;0.0073303827084600925;-0.014660765416920185;0.012217304669320583
01:00:0A:00:00:00:00;1725063156;31/08/24;00:12:36;1.015;-0.012;0.081;0.009773843921720982;-0.009773843921720982;-0.0024434609804302454
01:00:0A:00:00:00:00;1725063157;31/08/24;00:12:37;1.015;-0.009;0.081;0.0012217304902151227;-0.010995574295520782;0.0024434609804302454
01:00:0A:00:00:00:00;1725063158;31/08/24;00:12:38;1.014;-0.005;0.083;0.00855211354792118;-0.009773843921720982;-0.0024434609804302454
01:00:0A:00:00:00:00;1725063159;31/08/24;00:12:39;1.014;-0.006;0.083;0.006108652334660292;-0.014660765416920185;0.012217304669320583
01:00:0A:00:00:00:00;1725063160;31/08/24;00:12:40;1.014;-0.013;0.081;0.009773843921720982;-0.012217304669320583;0.0036651913542300463
01:00:0A:00:00:00:00;1725063161;31/08/24;00:12:41;1.015;-0.008;0.082;0.006108652334660292;-0.00855211354792118;-0.0012217304902151227
01:00:0A:00:00:00:00;1725063162;31/08/24;00:12:42;1.015;-0.009;0.082;0.006108652334660292;-0.010995574295520782;0.0
01:00:0A:00:00:00:00;1725063163;31/08/24;00:12:43;1.015;-0.005;0.082;0.010995574295520782;-0.009773843921720982;0.0024434609804302454
01:00:0A:00:00:00:00;1725063164;31/08/24;00:12:44;1.015;-0.01;0.081;0.0073303827084600925;-0.015882495790719986;0.012217304669320583
01:00:0A:00:00:00:00;1725063165;31/08/24;00:12:45;1.015;-0.012;0.081;0.010995574295520782;-0.00855211354792118;-0.0012217304902151227
01:00:0A:00:00:00:00;1725063166;31/08/24;00:12:46;1.014;-0.009;0.081;0.0024434609804302454;-0.012217304669320583;0.0024434609804302454
01:00:0A:00:00:00:00;1725063167;31/08/24;00:12:47;1.015;-0.007;0.082;0.00855211354792118;-0.009773843921720982;-0.0012217304902151227
01:00:0A:00:00:00:00;1725063168;31/08/24;00:12:48;1.015;-0.005;0.083;0.00855211354792118;-0.013439035043120384;0.0073303827084600925
01:00:0A:00:00:00:00;1725063169;31/08/24;00:12:49;1.015;-0.013;0.081;0.0073303827084600925;-0.013439035043120384;0.00855211354792118
01:00:0A:00:00:00:00;1725063170;31/08/24;00:12:50;1.016;-0.011;0.082;0.006108652334660292;-0.009773843921720982;-0.0012217304902151227
01:00:0A:00:00:00:00;1725063171;31/08/24;00:12:51;1.015;-0.008;0.081;0.0;-0.010995574295520782;0.0012217304902151227
01:00:0A:00:00:00:00;1725063172;31/08/24;00:12:52;1.014;-0.004;0.082;0.006108652334660292;-0.009773843921720982;0.0012217304902151227
01:00:0A:00:00:00:00;1725063173;31/08/24;00:12:53;1.014;-0.008;0.081;0.0036651913542300463;-0.015882495790719986;0.012217304669320583
01:00:0A:00:00:00:00;1725063174;31/08/24;00:12:54;1.015;-0.012;0.08;0.006108652334660292;-0.010995574295520782;0.0012217304902151227
01:00:0A:00:00:00:00;1725063175;31/08/24;00:12:55;1.015;-0.011;0.08;-0.0036651913542300463;-0.010995574295520782;0.0
01:00:0A:00:00:00:00;1725063176;31/08/24;00:12:56;1.015;-0.007;0.081;-0.0012217304902151227;-0.00855211354792118;-0.0024434609804302454
01:00:0A:00:00:00:00;1725063177;31/08/24;00:12:57;1.015;-0.004;0.083;0.0012217304902151227;-0.014660765416920185;0.0073303827084600925
01:00:0A:00:00:00:00;1725063178;31/08/24;00:12:58;1.016;-0.013;0.08;0.0;-0.014660765416920185;0.009773843921720982
01:00:0A:00:00:00:00;1725063179;31/08/24;00:12:59;1.014;-0.009;0.082;0.004886921960860491;-0.0073303827084600925;-0.006108652334660292
01:00:0A:00:00:00:00;1725063180;31/08/24;00:13:00;1.014;-0.007;0.081;0.0;-0.012217304669320583;0.004886921960860491
01:00:0A:00:00:00:00;1725063181;31/08/24;00:13:01;1.015;-0.007;0.082;0.00855211354792118;-0.010995574295520782;0.0012217304902151227
01:00:0A:00:00:00:00;1725063182;31/08/24;00:13:02;1.015;-0.007;0.081;0.00855211354792118;-0.013439035043120384;0.0073303827084600925
01:00:0A:00:00:00:00;1725063183;31/08/24;00:13:03;1.015;-0.012;0.081;0.0073303827084600925;-0.010995574295520782;0.004886921960860491
01:00:0A:00:00:00:00;1725063184;31/08/24;00:13:04;1.015;-0.011;0.081;0.0;-0.010995574295520782;0.0024434609804302454
01:00:0A:00:00:00:00;1725063185;31/08/24;00:13:05;1.014;-0.01;0.081;-0.0024434609804302454;-0.00855211354792118;0.0
01:00:0A:00:00:00:00;1725063186;31/08/24;00:13:06;1.016;-0.003;0.084;0.004886921960860491;-0.009773843921720982;-0.0012217304902151227
01:00:0A:00:00:00:00;1725063187;31/08/24;00:13:07;1.015;-0.008;0.082;0.0012217304902151227;-0.01710422709584236;0.013439035043120384
01:00:0A:00:00:00:00;1725063188;31/08/24;00:13:08;1.014;-0.013;0.079;0.0024434609804302454;-0.010995574295520782;0.0012217304902151227
01:00:0A:00:00:00:00;1725063189;31/08/24;00:13:09;1.016;-0.01;0.08;-0.0073303827084600925;-0.00855211354792118;0.0024434609804302454
01:00:0A:00:00:00:00;1725063190;31/08/24;00:13:10;1.015;-0.005;0.083;0.0;-0.00855211354792118;-0.0024434609804302454
01:00:0A:00:00:00:00;1725063191;31/08/24;00:13:11;1.014;-0.006;0.083;0.0012217304902151227;-0.014660765416920185;0.010995574295520782
01:00:0A:00:00:00:00;1725063192;31/08/24;00:13:12;1.014;-0.013;0.079;0.004886921960860491;-0.013439035043120384;0.0036651913542300463
01:00:0A:00:00:00:00;1725063193;31/08/24;00:13:13;1.016;-0.009;0.081;0.0024434609804302454;-0.0073303827084600925;-0.0036651913542300463
01:00:0A:00:00:00:00;1725063194;31/08/24;00:13:14;1.016;-0.008;0.082;-0.0012217304902151227;-0.009773843921720982;0.0012217304902151227
01:00:0A:00:00:00:00;1725063195;31/08/24;00:13:15;1.016;-0.004;0.083;0.006108652334660292;-0.012217304669320583;0.0036651913542300463
01:00:0A:00:00:00:00;1725063196;31/08/24;00:13:16;1.015;-0.009;0.081;0.006108652334660292;-0.015882495790719986;0.009773843921720982
01:00:0A:00:00:00:00;1725063197;31/08/24;00:13:17;1.015;-0.011;0.08;0.004886921960860491;-0.010995574295520782;0.0024434609804302454
01:00:0A:00:00:00:00;1725063198;31/08/24;00:13:18;1.015;-0.011;0.08;-0.0036651913542300463;-0.009773843921720982;0.0
01:00:0A:00:00:00:00;1725063199;31/08/24;00:13:19;1.014;-0.006;0.082;0.0;-0.00855211354792118;-0.0012217304902151227
01:00:0A:00:00:00:00;1725063200;31/08/24;00:13:20;1.015;-0.005;0.083;0.0024434609804302454;-0.014660765416920185;0.0073303827084600925
01:00:0A:00:00:00:00;1725063201;31/08/24;00:13:21;1.015;-0.013;0.078;0.0024434609804302454;-0.013439035043120384;0.0073303827084600925
01:00:0A:00:00:00:00;1725063202;31/08/24;00:13:22;1.015;-0.01;0.081;0.0024434609804302454;-0.0073303827084600925;-0.0024434609804302454
01:00:0A:00:00:00:00;1725063203;31/08/24;00:13:23;1.016;-0.007;0.082;-0.0012217304902151227;-0.009773843921720982;0.0012217304902151227
01:00:0A:00:00:00:00;1725063204;31/08/24;00:13:24;1.015;-0.005;0.083;0.006108652334660292;-0.012217304669320583;0.0024434609804302454
01:00:0A:00:00:00:00;1725063205;31/08/24;00:13:25;1.013;-0.009;0.081;0.004886921960860491;-0.01710422709584236;0.009773843921720982
01:00:0A:00:00:00:00;1725063206;31/08/24;00:13:26;1.014;-0.011;0.081;0.00855211354792118;-0.0073303827084600925;-0.0012217304902151227
01:00:0A:00:00:00:00;1725063207;31/08/24;00:13:27;1.016;-0.008;0.081;0.0012217304902151227;-0.013439035043120384;0.0036651913542300463
01:00:0A:00:00:00:00;1725063208;31/08/24;00:13:28;1.016;-0.009;0.081;0.006108652334660292;-0.009773843921720982;0.0012217304902151227
01:00:0A:00:00:00:00;1725063209;31/08/24;00:13:29;1.015;-0.005;0.083;0.009773843921720982;-0.009773843921720982;0.0024434609804302454
01:00:0A:00:00:00:00;1725063210;31/08/24;00:13:30;1.015;-0.01;0.081;0.0073303827084600925;-0.014660765416920185;0.009773843921720982
01:00:0A:00:00:00:00;1725063211;31/08/24;00:13:31;1.016;-0.012;0.08;0.006108652334660292;-0.010995574295520782;0.0024434609804302454
01:00:0A:00:00:00:00;1725063212;31/08/24;00:13:32;1.016;-0.01;0.08;-0.0024434609804302454;-0.009773843921720982;0.0
01:00:0A:00:00:00:00;1725063213;31/08/24;00:13:33;1.015;-0.005;0.083;0.0024434609804302454;-0.00855211354792118;-0.0012217304902151227
01:00:0A:00:00:00:00;1725063214;31/08/24;00:13:34;1.014;-0.006;0.083;0.0024434609804302454;-0.015882495790719986;0.009773843921720982
01:00:0A:00:00:00:00;1725063215;31/08/24;00:13:35;1.015;-0.013;0.079;0.004886921960860491;-0.013439035043120384;0.0036651913542300463
01:00:0A:00:00:00:00;1725063216;31/08/24;00:13:36;1.015;-0.01;0.08;0.0012217304902151227;-0.009773843921720982;-0.0012217304902151227
01:00:0A:00:00:00:00;1725063217;31/08/24;00:13:37;1.015;-0.007;0.081;0.0024434609804302454;-0.00855211354792118;-0.0012217304902151227
01:00:0A:00:00:00:00;1725063218;31/08/24;00:13:38;1.015;-0.004;0.085;0.006108652334660292;-0.013439035043120384;0.004886921960860491
01:00:0A:00:00:00:00;1725063219;31/08/24;00:13:39;1.015;-0.012;0.079;0.004886921960860491;-0.015882495790719986;0.009773843921720982
01:00:0A:00:00:00:00;1725063220;31/08/24;00:13:40;1.015;-0.011;0.081;0.010995574295520782;-0.006108652334660292;-0.004886921960860491
01:00:0A:00:00:00:00;1725063221;31/08/24;00:13:41;1.014;-0.008;0.083;0.0036651913542300463;-0.012217304669320583;0.004886921960860491
01:00:0A:00:00:00:00;1725063222;31/08/24;00:13:42;1.015;-0.006;0.082;0.012217304669320583;-0.010995574295520782;0.0012217304902151227
01:00:0A:00:00:00:00;1725063223;31/08/24;00:13:43;1.014;-0.009;0.082;0.010995574295520782;-0.014660765416920185;0.00855211354792118
01:00:0A:00:00:00:00;1725063224;31/08/24;00:13:44;1.016;-0.011;0.079;0.013439035043120384;-0.012217304669320583;0.0024434609804302454
01:00:0A:00:00:00:00;1725063225;31/08/24;00:13:45;1.014;-0.009;0.081;0.009773843921720982;-0.010995574295520782;0.0024434609804302454
01:00:0A:00:00:00:00;1725063226;31/08/24;00:13:46;1.015;-0.008;0.081;0.0073303827084600925;-0.010995574295520782;0.0012217304902151227
01:00:0A:00:00:00:00;1725063227;31/08/24;00:13:47;1.014;-0.006;0.084;0.009773843921720982;-0.00855211354792118;0.0
01:00:0A:00:00:00:00;1725063228;31/08/24;00:13:48;1.016;-0.009;0.081;0.0073303827084600925;-0.01710422709584236;0.009773843921720982
01:00:0A:00:00:00:00;1725063229;31/08/24;00:13:49;1.015;-0.013;0.079;0.009773843921720982;-0.009773843921720982;0.0012217304902151227
01:00:0A:00:00:00:00;1725063230;31/08/24;00:13:50;1.015;-0.008;0.081;0.0036651913542300463;-0.010995574295520782;0.0024434609804302454
01:00:0A:00:00:00:00;1725063231;31/08/24;00:13:51;1.015;-0.008;0.082;0.00855211354792118;-0.00855211354792118;0.0012217304902151227
01:00:0A:00:00:00:00;1725063232;31/08/24;00:13:52;1.015;-0.006;0.082;0.0073303827084600925;-0.014660765416920185;0.00855211354792118
01:00:0A:00:00:00:00;1725063233;31/08/24;00:13:53;1.014;-0.012;0.08;0.010995574295520782;-0.010995574295520782;0.0036651913542300463
01:00:0A:00:00:00:00;1725063234;31/08/24;00:13:54;1.015;-0.008;0.081;0.010995574295520782;-0.00855211354792118;-0.0012217304902151227
01:00:0A:00:00:00:00;1725063235;31/08/24;00:13:55;1.016;-0.008;0.081;0.00855211354792118;-0.012217304669320583;0.0036651913542300463
01:00:0A:00:00:00:00;1725063236;31/08/24;00:13:56;1.014;-0.006;0.082;0.010995574295520782;-0.010995574295520782;0.0024434609804302454
01:00:0A:00:00:00:00;1725063237;31/08/24;00:13:57;1.015;-0.008;0.081;0.010995574295520782;-0.013439035043120384;0.0073303827084600925
01:00:0A:00:00:00:00;1725063238;31/08/24;00:13:58;1.014;-0.011;0.08;0.012217304669320583;-0.010995574295520782;0.0012217304902151227
01:00:0A:00:00:00:00;1725063239;31/08/24;00:13:59;1.015;-0.008;0.081;0.009773843921720982;-0.012217304669320583;0.0024434609804302454
01:00:0A:00:00:00:00;1725063240;31/08/24;00:14:00;1.015;-0.008;0.081;0.0073303827084600925;-0.009773843921720982;0.0012217304902151227
01:00:0A:00:00:00:00;1725063241;31/08/24;00:14:01;1.016;-0.006;0.082;0.0073303827084600925;-0.012217304669320583;0.004886921960860491
01:00:0A:00:00:00:00;1725063242;31/08/24;00:14:02;1.014;-0.01;0.081;0.00855211354792118;-0.012217304669320583;0.006108652334660292
01:00:0A:00:00:00:00;1725063243;31/08/24;00:14:03;1.014;-0.01;0.081;0.009773843921720982;-0.009773843921720982;0.0012217304902151227
01:00:0A:00:00:00:00;1725063244;31/08/24;00:14:04;1.015;-0.009;0.081;0.0073303827084600925;-0.010995574295520782;0.0036651913542300463
01:00:0A:00:00:00:00;1725063245;31/08/24;00:14:05;1.014;-0.008;0.082;0.009773843921720982;-0.009773843921720982;0.0024434609804302454
01:00:0A:00:00:00:00;1725063246;31/08/24;00:14:06;1.015;-0.009;0.081;0.00855211354792118;-0.013439035043120384;0.0073303827084600925
01:00:0A:00:00:00:00;1725063247;31/08/24;00:14:07;1.015;-0.01;0.08;0.009773843921720982;-0.012217304669320583;0.0024434609804302454
01:00:0A:00:00:00:00;1725063248;31/08/24;00:14:08;1.015;-0.008;0.081;0.00855211354792118;-0.010995574295520782;0.0024434609804302454
01:00:0A:00:00:00:00;1725063249;31/08/24;00:14:09;1.013;-0.008;0.081;0.009773843921720982;-0.010995574295520782;0.0024434609804302454
01:00:0A:00:00:00:00;1725063250;31/08/24;00:14:10;1.015;-0.008;0.082;0.009773843921720982;-0.012217304669320583;0.0036651913542300463
01:00:0A:00:00:00:00;1725063251;31/08/24;00:14:11;1.015;-0.01;0.081;0.009773843921720982;-0.012217304669320583;0.004886921960860491
01:00:0A:00:00:00:00;1725063252;31/08/24;00:14:12;1.014;-0.009;0.081;0.010995574295520782;-0.010995574295520782;0.0024434609804302454
01:00:0A:00:00:00:00;1725063253;31/08/24;00:14:13;1.016;-0.009;0.081;0.00855211354792118;-0.012217304669320583;0.0036651913542300463
01:00:0A:00:00:00:00;1725063254;31/08/24;00:14:14;1.015;-0.008;0.081;0.009773843921720982;-0.009773843921720982;0.0024434609804302454
01:00:0A:00:00:00:00;1725063255;31/08/24;00:14:15;1.015;-0.009;0.081;0.009773843921720982;-0.012217304669320583;0.006108652334660292
01:00:0A:00:00:00:00;1725063256;31/08/24;00:14:16;1.015;-0.009;0.081;0.010995574295520782;-0.010995574295520782;0.0024434609804302454
01:00:0A:00:00:00:00;1725063257;31/08/24;00:14:17;1.014;-0.01;0.081;0.009773843921720982;-0.010995574295520782;0.0024434609804302454
01:00:0A:00:00:00:00;1725063258;31/08/24;00:14:18;1.015;-0.008;0.081;0.009773843921720982;-0.010995574295520782;0.0024434609804302454
01:00:0A:00:00:00:00;1725063259;31/08/24;00:14:19;1.016;-0.008;0.082;0.009773843921720982;-0.010995574295520782;0.0036651913542300463
01:00:0A:00:00:00:00;1725063260;31/08/24;00:14:20;1.015;-0.008;0.081;0.010995574295520782;-0.012217304669320583;0.004886921960860491
01:00:0A:00:00:00:00;1725063261;31/08/24;00:14:21;1.015;-0.01;0.081;0.010995574295520782;-0.010995574295520782;0.0036651913542300463
01:00:0A:00:00:00:00;1725063262;31/08/24;00:14:22;1.015;-0.009;0.081;0.009773843921720982;-0.010995574295520782;0.0024434609804302454
01:00:0A:00:00:00:00;1725063263;31/08/24;00:14:23;1.015;-0.008;0.081;0.010995574295520782;-0.010995574295520782;0.0024434609804302454
01:00:0A:00:00:00:00;1725063264;31/08/24;00:14:24;1.015;-0.008;0.081;0.010995574295520782;-0.012217304669320583;0.004886921960860491
01:00:0A:00:00:00:00;1725063265;31/08/24;00:14:25;1.015;-0.009;0.081;0.012217304669320583;-0.010995574295520782;0.0036651913542300463
01:00:0A:00:00:00:00;1725063266;31/08/24;00:14:26;1.015;-0.009;0.081;0.010995574295520782;-0.010995574295520782;0.0036651913542300463
01:00:0A:00:00:00:00;1725063267;31/08/24;00:14:27;1.015;-0.009;0.081;0.010995574295520782;-0.010995574295520782;0.0024434609804302454
01:00:0A:00:00:00:00;1725063268;31/08/24;00:14:28;1.015;-0.008;0.081;0.012217304669320583;-0.010995574295520782;0.0024434609804302454
01:00:0A:00:00:00:00;1725063269;31/08/24;00:14:29;1.014;-0.01;0.081;0.010995574295520782;-0.013439035043120384;0.004886921960860491
01:00:0A:00:00:00:00;1725063270;31/08/24;00:14:30;1.015;-0.009;0.081;0.012217304669320583;-0.010995574295520782;0.0024434609804302454
01:00:0A:00:00:00:00;1725063271;31/08/24;00:14:31;1.016;-0.009;0.081;0.010995574295520782;-0.010995574295520782;0.0036651913542300463
01:00:0A:00:00:00:00;1725063272;31/08/24;00:14:32;1.014;-0.009;0.081;0.012217304669320583;-0.010995574295520782;0.0024434609804302454
01:00:0A:00:00:00:00;1725063273;31/08/24;00:14:33;1.015;-0.008;0.081;0.012217304669320583;-0.012217304669320583;0.0036651913542300463
01:00:0A:00:00:00:00;1725063274;31/08/24;00:14:34;1.015;-0.009;0.081;0.012217304669320583;-0.012217304669320583;0.0036651913542300463
01:00:0A:00:00:00:00;1725063275;31/08/24;00:14:35;1.015;-0.008;0.081;0.012217304669320583;-0.010995574295520782;0.0024434609804302454
01:00:0A:00:00:00:00;1725063276;31/08/24;00:14:36;1.015;-0.01;0.081;0.012217304669320583;-0.010995574295520782;0.0036651913542300463
01:00:0A:00:00:00:00;1725063277;31/08/24;00:14:37;1.015;-0.008;0.081;0.013439035043120384;-0.012217304669320583;0.0024434609804302454
01:00:0A:00:00:00:00;1725063278;31/08/24;00:14:38;1.016;-0.009;0.081;0.014660765416920185;-0.010995574295520782;0.004886921960860491
01:00:0A:00:00:00:00;1725063279;31/08/24;00:14:39;1.015;-0.009;0.08;0.013439035043120384;-0.012217304669320583;0.0036651913542300463
01:00:0A:00:00:00:00;1725063280;31/08/24;00:14:40;1.015;-0.009;0.081;0.013439035043120384;-0.010995574295520782;0.0036651913542300463
01:00:0A:00:00:00:00;1725063281;31/08/24;00:14:41;1.014;-0.009;0.081;0.013439035043120384;-0.010995574295520782;0.0036651913542300463
01:00:0A:00:00:00:00;1725063282;31/08/24;00:14:42;1.015;-0.007;0.081;0.014660765416920185;-0.009773843921720982;0.0024434609804302454
01:00:0A:00:00:00:00;1725063283;31/08/24;00:14:43;1.014;-0.008;0.082;0.014660765416920185;-0.010995574295520782;0.0036651913542300463
01:00:0A:00:00:00:00;1725063284;31/08/24;00:14:44;1.016;-0.009;0.081;0.014660765416920185;-0.012217304669320583;0.0036651913542300463
01:00:0A:00:00:00:00;1725063285;31/08/24;00:14:45;1.015;-0.009;0.081;0.014660765416920185;-0.010995574295520782;0.0024434609804302454
01:00:0A:00:00:00:00;1725063286;31/08/24;00:14:46;1.015;-0.009;0.081;0.014660765416920185;-0.010995574295520782;0.0036651913542300463
01:00:0A:00:00:00:00;1725063287;31/08/24;00:14:47;1.016;-0.008;0.082;0.014660765416920185;-0.010995574295520782;0.004886921960860491
01:00:0A:00:00:00:00;1725063288;31/08/24;00:14:48;1.014;-0.008;0.081;0.015882495790719986;-0.012217304669320583;0.0036651913542300463
01:00:0A:00:00:00:00;1725063289;31/08/24;00:14:49;1.015;-0.01;0.081;0.014660765416920185;-0.012217304669320583;0.0036651913542300463
01:00:0A:00:00:00:00;1725063290;31/08/24;00:14:50;1.015;-0.009;0.081;0.014660765416920185;-0.010995574295520782;0.0012217304902151227
01:00:0A:00:00:00:00;1725063291;31/08/24;00:14:51;1.015;-0.008;0.081;0.013439035043120384;-0.010995574295520782;0.004886921960860491
01:00:0A:00:00:00:00;1725063292;31/08/24;00:14:52;1.014;-0.009;0.081;0.014660765416920185;-0.010995574295520782;0.0036651913542300463
01:00:0A:00:00:00:00;1725063293;31/08/24;00:14:53;1.015;-0.009;0.082;0.013439035043120384;-0.012217304669320583;0.0036651913542300463
01:00:0A:00:00:00:00;1725063294;31/08/24;00:14:54;1.016;-0.008;0.08;0.013439035043120384;-0.012217304669320583;0.0036651913542300463
01:00:0A:00:00:00:00;1725063295;31/08/24;00:14:55;1.015;-0.008;0.081;0.013439035043120384;-0.010995574295520782;0.0024434609804302454
01:00:0A:00:00:00:00;1725063296;31/08/24;00:14:56;1.014;-0.008;0.082;0.012217304669320583;-0.010995574295520782;0.004886921960860491
01:00:0A:00:00:00:00;1725063297;31/08/24;00:14:57;1.014;-0.009;0.081;0.012217304669320583;-0.010995574295520782;0.0036651913542300463
01:00:0A:00:00:00:00;1725063298;31/08/24;00:14:58;1.015;-0.01;0.081;0.012217304669320583;-0.012217304669320583;0.0036651913542300463
01:00:0A:00:00:00:00;1725063299;31/08/24;00:14:59;1.015;-0.008;0.081;0.012217304669320583;-0.010995574295520782;0.0024434609804302454
01:00:0A:00:00:00:00;1725063300;31/08/24;00:15:00;1.015;-0.008;0.081;0.010995574295520782;-0.010995574295520782;0.0036651913542300463
01:00:0A:00:00:00:00;1725063301;31/08/24;00:15:01;1.015;-0.009;0.081;0.012217304669320583;-0.010995574295520782;0.0036651913542300463
01:00:0A:00:00:00:00;1725063302;31/08/24;00:15:02;1.013;-0.009;0.081;0.010995574295520782;-0.012217304669320583;0.004886921960860491
01:00:0A:00:00:00:00;1725063303;31/08/24;00:15:03;1.015;-0.009;0.081;0.010995574295520782;-0.012217304669320583;0.0024434609804302454
01:00:0A:00:00:00:00;1725063304;31/08/24;00:15:04;1.015;-0.009;0.081;0.010995574295520782;-0.010995574295520782;0.0024434609804302454
01:00:0A:00:00:00:00;1725063305;31/08/24;00:15:05;1.015;-0.009;0.081;0.009773843921720982;-0.010995574295520782;0.004886921960860491
01:00:0A:00:00:00:00;1725063306;31/08/24;00:15:06;1.015;-0.009;0.081;0.009773843921720982;-0.010995574295520782;0.0036651913542300463
01:00:0A:00:00:00:00;1725063307;31/08/24;00:15:07;1.015;-0.01;0.08;0.00855211354792118;-0.012217304669320583;0.0036651913542300463
01:00:0A:00:00:00:00;1725063308;31/08/24;00:15:08;1.015;-0.008;0.081;0.0073303827084600925;-0.010995574295520782;0.0024434609804302454
01:00:0A:00:00:00:00;1725063309;31/08/24;00:15:09;1.015;-0.01;0.081;0.0073303827084600925;-0.012217304669320583;0.0024434609804302454
01:00:0A:00:00:00:00;1725063309;31/08/24;00:15:09;1.014;-0.009;0.081;0.0073303827084600925;-0.010995574295520782;0.0036651913542300463
01:00:0A:00:00:00:00;1725063310;31/08/24;00:15:10;1.015;-0.01;0.081;0.006108652334660292;-0.010995574295520782;0.0036651913542300463
01:00:0A:00:00:00:00;1725063311;31/08/24;00:15:11;1.014;-0.008;0.081;0.006108652334660292;-0.010995574295520782;0.0036651913542300463
01:00:0A:00:00:00:00;1725063312;31/08/24;00:15:12;1.015;-0.01;0.081;0.0024434609804302454;-0.012217304669320583;0.004886921960860491
01:00:0A:00:00:00:00;1725063313;31/08/24;00:15:13;1.014;-0.008;0.081;0.0036651913542300463;-0.010995574295520782;0.0
01:00:0A:00:00:00:00;1725063314;31/08/24;00:15:14;1.014;-0.008;0.081;0.0024434609804302454;-0.010995574295520782;0.004886921960860491
01:00:0A:00:00:00:00;1725063315;31/08/24;00:15:15;1.015;-0.01;0.081;0.0024434609804302454;-0.012217304669320583;0.0036651913542300463
01:00:0A:00:00:00:00;1725063316;31/08/24;00:15:16;1.015;-0.01;0.081;0.0024434609804302454;-0.010995574295520782;0.0024434609804302454
01:00:0A:00:00:00:00;1725063317;31/08/24;00:15:17;1.014;-0.01;0.081;0.0;-0.010995574295520782;0.0024434609804302454
01:00:0A:00:00:00:00;1725063318;31/08/24;00:15:18;1.015;-0.008;0.081;0.0012217304902151227;-0.012217304669320583;0.0012217304902151227
01:00:0A:00:00:00:00;1725063319;31/08/24;00:15:19;1.015;-0.009;0.081;0.0;-0.010995574295520782;0.004886921960860491
