Source;Epoch timestamp (UTC);Date;Time (UTC);Accel X (G);Accel Y (G);Accel Z (G);Gyro X (rad/s);Gyro Y (rad/s);Gyro Z (rad/s)
01:00:0A:00:00:00:00;1724976001;30/08/24;00:00:01;0.947;0.05;0.072;0.1514945775270462;0.15271630883216858;-0.38728854060173035
01:00:0A:00:00:00:00;1724976002;30/08/24;00:00:02;0.973;0.004;0.034;-0.13805554807186127;-0.1563815027475357;0.5607742667198181
01:00:0A:00:00:00:00;1724976003;30/08/24;00:00:03;0.986;-0.117;0.07;0.1160643920302391;-0.2541199326515198;-0.5290092825889587
01:00:0A:00:00:00:00;1724976004;30/08/24;00:00:04;1.007;0.207;-0.121;-0.04886921867728233;-0.059864792972803116;0.1661553531885147
01:00:0A:00:00:00:00;1724976005;30/08/24;00:00:05;1.044;-0.248;0.062;0.06352998316287994;0.18325956165790558;0.09773843735456467
01:00:0A:00:00:00:00;1724976006;30/08/24;00:00:06;1.052;-0.026;-0.014;0.20036379992961884;-0.13805554807186127;-0.09773843735456467
01:00:0A:00:00:00:00;1724976007;30/08/24;00:00:07;0.976;-0.064;0.12;0.2076941877603531;0.22602014243602753;0.1576032191514969
01:00:0A:00:00:00:00;1724976008;30/08/24;00:00:08;0.952;-0.009;0.117;0.17104226350784302;-0.1722639948129654;-0.08185594528913498
01:00:0A:00:00:00:00;1724976009;30/08/24;00:00:09;0.978;0.001;0.093;0.09285151958465576;-0.04642575979232788;0.00855211354792118
01:00:0A:00:00:00:00;1724976010;30/08/24;00:00:10;1.011;0.02;0.058;-0.00855211354792118;-0.11239919811487198;-0.021991148591041565
01:00:0A:00:00:00:00;1724976011;30/08/24;00:00:11;1.047;-0.017;0.048;-0.05253440886735916;-0.004886921960860491;0.040317103266716
01:00:0A:00:00:00:00;1724976012;30/08/24;00:00:12;1.044;-0.066;0.135;-0.06230825558304787;-0.0757472887635231;0.0036651913542300463
01:00:0A:00:00:00:00;1724976013;30/08/24;00:00:13;1.026;-0.02;0.036;-0.02932153083384037;-0.0708603635430336;-0.03176499158143997
01:00:0A:00:00:00:00;1724976014;30/08/24;00:00:14;1.005;-0.042;0.109;0.024434609338641167;0.21013763546943665;0.06841690838336945
01:00:0A:00:00:00:00;1724976015;30/08/24;00:00:15;0.991;-0.036;0.096;0.039095375686883926;0.01710422709584236;-0.030543262138962746
01:00:0A:00:00:00:00;1724976016;30/08/24;00:00:16;0.992;0.018;0.041;-0.004886921960860491;-0.07941248267889023;-0.0024434609804302454
01:00:0A:00:00:00:00;1724976017;30/08/24;00:00:17;1.016;-0.029;0.061;-0.0073303827084600925;-0.004886921960860491;0.036651913076639175
01:00:0A:00:00:00:00;1724976018;30/08/24;00:00:18;1.057;-0.071;0.108;0.04764748737215996;-0.03420845419168472;-0.08918632566928864
01:00:0A:00:00:00:00;1724976019;30/08/24;00:00:19;1.068;0.048;0.033;0.013439035043120384;0.05864306166768074;0.02932153083384037
01:00:0A:00:00:00:00;1724976020;30/08/24;00:00:20;1.016;-0.118;0.099;0.004886921960860491;0.12950342893600464;0.2223549485206604
01:00:0A:00:00:00:00;1724976021;30/08/24;00:00:21;0.979;0.083;0.02;0.045204028487205505;-0.14416420459747314;-0.26633724570274353
01:00:0A:00:00:00:00;1724976022;30/08/24;00:00:22;0.969;0.0;0.112;-0.12461651116609573;0.012217304669320583;0.31154125928878784
01:00:0A:00:00:00:00;1724976023;30/08/24;00:00:23;0.99;-0.117;0.179;0.025656338781118393;-0.11850785464048386;-0.27488934993743896
01:00:0A:00:00:00:00;1724976024;30/08/24;00:00:24;1.009;0.069;0.174;-0.0757472887635231;0.04642575979232788;-0.012217304669320583
01:00:0A:00:00:00:00;1724976025;30/08/24;00:00:25;1.011;-0.04;0.16;-0.25534167885780334;0.02687807008624077;0.1661553531885147
01:00:0A:00:00:00:00;1724976026;30/08/24;00:00:26;1.007;-0.081;0.041;-0.13561207056045532;-0.00855211354792118;-0.1014036238193512
01:00:0A:00:00:00:00;1724976027;30/08/24;00:00:27;1.02;0.02;0.089;-0.09773843735456467;-0.02687807008624077;-0.08429940044879913
01:00:0A:00:00:00:00;1724976028;30/08/24;00:00:28;1.039;-0.068;0.15;-0.14416420459747314;-0.15271630883216858;-0.021991148591041565
01:00:0A:00:00:00:00;1724976029;30/08/24;00:00:29;1.063;-0.083;0.082;-0.06719517707824707;-0.02687807008624077;-0.025656338781118393
01:00:0A:00:00:00:00;1724976030;30/08/24;00:00:30;1.038;-0.024;0.166;-0.04886921867728233;0.1576032191514969;0.04642575979232788
01:00:0A:00:00:00:00;1724976041;30/08/24;00:00:41;1.011;-0.043;0.142;-0.13927726447582245;-0.2565633952617645;0.0708603635430336
01:00:0A:00:00:00:00;1724976042;30/08/24;00:00:42;1.001;-0.067;0.0;0.0024434609804302454;0.02687807008624077;-0.07452555745840073
01:00:0A:00:00:00:00;1724976043;30/08/24;00:00:43;0.987;-0.022;0.147;0.018325956538319588;0.1270599663257599;0.03298672288656235
01:00:0A:00:00:00:00;1724976044;30/08/24;00:00:44;1.008;-0.055;0.118;-0.05742133408784866;-0.28588491678237915;0.06719517707824707
01:00:0A:00:00:00:00;1724976045;30/08/24;00:00:45;1.046;-0.026;-0.038;0.07941248267889023;0.09162978082895279;-0.010995574295520782
01:00:0A:00:00:00:00;1724976046;30/08/24;00:00:46;1.031;0.019;0.236;0.05497787147760391;0.14538592100143433;0.025656338781118393
01:00:0A:00:00:00:00;1724976047;30/08/24;00:00:47;1.012;-0.046;-0.01;0.004886921960860491;-0.26633724570274353;0.0659734457731247
01:00:0A:00:00:00:00;1724976048;30/08/24;00:00:48;0.969;-0.002;0.105;0.12217304855585098;0.28466320037841797;-0.040317103266716
01:00:0A:00:00:00:00;1724976049;30/08/24;00:00:49;0.955;0.0;0.09;-0.00855211354792118;-0.3090977966785431;0.12217304855585098
01:00:0A:00:00:00:00;1724976050;30/08/24;00:00:50;1.011;-0.03;0.017;0.13316862285137177;0.14049901068210602;-0.15515977144241333
01:00:0A:00:00:00:00;1724976051;30/08/24;00:00:51;1.027;0.037;0.183;0.013439035043120384;-0.20525071024894714;0.04764748737215996
01:00:0A:00:00:00:00;1724976052;30/08/24;00:00:52;1.06;-0.109;-0.001;0.0659734457731247;-0.05375614017248154;-0.030543262138962746
01:00:0A:00:00:00:00;1724976053;30/08/24;00:00:53;1.038;0.027;0.183;0.08918632566928864;0.1062905490398407;-0.02687807008624077
01:00:0A:00:00:00:00;1724976054;30/08/24;00:00:54;1.01;-0.066;0.075;-0.0024434609804302454;-0.09651670604944229;0.19425514340400696
01:00:0A:00:00:00:00;1724976055;30/08/24;00:00:55;0.994;-0.026;0.065;0.1319468915462494;0.11484266817569733;-0.045204028487205505
01:00:0A:00:00:00:00;1724976056;30/08/24;00:00:56;0.992;0.02;0.093;0.0757472887635231;-0.024434609338641167;0.05742133408784866
01:00:0A:00:00:00:00;1724976057;30/08/24;00:00:57;1.005;-0.043;0.054;0.07696902006864548;-0.09651670604944229;0.028099799528717995
01:00:0A:00:00:00:00;1724976058;30/08/24;00:00:58;1.017;-0.037;0.072;0.14782939851284027;-0.021991148591041565;-0.08307767659425735
01:00:0A:00:00:00:00;1724976059;30/08/24;00:00:59;1.016;0.01;0.14;0.08552113175392151;-0.028099799528717995;0.02076941914856434
01:00:0A:00:00:00:00;1724976060;30/08/24;00:01:00;1.02;-0.06;0.116;0.04764748737215996;-0.018325956538319588;0.05497787147760391
01:00:0A:00:00:00:00;1724976061;30/08/24;00:01:01;1.024;-0.033;0.086;0.08918632566928864;0.07330382615327835;-0.025656338781118393
01:00:0A:00:00:00:00;1724976062;30/08/24;00:01:02;1.016;0.012;0.078;0.040317103266716;0.05497787147760391;0.04153883829712868
01:00:0A:00:00:00:00;1724976063;30/08/24;00:01:03;1.006;-0.041;0.057;0.018325956538319588;-0.02076941914856434;0.059864792972803116
01:00:0A:00:00:00:00;1724976064;30/08/24;00:01:04;1.009;-0.025;0.064;0.0659734457731247;-0.028099799528717995;-0.0708603635430336
01:00:0A:00:00:00:00;1724976065;30/08/24;00:01:05;1.033;-0.004;0.102;0.02687807008624077;-0.028099799528717995;0.009773843921720982
01:00:0A:00:00:00:00;1724976066;30/08/24;00:01:06;1.045;-0.062;0.125;0.009773843921720982;-0.013439035043120384;0.015882495790719986
01:00:0A:00:00:00:00;1724976067;30/08/24;00:01:07;1.029;-0.02;0.084;0.015882495790719986;-0.0024434609804302454;-0.018325956538319588
01:00:0A:00:00:00:00;1724976068;30/08/24;00:01:08;0.974;-0.019;0.083;-0.012217304669320583;0.05253440886735916;0.059864792972803116
01:00:0A:00:00:00:00;1724976069;30/08/24;00:01:09;0.949;-0.016;0.071;-0.025656338781118393;-0.039095375686883926;-0.004886921960860491
01:00:0A:00:00:00:00;1724976070;30/08/24;00:01:10;0.985;-0.009;0.064;-0.02321287989616394;0.0;-0.03298672288656235
01:00:0A:00:00:00:00;1724976071;30/08/24;00:01:11;1.027;-0.014;0.092;-0.05742133408784866;-0.09896016865968704;-0.010995574295520782
01:00:0A:00:00:00:00;1724976072;30/08/24;00:01:12;1.08;-0.038;0.061;-0.039095375686883926;-0.02932153083384037;-0.028099799528717995
01:00:0A:00:00:00:00;1724976073;30/08/24;00:01:13;1.079;0.0;0.147;-0.0708603635430336;-0.013439035043120384;0.0012217304902151227
01:00:0A:00:00:00:00;1724976074;30/08/24;00:01:14;1.035;-0.06;0.025;-0.07208210229873657;-0.05619959905743599;0.1062905490398407
01:00:0A:00:00:00:00;1724976075;30/08/24;00:01:15;0.966;0.028;0.156;-0.030543262138962746;0.27611109614372253;-0.09773843735456467
01:00:0A:00:00:00:00;1724976076;30/08/24;00:01:16;0.935;-0.022;0.02;-0.1820378452539444;-0.375071257352829;0.17592918872833252
01:00:0A:00:00:00:00;1724976077;30/08/24;00:01:17;0.984;-0.027;0.005;0.07208210229873657;0.485027015209198;-0.2871066629886627
01:00:0A:00:00:00:00;1724976078;30/08/24;00:01:18;0.978;0.073;0.233;-0.2919935882091522;-0.6670648455619812;0.19058994948863983
01:00:0A:00:00:00:00;1724976079;30/08/24;00:01:19;1.024;-0.093;-0.212;-0.08429940044879913;0.2638937830924988;-0.09529497474431992
01:00:0A:00:00:00:00;1724976080;30/08/24;00:01:20;1.01;0.034;0.361;-0.1514945775270462;-0.019547687843441963;-0.03176499158143997
01:00:0A:00:00:00:00;1724976081;30/08/24;00:01:21;1.048;-0.032;-0.029;-0.2773328125476837;-0.31642818450927734;0.07330382615327835
01:00:0A:00:00:00:00;1724976082;30/08/24;00:01:22;1.007;-0.011;0.073;-0.16982054710388184;0.2480112910270691;0.08307767659425735
01:00:0A:00:00:00:00;1724976083;30/08/24;00:01:23;0.965;-0.006;0.156;-0.21624629199504852;-0.07819075137376785;-0.01710422709584236
01:00:0A:00:00:00:00;1724976084;30/08/24;00:01:24;0.992;0.02;0.059;-0.22357667982578278;-0.1368338167667389;-0.09651670604944229
01:00:0A:00:00:00:00;1724976085;30/08/24;00:01:25;1.046;0.02;0.054;-0.21991148591041565;0.1514945775270462;0.030543262138962746
01:00:0A:00:00:00:00;1724976086;30/08/24;00:01:26;1.042;-0.125;0.184;-0.2125810980796814;0.06108652427792549;0.015882495790719986
01:00:0A:00:00:00:00;1724976087;30/08/24;00:01:27;1.033;0.08;-0.016;-0.20647244155406952;-0.13927726447582245;-0.14538592100143433
01:00:0A:00:00:00:00;1724976088;30/08/24;00:01:28;0.97;-0.062;0.104;-0.27000245451927185;0.1319468915462494;0.2895500957965851
01:00:0A:00:00:00:00;1724976089;30/08/24;00:01:29;0.951;-0.003;0.086;-0.12461651116609573;-0.19303341209888458;-0.37140607833862305
01:00:0A:00:00:00:00;1724976090;30/08/24;00:01:30;0.983;0.037;0.088;-0.2822197377681732;0.03176499158143997;0.3078760802745819
01:00:0A:00:00:00:00;1724976091;30/08/24;00:01:31;1.016;-0.152;0.11;-0.1014036238193512;-0.039095375686883926;-0.31031954288482666
01:00:0A:00:00:00:00;1724976092;30/08/24;00:01:32;1.054;0.163;0.092;-0.21991148591041565;0.01710422709584236;0.09529497474431992
01:00:0A:00:00:00:00;1724976093;30/08/24;00:01:33;1.054;-0.239;0.048;-0.161268413066864;0.0036651913542300463;0.13072516024112701
01:00:0A:00:00:00:00;1724976094;30/08/24;00:01:34;1.01;0.165;0.116;-0.06352998316287994;0.07208210229873657;-0.3848450779914856
01:00:0A:00:00:00:00;1724976095;30/08/24;00:01:35;0.965;-0.085;0.057;-0.30054569244384766;-0.17104226350784302;0.4483751058578491
01:00:0A:00:00:00:00;1724976096;30/08/24;00:01:36;0.954;-0.018;0.073;0.04642575979232788;0.15393804013729095;-0.4996877610683441
01:00:0A:00:00:00:00;1724976097;30/08/24;00:01:37;0.982;0.072;0.126;-0.2626720666885376;-0.2015855312347412;0.375071257352829
01:00:0A:00:00:00:00;1724976098;30/08/24;00:01:38;1.019;-0.163;0.003;-0.040317103266716;0.09407324343919754;-0.2223549485206604
01:00:0A:00:00:00:00;1724976099;30/08/24;00:01:39;1.044;0.13;0.166;-0.09773843735456467;0.0012217304902151227;-0.040317103266716
01:00:0A:00:00:00:00;1724976100;30/08/24;00:01:40;1.053;-0.12;0.036;-0.15882496535778046;-0.08185594528913498;0.14049901068210602
01:00:0A:00:00:00:00;1724976101;30/08/24;00:01:41;1.006;0.009;0.09;-0.02076941914856434;0.1258382350206375;-0.16493360698223114
01:00:0A:00:00:00:00;1724976102;30/08/24;00:01:42;0.968;-0.001;0.09;-0.1466076523065567;-0.07941248267889023;0.12217304855585098
01:00:0A:00:00:00:00;1724976103;30/08/24;00:01:43;0.98;-0.051;0.058;-0.06963863223791122;-0.024434609338641167;-0.09285151958465576
01:00:0A:00:00:00:00;1724976104;30/08/24;00:01:44;1.031;0.0;0.098;-0.0757472887635231;-0.01710422709584236;-0.009773843921720982
01:00:0A:00:00:00:00;1724976105;30/08/24;00:01:45;1.049;-0.035;0.111;-0.11239919811487198;-0.045204028487205505;0.036651913076639175
01:00:0A:00:00:00:00;1724976106;30/08/24;00:01:46;1.049;-0.039;0.071;-0.080634206533432;0.006108652334660292;0.004886921960860491
01:00:0A:00:00:00:00;1724976107;30/08/24;00:01:47;1.016;0.003;0.123;-0.08307767659425735;0.07819075137376785;-0.010995574295520782
01:00:0A:00:00:00:00;1724976108;30/08/24;00:01:48;0.982;-0.026;0.072;-0.1258382350206375;-0.06719517707824707;0.051312677562236786
01:00:0A:00:00:00:00;1724976109;30/08/24;00:01:49;0.98;-0.013;0.073;-0.0708603635430336;0.04886921867728233;-0.04886921867728233
01:00:0A:00:00:00:00;1724976110;30/08/24;00:01:50;1.006;0.004;0.111;-0.1160643920302391;-0.059864792972803116;0.0012217304902151227
01:00:0A:00:00:00:00;1724976111;30/08/24;00:01:51;1.038;-0.039;0.075;-0.1111774742603302;-0.039095375686883926;-0.015882495790719986
01:00:0A:00:00:00:00;1724976112;30/08/24;00:01:52;1.042;-0.013;0.09;-0.08918632566928864;0.02932153083384037;-0.019547687843441963
01:00:0A:00:00:00:00;1724976113;30/08/24;00:01:53;1.027;-0.023;0.11;-0.1062905490398407;0.00855211354792118;0.012217304669320583
01:00:0A:00:00:00:00;1724976114;30/08/24;00:01:54;1.012;-0.03;0.071;-0.09651670604944229;-0.03176499158143997;0.012217304669320583
01:00:0A:00:00:00:00;1724976115;30/08/24;00:01:55;0.99;-0.015;0.092;-0.0757472887635231;0.051312677562236786;0.0
01:00:0A:00:00:00:00;1724976116;30/08/24;00:01:56;0.991;-0.022;0.105;-0.09529497474431992;-0.021991148591041565;0.019547687843441963
01:00:0A:00:00:00:00;1724976117;30/08/24;00:01:57;1.011;-0.024;0.072;-0.0757472887635231;-0.02321287989616394;-0.02932153083384037
01:00:0A:00:00:00:00;1724976118;30/08/24;00:01:58;1.021;-0.009;0.085;-0.07452555745840073;-0.00855211354792118;-0.019547687843441963
01:00:0A:00:00:00:00;1724976119;30/08/24;00:01:59;1.027;-0.022;0.1;-0.08918632566928864;-0.05375614017248154;-0.010995574295520782
01:00:0A:00:00:00:00;1724976120;30/08/24;00:02:00;1.02;-0.033;0.088;-0.080634206533432;-0.030543262138962746;-0.01710422709584236
01:00:0A:00:00:00:00;1724976121;30/08/24;00:02:01;1.016;-0.026;0.101;-0.08552113175392151;0.019547687843441963;0.01710422709584236
01:00:0A:00:00:00:00;1724976122;30/08/24;00:02:02;1.011;-0.022;0.095;-0.10018189996480942;0.00855211354792118;0.03298672288656235
01:00:0A:00:00:00:00;1724976123;30/08/24;00:02:03;1.013;-0.013;0.069;-0.09285151958465576;0.012217304669320583;0.01710422709584236
01:00:0A:00:00:00:00;1724976124;30/08/24;00:02:04;1.017;0.001;0.076;-0.09407324343919754;0.004886921960860491;-0.0073303827084600925
01:00:0A:00:00:00:00;1724976125;30/08/24;00:02:05;1.019;-0.012;0.083;-0.10018189996480942;-0.03298672288656235;-0.028099799528717995
01:00:0A:00:00:00:00;1724976126;30/08/24;00:02:06;1.019;-0.026;0.085;-0.09407324343919754;-0.030543262138962746;-0.04398229718208313
01:00:0A:00:00:00:00;1724976127;30/08/24;00:02:07;1.016;-0.034;0.099;-0.10262535512447357;0.0;-0.0024434609804302454
01:00:0A:00:00:00:00;1724976128;30/08/24;00:02:08;1.01;-0.036;0.088;-0.1160643920302391;-0.004886921960860491;0.045204028487205505
01:00:0A:00:00:00:00;1724976129;30/08/24;00:02:09;1.004;-0.012;0.08;-0.11484266817569733;-0.0073303827084600925;0.03298672288656235
01:00:0A:00:00:00:00;1724976130;30/08/24;00:02:10;1.002;0.004;0.084;-0.11484266817569733;-0.0012217304902151227;0.0073303827084600925
01:00:0A:00:00:00:00;1724976131;30/08/24;00:02:11;1.017;-0.013;0.092;-0.10384709388017654;-0.02076941914856434;-0.045204028487205505
01:00:0A:00:00:00:00;1724976132;30/08/24;00:02:12;1.031;-0.025;0.084;-0.09040805697441101;-0.009773843921720982;-0.06352998316287994
01:00:0A:00:00:00:00;1724976133;30/08/24;00:02:13;1.034;-0.04;0.089;-0.09407324343919754;-0.0073303827084600925;-0.010995574295520782
01:00:0A:00:00:00:00;1724976134;30/08/24;00:02:14;1.02;-0.047;0.085;-0.09285151958465576;-0.012217304669320583;0.03298672288656235
01:00:0A:00:00:00:00;1724976135;30/08/24;00:02:15;0.99;-0.016;0.079;-0.08552113175392151;-0.03176499158143997;0.018325956538319588
01:00:0A:00:00:00:00;1724976136;30/08/24;00:02:16;0.976;-0.007;0.085;-0.09040805697441101;-0.036651913076639175;0.028099799528717995
01:00:0A:00:00:00:00;1724976137;30/08/24;00:02:17;1.007;-0.012;0.098;-0.07452555745840073;-0.040317103266716;-0.04153883829712868
01:00:0A:00:00:00:00;1724976138;30/08/24;00:02:18;1.037;-0.011;0.099;-0.07452555745840073;-0.019547687843441963;-0.019547687843441963
01:00:0A:00:00:00:00;1724976139;30/08/24;00:02:19;1.062;-0.031;0.086;-0.0708603635430336;0.019547687843441963;0.009773843921720982
01:00:0A:00:00:00:00;1724976140;30/08/24;00:02:20;1.035;-0.018;0.083;-0.06841690838336945;0.019547687843441963;0.02076941914856434
01:00:0A:00:00:00:00;1724976141;30/08/24;00:02:21;0.996;-0.014;0.075;-0.07330382615327835;0.0;0.03176499158143997
01:00:0A:00:00:00:00;1724976142;30/08/24;00:02:22;0.957;-0.015;0.066;-0.05864306166768074;-0.021991148591041565;-0.006108652334660292
01:00:0A:00:00:00:00;1724976143;30/08/24;00:02:23;0.975;-0.016;0.069;-0.045204028487205505;-0.05253440886735916;-0.025656338781118393
01:00:0A:00:00:00:00;1724976144;30/08/24;00:02:24;1.032;-0.022;0.084;-0.0354301817715168;-0.030543262138962746;-0.01710422709584236
01:00:0A:00:00:00:00;1724976145;30/08/24;00:02:25;1.057;-0.027;0.099;-0.0354301817715168;-0.01710422709584236;0.0
01:00:0A:00:00:00:00;1724976146;30/08/24;00:02:26;1.057;-0.021;0.087;-0.036651913076639175;0.014660765416920185;0.021991148591041565
01:00:0A:00:00:00:00;1724976147;30/08/24;00:02:27;1.023;-0.017;0.091;-0.03787364438176155;0.045204028487205505;0.030543262138962746
01:00:0A:00:00:00:00;1724976148;30/08/24;00:02:28;0.972;-0.013;0.07;-0.040317103266716;-0.00855211354792118;0.009773843921720982
01:00:0A:00:00:00:00;1724976149;30/08/24;00:02:29;0.979;-0.011;0.075;-0.0354301817715168;-0.03176499158143997;-0.02321287989616394
01:00:0A:00:00:00:00;1724976150;30/08/24;00:02:30;1.01;-0.019;0.086;-0.04764748737215996;-0.05864306166768074;-0.010995574295520782
01:00:0A:00:00:00:00;1724976151;30/08/24;00:02:31;1.048;-0.026;0.091;-0.045204028487205505;-0.018325956538319588;-0.00855211354792118
01:00:0A:00:00:00:00;1724976152;30/08/24;00:02:32;1.052;-0.022;0.107;-0.04886921867728233;0.0024434609804302454;0.0073303827084600925
01:00:0A:00:00:00:00;1724976153;30/08/24;00:02:33;1.024;-0.024;0.093;-0.05253440886735916;0.015882495790719986;0.02321287989616394
01:00:0A:00:00:00:00;1724976154;30/08/24;00:02:34;0.997;-0.016;0.087;-0.04886921867728233;0.030543262138962746;0.0073303827084600925
01:00:0A:00:00:00:00;1724976155;30/08/24;00:02:35;0.978;-0.017;0.081;-0.05619959905743599;-0.024434609338641167;0.0
01:00:0A:00:00:00:00;1724976156;30/08/24;00:02:36;0.99;-0.017;0.081;-0.05253440886735916;-0.028099799528717995;-0.02076941914856434
01:00:0A:00:00:00:00;1724976157;30/08/24;00:02:37;1.028;-0.023;0.096;-0.05742133408784866;-0.03298672288656235;-0.013439035043120384
01:00:0A:00:00:00:00;1724976158;30/08/24;00:02:38;1.044;-0.031;0.098;-0.06352998316287994;-0.0073303827084600925;0.013439035043120384
01:00:0A:00:00:00:00;1724976159;30/08/24;00:02:39;1.038;-0.022;0.092;-0.06230825558304787;0.0073303827084600925;0.012217304669320583
01:00:0A:00:00:00:00;1724976160;30/08/24;00:02:40;1.01;-0.019;0.093;-0.0659734457731247;0.015882495790719986;0.014660765416920185
01:00:0A:00:00:00:00;1724976161;30/08/24;00:02:41;0.998;-0.021;0.09;-0.0659734457731247;0.0024434609804302454;0.006108652334660292
01:00:0A:00:00:00:00;1724976162;30/08/24;00:02:42;0.994;-0.02;0.086;-0.06352998316287994;-0.010995574295520782;-0.00855211354792118
01:00:0A:00:00:00:00;1724976163;30/08/24;00:02:43;0.999;-0.022;0.086;-0.06841690838336945;-0.02932153083384037;-0.0073303827084600925
01:00:0A:00:00:00:00;1724976164;30/08/24;00:02:44;1.015;-0.025;0.086;-0.0659734457731247;-0.028099799528717995;-0.010995574295520782
01:00:0A:00:00:00:00;1724976165;30/08/24;00:02:45;1.026;-0.019;0.094;-0.0659734457731247;-0.015882495790719986;-0.0073303827084600925
01:00:0A:00:00:00:00;1724976166;30/08/24;00:02:46;1.028;-0.026;0.099;-0.06841690838336945;-0.021991148591041565;-0.004886921960860491
01:00:0A:00:00:00:00;1724976167;30/08/24;00:02:47;1.023;-0.029;0.093;-0.06475171446800232;-0.006108652334660292;0.009773843921720982
01:00:0A:00:00:00:00;1724976168;30/08/24;00:02:48;1.016;-0.02;0.097;-0.06230825558304787;0.009773843921720982;0.009773843921720982
01:00:0A:00:00:00:00;1724976169;30/08/24;00:02:49;1.008;-0.02;0.088;-0.0659734457731247;-0.006108652334660292;0.012217304669320583
01:00:0A:00:00:00:00;1724976170;30/08/24;00:02:50;1.003;-0.018;0.081;-0.06108652427792549;-0.004886921960860491;0.010995574295520782
01:00:0A:00:00:00:00;1724976171;30/08/24;00:02:51;1.0;-0.014;0.088;-0.05742133408784866;-0.01710422709584236;-0.00855211354792118
01:00:0A:00:00:00:00;1724976172;30/08/24;00:02:52;1.007;-0.015;0.088;-0.059864792972803116;-0.04398229718208313;-0.018325956538319588
01:00:0A:00:00:00:00;1724976173;30/08/24;00:02:53;1.026;-0.025;0.089;-0.051312677562236786;-0.012217304669320583;-0.02076941914856434
01:00:0A:00:00:00:00;1724976174;30/08/24;00:02:54;1.03;-0.03;0.102;-0.05375614017248154;0.014660765416920185;0.010995574295520782
01:00:0A:00:00:00:00;1724976175;30/08/24;00:02:55;1.022;-0.028;0.093;-0.05864306166768074;-0.004886921960860491;0.024434609338641167
01:00:0A:00:00:00:00;1724976176;30/08/24;00:02:56;1.004;-0.016;0.083;-0.05497787147760391;-0.006108652334660292;0.013439035043120384
01:00:0A:00:00:00:00;1724976177;30/08/24;00:02:57;0.998;-0.011;0.089;-0.051312677562236786;-0.006108652334660292;-0.0012217304902151227
01:00:0A:00:00:00:00;1724976178;30/08/24;00:02:58;1.005;-0.015;0.092;-0.05009094998240471;-0.03298672288656235;-0.028099799528717995
01:00:0A:00:00:00:00;1724976179;30/08/24;00:02:59;1.017;-0.018;0.086;-0.045204028487205505;-0.02321287989616394;-0.03298672288656235
01:00:0A:00:00:00:00;1724976180;30/08/24;00:03:00;1.029;-0.031;0.093;-0.04398229718208313;0.0;-0.0073303827084600925
01:00:0A:00:00:00:00;1724976181;30/08/24;00:03:01;1.026;-0.034;0.091;-0.04764748737215996;0.0;0.014660765416920185
01:00:0A:00:00:00:00;1724976182;30/08/24;00:03:02;1.01;-0.021;0.081;-0.04642575979232788;-0.0036651913542300463;0.02321287989616394
01:00:0A:00:00:00:00;1724976183;30/08/24;00:03:03;0.999;-0.015;0.085;-0.042760565876960754;-0.0036651913542300463;0.01710422709584236
01:00:0A:00:00:00:00;1724976184;30/08/24;00:03:04;1.001;-0.012;0.087;-0.03787364438176155;-0.0354301817715168;-0.01710422709584236
01:00:0A:00:00:00:00;1724976185;30/08/24;00:03:05;1.025;-0.019;0.088;-0.03298672288656235;-0.012217304669320583;-0.02321287989616394
01:00:0A:00:00:00:00;1724976186;30/08/24;00:03:06;1.034;-0.033;0.095;-0.03298672288656235;-0.0024434609804302454;-0.0073303827084600925
01:00:0A:00:00:00:00;1724976187;30/08/24;00:03:07;1.023;-0.034;0.09;-0.03787364438176155;-0.009773843921720982;0.015882495790719986
01:00:0A:00:00:00:00;1724976188;30/08/24;00:03:08;1.008;-0.025;0.086;-0.039095375686883926;0.0;0.030543262138962746
01:00:0A:00:00:00:00;1724976189;30/08/24;00:03:09;0.99;-0.014;0.092;-0.03787364438176155;-0.0036651913542300463;0.015882495790719986
01:00:0A:00:00:00:00;1724976190;30/08/24;00:03:10;0.994;-0.013;0.094;-0.039095375686883926;-0.03420845419168472;-0.009773843921720982
01:00:0A:00:00:00:00;1724976191;30/08/24;00:03:11;1.019;-0.017;0.09;-0.036651913076639175;-0.014660765416920185;-0.018325956538319588
01:00:0A:00:00:00:00;1724976192;30/08/24;00:03:12;1.033;-0.027;0.099;-0.039095375686883926;0.0012217304902151227;-0.010995574295520782
01:00:0A:00:00:00:00;1724976193;30/08/24;00:03:13;1.034;-0.028;0.088;-0.042760565876960754;-0.004886921960860491;0.006108652334660292
01:00:0A:00:00:00:00;1724976194;30/08/24;00:03:14;1.008;-0.022;0.084;-0.04764748737215996;-0.0012217304902151227;0.02321287989616394
01:00:0A:00:00:00:00;1724976195;30/08/24;00:03:15;0.992;-0.02;0.091;-0.05009094998240471;-0.00855211354792118;0.01710422709584236
01:00:0A:00:00:00:00;1724976196;30/08/24;00:03:16;0.993;-0.018;0.09;-0.04764748737215996;-0.04153883829712868;-0.014660765416920185
01:00:0A:00:00:00:00;1724976197;30/08/24;00:03:17;1.011;-0.017;0.091;-0.04764748737215996;-0.021991148591041565;-0.009773843921720982
01:00:0A:00:00:00:00;1724976198;30/08/24;00:03:18;1.036;-0.031;0.1;-0.04886921867728233;-0.0012217304902151227;0.0
01:00:0A:00:00:00:00;1724976199;30/08/24;00:03:19;1.039;-0.026;0.092;-0.05009094998240471;-0.00855211354792118;0.0024434609804302454
01:00:0A:00:00:00:00;1724976200;30/08/24;00:03:20;1.016;-0.02;0.09;-0.05497787147760391;0.0036651913542300463;0.024434609338641167
01:00:0A:00:00:00:00;1724976201;30/08/24;00:03:21;1.002;-0.024;0.093;-0.05742133408784866;-0.0012217304902151227;0.02321287989616394
01:00:0A:00:00:00:00;1724976202;30/08/24;00:03:22;0.996;-0.019;0.086;-0.05253440886735916;-0.025656338781118393;-0.006108652334660292
01:00:0A:00:00:00:00;1724976203;30/08/24;00:03:23;1.012;-0.017;0.084;-0.05253440886735916;-0.02076941914856434;-0.004886921960860491
01:00:0A:00:00:00:00;1724976204;30/08/24;00:03:24;1.022;-0.029;0.094;-0.051312677562236786;-0.019547687843441963;-0.010995574295520782
01:00:0A:00:00:00:00;1724976205;30/08/24;00:03:25;1.03;-0.026;0.091;-0.04886921867728233;-0.013439035043120384;-0.0024434609804302454
01:00:0A:00:00:00:00;1724976206;30/08/24;00:03:26;1.022;-0.023;0.088;-0.051312677562236786;0.0012217304902151227;0.009773843921720982
01:00:0A:00:00:00:00;1724976207;30/08/24;00:03:27;1.005;-0.029;0.089;-0.051312677562236786;0.004886921960860491;0.01710422709584236
01:00:0A:00:00:00:00;1724976208;30/08/24;00:03:28;1.0;-0.022;0.084;-0.042760565876960754;-0.012217304669320583;-0.006108652334660292
01:00:0A:00:00:00:00;1724976209;30/08/24;00:03:29;1.007;-0.016;0.081;-0.04764748737215996;-0.024434609338641167;0.009773843921720982
01:00:0A:00:00:00:00;1724976210;30/08/24;00:03:30;1.016;-0.024;0.086;-0.040317103266716;-0.018325956538319588;-0.0012217304902151227
01:00:0A:00:00:00:00;1724976211;30/08/24;00:03:31;1.024;-0.021;0.09;-0.03298672288656235;-0.015882495790719986;-0.014660765416920185
01:00:0A:00:00:00:00;1724976212;30/08/24;00:03:32;1.02;-0.018;0.09;-0.039095375686883926;-0.0024434609804302454;0.00855211354792118
01:00:0A:00:00:00:00;1724976213;30/08/24;00:03:33;1.016;-0.027;0.086;-0.03298672288656235;0.0024434609804302454;0.010995574295520782
01:00:0A:00:00:00:00;1724976214;30/08/24;00:03:34;1.01;-0.02;0.083;-0.028099799528717995;-0.004886921960860491;-0.0024434609804302454
01:00:0A:00:00:00:00;1724976215;30/08/24;00:03:35;1.01;-0.018;0.082;-0.03420845419168472;-0.009773843921720982;0.01710422709584236
01:00:0A:00:00:00:00;1724976216;30/08/24;00:03:36;1.008;-0.023;0.084;-0.028099799528717995;-0.013439035043120384;0.0012217304902151227
01:00:0A:00:00:00:00;1724976217;30/08/24;00:03:37;1.008;-0.015;0.09;-0.021991148591041565;-0.012217304669320583;-0.013439035043120384
01:00:0A:00:00:00:00;1724976218;30/08/24;00:03:38;1.015;-0.016;0.087;-0.030543262138962746;-0.01710422709584236;0.00855211354792118
01:00:0A:00:00:00:00;1724976219;30/08/24;00:03:39;1.019;-0.027;0.084;-0.02321287989616394;-0.012217304669320583;0.0
01:00:0A:00:00:00:00;1724976220;30/08/24;00:03:40;1.025;-0.019;0.09;-0.019547687843441963;-0.006108652334660292;-0.0073303827084600925
01:00:0A:00:00:00:00;1724976221;30/08/24;00:03:41;1.021;-0.021;0.09;-0.028099799528717995;-0.015882495790719986;0.01710422709584236
01:00:0A:00:00:00:00;1724976222;30/08/24;00:03:42;1.016;-0.028;0.09;-0.024434609338641167;-0.0024434609804302454;0.014660765416920185
01:00:0A:00:00:00:00;1724976223;30/08/24;00:03:43;1.006;-0.019;0.088;-0.02076941914856434;0.0024434609804302454;0.0012217304902151227
01:00:0A:00:00:00:00;1724976224;30/08/24;00:03:44;1.002;-0.013;0.081;-0.02932153083384037;-0.014660765416920185;0.018325956538319588
01:00:0A:00:00:00:00;1724976225;30/08/24;00:03:45;1.01;-0.02;0.08;-0.02076941914856434;-0.02076941914856434;-0.006108652334660292
01:00:0A:00:00:00:00;1724976226;30/08/24;00:03:46;1.016;-0.018;0.086;-0.018325956538319588;-0.03298672288656235;-0.014660765416920185
01:00:0A:00:00:00:00;1724976227;30/08/24;00:03:47;1.023;-0.021;0.09;-0.024434609338641167;-0.028099799528717995;0.0
01:00:0A:00:00:00:00;1724976228;30/08/24;00:03:48;1.021;-0.03;0.09;-0.019547687843441963;-0.009773843921720982;0.0024434609804302454
01:00:0A:00:00:00:00;1724976229;30/08/24;00:03:49;1.018;-0.02;0.095;-0.019547687843441963;0.004886921960860491;0.0073303827084600925
01:00:0A:00:00:00:00;1724976230;30/08/24;00:03:50;1.016;-0.017;0.083;-0.025656338781118393;-0.0024434609804302454;0.019547687843441963
01:00:0A:00:00:00:00;1724976231;30/08/24;00:03:51;1.015;-0.022;0.079;-0.018325956538319588;-0.0073303827084600925;0.0036651913542300463
01:00:0A:00:00:00:00;1724976232;30/08/24;00:03:52;1.009;-0.017;0.087;-0.015882495790719986;-0.015882495790719986;-0.012217304669320583
01:00:0A:00:00:00:00;1724976233;30/08/24;00:03:53;1.007;-0.024;0.087;-0.024434609338641167;-0.02687807008624077;0.0024434609804302454
01:00:0A:00:00:00:00;1724976234;30/08/24;00:03:54;1.01;-0.032;0.088;-0.018325956538319588;-0.0073303827084600925;0.004886921960860491
01:00:0A:00:00:00:00;1724976235;30/08/24;00:03:55;1.012;-0.023;0.094;-0.019547687843441963;-0.0024434609804302454;0.014660765416920185
01:00:0A:00:00:00:00;1724976236;30/08/24;00:03:56;1.02;-0.017;0.086;-0.02687807008624077;-0.013439035043120384;0.021991148591041565
01:00:0A:00:00:00:00;1724976237;30/08/24;00:03:57;1.021;-0.018;0.081;-0.019547687843441963;-0.0073303827084600925;-0.0024434609804302454
01:00:0A:00:00:00:00;1724976238;30/08/24;00:03:58;1.016;-0.016;0.088;-0.018325956538319588;-0.009773843921720982;-0.013439035043120384
01:00:0A:00:00:00:00;1724976239;30/08/24;00:03:59;1.006;-0.026;0.089;-0.025656338781118393;-0.024434609338641167;0.0012217304902151227
01:00:0A:00:00:00:00;1724976240;30/08/24;00:04:00;1.005;-0.03;0.086;-0.018325956538319588;-0.013439035043120384;-0.0036651913542300463
01:00:0A:00:00:00:00;1724976241;30/08/24;00:04:01;1.013;-0.021;0.093;-0.021991148591041565;-0.009773843921720982;0.012217304669320583
01:00:0A:00:00:00:00;1724976242;30/08/24;00:04:02;1.02;-0.02;0.088;-0.02687807008624077;-0.015882495790719986;0.024434609338641167
01:00:0A:00:00:00:00;1724976243;30/08/24;00:04:03;1.024;-0.016;0.085;-0.018325956538319588;-0.004886921960860491;0.0
01:00:0A:00:00:00:00;1724976244;30/08/24;00:04:04;1.016;-0.011;0.089;-0.01710422709584236;-0.0012217304902151227;-0.010995574295520782
01:00:0A:00:00:00:00;1724976245;30/08/24;00:04:05;1.009;-0.023;0.085;-0.021991148591041565;-0.01710422709584236;0.0
01:00:0A:00:00:00:00;1724976246;30/08/24;00:04:06;1.008;-0.026;0.086;-0.015882495790719986;-0.006108652334660292;-0.006108652334660292
01:00:0A:00:00:00:00;1724976247;30/08/24;00:04:07;1.012;-0.021;0.091;-0.021991148591041565;-0.00855211354792118;0.0073303827084600925
01:00:0A:00:00:00:00;1724976248;30/08/24;00:04:08;1.017;-0.019;0.085;-0.02687807008624077;-0.018325956538319588;0.015882495790719986
01:00:0A:00:00:00:00;1724976249;30/08/24;00:04:09;1.017;-0.018;0.082;-0.019547687843441963;-0.004886921960860491;-0.0012217304902151227
01:00:0A:00:00:00:00;1724976250;30/08/24;00:04:10;1.012;-0.014;0.088;-0.021991148591041565;-0.010995574295520782;-0.009773843921720982
01:00:0A:00:00:00:00;1724976251;30/08/24;00:04:11;1.008;-0.021;0.083;-0.02687807008624077;-0.02321287989616394;-0.00855211354792118
01:00:0A:00:00:00:00;1724976252;30/08/24;00:04:12;1.006;-0.024;0.083;-0.021991148591041565;-0.015882495790719986;-0.009773843921720982
01:00:0A:00:00:00:00;1724976253;30/08/24;00:04:13;1.012;-0.023;0.094;-0.02687807008624077;-0.02321287989616394;0.004886921960860491
01:00:0A:00:00:00:00;1724976254;30/08/24;00:04:14;1.021;-0.026;0.091;-0.02687807008624077;-0.015882495790719986;0.00855211354792118
01:00:0A:00:00:00:00;1724976255;30/08/24;00:04:15;1.025;-0.019;0.087;-0.021991148591041565;-0.0024434609804302454;0.0
01:00:0A:00:00:00:00;1724976256;30/08/24;00:04:16;1.02;-0.016;0.09;-0.024434609338641167;0.0012217304902151227;0.0036651913542300463
01:00:0A:00:00:00:00;1724976257;30/08/24;00:04:17;1.013;-0.023;0.085;-0.02687807008624077;-0.014660765416920185;0.0012217304902151227
01:00:0A:00:00:00:00;1724976258;30/08/24;00:04:18;1.01;-0.02;0.084;-0.02321287989616394;-0.0036651913542300463;-0.0036651913542300463
01:00:0A:00:00:00:00;1724976259;30/08/24;00:04:19;1.008;-0.02;0.089;-0.030543262138962746;-0.00855211354792118;0.006108652334660292
01:00:0A:00:00:00:00;1724976260;30/08/24;00:04:20;1.009;-0.021;0.085;-0.03298672288656235;-0.02076941914856434;0.0
01:00:0A:00:00:00:00;1724976261;30/08/24;00:04:21;1.017;-0.014;0.083;-0.03298672288656235;-0.014660765416920185;-0.0036651913542300463
01:00:0A:00:00:00:00;1724976262;30/08/24;00:04:22;1.02;-0.017;0.091;-0.039095375686883926;-0.02321287989616394;0.0
01:00:0A:00:00:00:00;1724976263;30/08/24;00:04:23;1.02;-0.021;0.09;-0.039095375686883926;-0.013439035043120384;-0.0036651913542300463
01:00:0A:00:00:00:00;1724976264;30/08/24;00:04:24;1.015;-0.02;0.085;-0.040317103266716;0.0024434609804302454;0.0012217304902151227
01:00:0A:00:00:00:00;1724976265;30/08/24;00:04:25;1.012;-0.02;0.089;-0.045204028487205505;-0.006108652334660292;0.00855211354792118
01:00:0A:00:00:00:00;1724976266;30/08/24;00:04:26;1.011;-0.018;0.083;-0.04642575979232788;-0.015882495790719986;-0.0012217304902151227
01:00:0A:00:00:00:00;1724976267;30/08/24;00:04:27;1.012;-0.017;0.082;-0.04642575979232788;-0.0073303827084600925;0.0024434609804302454
01:00:0A:00:00:00:00;1724976268;30/08/24;00:04:28;1.015;-0.018;0.088;-0.05009094998240471;-0.015882495790719986;0.0
01:00:0A:00:00:00:00;1724976269;30/08/24;00:04:29;1.016;-0.018;0.084;-0.04886921867728233;-0.019547687843441963;-0.00855211354792118
01:00:0A:00:00:00:00;1724976270;30/08/24;00:04:30;1.019;-0.017;0.087;-0.051312677562236786;-0.006108652334660292;0.0012217304902151227
01:00:0A:00:00:00:00;1724976271;30/08/24;00:04:31;1.018;-0.02;0.09;-0.05375614017248154;-0.010995574295520782;0.0012217304902151227
01:00:0A:00:00:00:00;1724976272;30/08/24;00:04:32;1.017;-0.019;0.085;-0.05253440886735916;-0.010995574295520782;-0.0073303827084600925
01:00:0A:00:00:00:00;1724976273;30/08/24;00:04:33;1.012;-0.019;0.085;-0.05375614017248154;-0.004886921960860491;-0.0024434609804302454
01:00:0A:00:00:00:00;1724976274;30/08/24;00:04:34;1.011;-0.025;0.088;-0.05742133408784866;-0.014660765416920185;0.0012217304902151227
01:00:0A:00:00:00:00;1724976275;30/08/24;00:04:35;1.013;-0.021;0.084;-0.05864306166768074;-0.021991148591041565;0.0036651913542300463
01:00:0A:00:00:00:00;1724976276;30/08/24;00:04:36;1.015;-0.018;0.087;-0.06230825558304787;-0.01710422709584236;0.010995574295520782
01:00:0A:00:00:00:00;1724976277;30/08/24;00:04:37;1.016;-0.017;0.094;-0.06352998316287994;-0.013439035043120384;0.0024434609804302454
01:00:0A:00:00:00:00;1724976278;30/08/24;00:04:38;1.016;-0.016;0.091;-0.06108652427792549;-0.00855211354792118;-0.009773843921720982
01:00:0A:00:00:00:00;1724976279;30/08/24;00:04:39;1.016;-0.02;0.088;-0.06352998316287994;0.0024434609804302454;-0.0012217304902151227
01:00:0A:00:00:00:00;1724976280;30/08/24;00:04:40;1.016;-0.024;0.084;-0.0659734457731247;-0.004886921960860491;0.0
01:00:0A:00:00:00:00;1724976281;30/08/24;00:04:41;1.015;-0.018;0.081;-0.06475171446800232;-0.015882495790719986;-0.004886921960860491
01:00:0A:00:00:00:00;1724976282;30/08/24;00:04:42;1.012;-0.018;0.086;-0.06841690838336945;-0.019547687843441963;0.0024434609804302454
01:00:0A:00:00:00:00;1724976283;30/08/24;00:04:43;1.011;-0.021;0.089;-0.06719517707824707;-0.018325956538319588;-0.0024434609804302454
01:00:0A:00:00:00:00;1724976284;30/08/24;00:04:44;1.011;-0.019;0.09;-0.06475171446800232;-0.00855211354792118;-0.010995574295520782
01:00:0A:00:00:00:00;1724976285;30/08/24;00:04:45;1.015;-0.018;0.09;-0.06719517707824707;-0.004886921960860491;-0.0036651913542300463
01:00:0A:00:00:00:00;1724976286;30/08/24;00:04:46;1.019;-0.023;0.084;-0.0659734457731247;-0.006108652334660292;-0.004886921960860491
01:00:0A:00:00:00:00;1724976287;30/08/24;00:04:47;1.021;-0.018;0.083;-0.0659734457731247;-0.010995574295520782;-0.004886921960860491
01:00:0A:00:00:00:00;1724976288;30/08/24;00:04:48;1.015;-0.02;0.088;-0.06719517707824707;-0.010995574295520782;0.0012217304902151227
01:00:0A:00:00:00:00;1724976289;30/08/24;00:04:49;1.009;-0.021;0.088;-0.06475171446800232;-0.012217304669320583;-0.004886921960860491
01:00:0A:00:00:00:00;1724976290;30/08/24;00:04:50;1.006;-0.02;0.089;-0.06352998316287994;-0.010995574295520782;-0.006108652334660292
01:00:0A:00:00:00:00;1724976291;30/08/24;00:04:51;1.016;-0.021;0.087;-0.06719517707824707;-0.015882495790719986;0.0024434609804302454
01:00:0A:00:00:00:00;1724976292;30/08/24;00:04:52;1.024;-0.022;0.088;-0.06352998316287994;-0.00855211354792118;0.0
01:00:0A:00:00:00:00;1724976293;30/08/24;00:04:53;1.023;-0.016;0.09;-0.06230825558304787;0.0036651913542300463;-0.0012217304902151227
01:00:0A:00:00:00:00;1724976294;30/08/24;00:04:54;1.016;-0.021;0.087;-0.06352998316287994;-0.0036651913542300463;0.0024434609804302454
01:00:0A:00:00:00:00;1724976295;30/08/24;00:04:55;1.0;-0.021;0.084;-0.06108652427792549;-0.012217304669320583;-0.006108652334660292
01:00:0A:00:00:00:00;1724976296;30/08/24;00:04:56;0.996;-0.019;0.084;-0.06230825558304787;-0.01710422709584236;-0.00855211354792118
01:00:0A:00:00:00:00;1724976297;30/08/24;00:04:57;1.013;-0.023;0.091;-0.06352998316287994;-0.028099799528717995;-0.013439035043120384
01:00:0A:00:00:00:00;1724976298;30/08/24;00:04:58;1.025;-0.026;0.094;-0.06352998316287994;-0.015882495790719986;-0.00855211354792118
01:00:0A:00:00:00:00;1724976299;30/08/24;00:04:59;1.033;-0.022;0.096;-0.06719517707824707;0.0036651913542300463;0.009773843921720982
01:00:0A:00:00:00:00;1724976300;30/08/24;00:05:00;1.016;-0.022;0.091;-0.06841690838336945;0.004886921960860491;0.009773843921720982
01:00:0A:00:00:00:00;1724976301;30/08/24;00:05:01;1.004;-0.019;0.085;-0.06719517707824707;0.0012217304902151227;0.0036651913542300463
01:00:0A:00:00:00:00;1724976302;30/08/24;00:05:02;0.996;-0.019;0.085;-0.06719517707824707;-0.013439035043120384;-0.004886921960860491
01:00:0A:00:00:00:00;1724976303;30/08/24;00:05:03;1.002;-0.022;0.087;-0.06963863223791122;-0.02932153083384037;-0.009773843921720982
01:00:0A:00:00:00:00;1724976304;30/08/24;00:05:04;1.023;-0.024;0.092;-0.06719517707824707;-0.02076941914856434;-0.013439035043120384
01:00:0A:00:00:00:00;1724976305;30/08/24;00:05:05;1.03;-0.025;0.096;-0.06963863223791122;-0.0036651913542300463;0.0012217304902151227
01:00:0A:00:00:00:00;1724976306;30/08/24;00:05:06;1.023;-0.023;0.091;-0.07208210229873657;0.0012217304902151227;0.009773843921720982
01:00:0A:00:00:00:00;1724976307;30/08/24;00:05:07;1.014;-0.02;0.084;-0.06841690838336945;0.0012217304902151227;0.0012217304902151227
01:00:0A:00:00:00:00;1724976308;30/08/24;00:05:08;1.002;-0.019;0.083;-0.06963863223791122;-0.0073303827084600925;0.0
01:00:0A:00:00:00:00;1724976309;30/08/24;00:05:09;1.004;-0.019;0.085;-0.06963863223791122;-0.018325956538319588;-0.0073303827084600925
01:00:0A:00:00:00:00;1724976310;30/08/24;00:05:10;1.016;-0.021;0.085;-0.06841690838336945;-0.01710422709584236;-0.0073303827084600925
01:00:0A:00:00:00:00;1724976311;30/08/24;00:05:11;1.024;-0.023;0.091;-0.06963863223791122;-0.010995574295520782;0.0012217304902151227
01:00:0A:00:00:00:00;1724976312;30/08/24;00:05:12;1.023;-0.023;0.09;-0.06963863223791122;-0.0073303827084600925;0.004886921960860491
01:00:0A:00:00:00:00;1724976313;30/08/24;00:05:13;1.014;-0.018;0.086;-0.06963863223791122;0.0;0.0073303827084600925
01:00:0A:00:00:00:00;1724976314;30/08/24;00:05:14;1.006;-0.019;0.087;-0.06841690838336945;0.0;0.006108652334660292
01:00:0A:00:00:00:00;1724976315;30/08/24;00:05:15;1.007;-0.018;0.084;-0.06719517707824707;-0.015882495790719986;-0.004886921960860491
01:00:0A:00:00:00:00;1724976316;30/08/24;00:05:16;1.012;-0.018;0.085;-0.0659734457731247;-0.015882495790719986;-0.006108652334660292
01:00:0A:00:00:00:00;1724976317;30/08/24;00:05:17;1.019;-0.023;0.09;-0.06719517707824707;-0.010995574295520782;-0.0036651913542300463
01:00:0A:00:00:00:00;1724976318;30/08/24;00:05:18;1.022;-0.022;0.089;-0.0659734457731247;-0.010995574295520782;-0.0024434609804302454
01:00:0A:00:00:00:00;1724976319;30/08/24;00:05:19;1.016;-0.018;0.087;-0.0659734457731247;-0.004886921960860491;0.004886921960860491
01:00:0A:00:00:00:00;1724976320;30/08/24;00:05:20;1.013;-0.021;0.087;-0.0659734457731247;-0.006108652334660292;0.004886921960860491
01:00:0A:00:00:00:00;1724976321;30/08/24;00:05:21;1.013;-0.022;0.086;-0.06475171446800232;-0.009773843921720982;-0.0012217304902151227
01:00:0A:00:00:00:00;1724976322;30/08/24;00:05:22;1.012;-0.019;0.085;-0.0659734457731247;-0.009773843921720982;0.0024434609804302454
01:00:0A:00:00:00:00;1724976323;30/08/24;00:05:23;1.012;-0.019;0.087;-0.06475171446800232;-0.014660765416920185;0.0012217304902151227
01:00:0A:00:00:00:00;1724976324;30/08/24;00:05:24;1.013;-0.019;0.087;-0.06352998316287994;-0.014660765416920185;-0.004886921960860491
01:00:0A:00:00:00:00;1724976325;30/08/24;00:05:25;1.011;-0.018;0.085;-0.0659734457731247;-0.014660765416920185;0.0024434609804302454
01:00:0A:00:00:00:00;1724976326;30/08/24;00:05:26;1.014;-0.022;0.09;-0.06475171446800232;-0.014660765416920185;-0.0012217304902151227
01:00:0A:00:00:00:00;1724976327;30/08/24;00:05:27;1.017;-0.019;0.088;-0.06230825558304787;-0.010995574295520782;-0.0073303827084600925
01:00:0A:00:00:00:00;1724976328;30/08/24;00:05:28;1.02;-0.019;0.087;-0.06352998316287994;-0.00855211354792118;-0.0012217304902151227
01:00:0A:00:00:00:00;1724976329;30/08/24;00:05:29;1.017;-0.023;0.088;-0.06352998316287994;-0.006108652334660292;0.004886921960860491
01:00:0A:00:00:00:00;1724976330;30/08/24;00:05:30;1.015;-0.019;0.086;-0.06230825558304787;-0.00855211354792118;0.0
01:00:0A:00:00:00:00;1724976331;30/08/24;00:05:31;1.011;-0.017;0.086;-0.06352998316287994;-0.00855211354792118;0.0024434609804302454
01:00:0A:00:00:00:00;1724976332;30/08/24;00:05:32;1.011;-0.019;0.086;-0.06230825558304787;-0.009773843921720982;-0.0024434609804302454
01:00:0A:00:00:00:00;1724976333;30/08/24;00:05:33;1.013;-0.019;0.086;-0.059864792972803116;-0.012217304669320583;-0.004886921960860491
01:00:0A:00:00:00:00;1724976334;30/08/24;00:05:34;1.015;-0.018;0.087;-0.06230825558304787;-0.013439035043120384;0.0036651913542300463
01:00:0A:00:00:00:00;1724976335;30/08/24;00:05:35;1.015;-0.02;0.086;-0.059864792972803116;-0.014660765416920185;-0.0036651913542300463
01:00:0A:00:00:00:00;1724976336;30/08/24;00:05:36;1.013;-0.018;0.088;-0.05742133408784866;-0.013439035043120384;-0.006108652334660292
01:00:0A:00:00:00:00;1724976337;30/08/24;00:05:37;1.014;-0.02;0.089;-0.059864792972803116;-0.009773843921720982;0.0024434609804302454
01:00:0A:00:00:00:00;1724976338;30/08/24;00:05:38;1.016;-0.022;0.088;-0.05742133408784866;-0.0073303827084600925;0.0024434609804302454
01:00:0A:00:00:00:00;1724976339;30/08/24;00:05:39;1.018;-0.018;0.088;-0.05619959905743599;-0.004886921960860491;0.0012217304902151227
01:00:0A:00:00:00:00;1724976340;30/08/24;00:05:40;1.016;-0.018;0.086;-0.05742133408784866;-0.00855211354792118;0.0036651913542300463
01:00:0A:00:00:00:00;1724976341;30/08/24;00:05:41;1.014;-0.02;0.086;-0.05497787147760391;-0.010995574295520782;0.0
01:00:0A:00:00:00:00;1724976342;30/08/24;00:05:42;1.007;-0.018;0.087;-0.05253440886735916;-0.012217304669320583;-0.0073303827084600925
01:00:0A:00:00:00:00;1724976343;30/08/24;00:05:43;1.008;-0.021;0.088;-0.05497787147760391;-0.01710422709584236;0.0
01:00:0A:00:00:00:00;1724976344;30/08/24;00:05:44;1.013;-0.024;0.088;-0.05375614017248154;-0.010995574295520782;0.0012217304902151227
01:00:0A:00:00:00:00;1724976345;30/08/24;00:05:45;1.017;-0.02;0.087;-0.05253440886735916;-0.013439035043120384;0.0024434609804302454
01:00:0A:00:00:00:00;1724976346;30/08/24;00:05:46;1.02;-0.018;0.088;-0.05375614017248154;-0.015882495790719986;0.004886921960860491
01:00:0A:00:00:00:00;1724976347;30/08/24;00:05:47;1.016;-0.019;0.087;-0.05009094998240471;-0.00855211354792118;-0.0036651913542300463
01:00:0A:00:00:00:00;1724976348;30/08/24;00:05:48;1.013;-0.019;0.09;-0.04886921867728233;-0.0073303827084600925;-0.0073303827084600925
01:00:0A:00:00:00:00;1724976349;30/08/24;00:05:49;1.011;-0.023;0.088;-0.051312677562236786;-0.010995574295520782;0.0036651913542300463
01:00:0A:00:00:00:00;1724976350;30/08/24;00:05:50;1.012;-0.025;0.085;-0.04886921867728233;-0.009773843921720982;0.0036651913542300463
01:00:0A:00:00:00:00;1724976351;30/08/24;00:05:51;1.015;-0.019;0.089;-0.04886921867728233;-0.010995574295520782;0.006108652334660292
01:00:0A:00:00:00:00;1724976352;30/08/24;00:05:52;1.016;-0.017;0.088;-0.05009094998240471;-0.012217304669320583;0.004886921960860491
01:00:0A:00:00:00:00;1724976353;30/08/24;00:05:53;1.016;-0.019;0.086;-0.04642575979232788;-0.0073303827084600925;-0.006108652334660292
01:00:0A:00:00:00:00;1724976354;30/08/24;00:05:54;1.014;-0.021;0.088;-0.045204028487205505;-0.0073303827084600925;-0.00855211354792118
01:00:0A:00:00:00:00;1724976355;30/08/24;00:05:55;1.013;-0.024;0.087;-0.04764748737215996;-0.013439035043120384;-0.0012217304902151227
01:00:0A:00:00:00:00;1724976356;30/08/24;00:05:56;1.015;-0.025;0.084;-0.04642575979232788;-0.012217304669320583;0.006108652334660292
01:00:0A:00:00:00:00;1724976357;30/08/24;00:05:57;1.016;-0.019;0.088;-0.04642575979232788;-0.015882495790719986;0.00855211354792118
01:00:0A:00:00:00:00;1724976358;30/08/24;00:05:58;1.016;-0.018;0.091;-0.04642575979232788;-0.014660765416920185;0.0024434609804302454
01:00:0A:00:00:00:00;1724976359;30/08/24;00:05:59;1.015;-0.018;0.089;-0.042760565876960754;-0.0036651913542300463;-0.0024434609804302454
01:00:0A:00:00:00:00;1724976360;30/08/24;00:06:00;1.015;-0.02;0.088;-0.04153883829712868;-0.0012217304902151227;-0.006108652334660292
01:00:0A:00:00:00:00;1724976361;30/08/24;00:06:01;1.012;-0.023;0.083;-0.042760565876960754;-0.009773843921720982;-0.0036651913542300463
01:00:0A:00:00:00:00;1724976362;30/08/24;00:06:02;1.012;-0.022;0.084;-0.04153883829712868;-0.014660765416920185;0.0
01:00:0A:00:00:00:00;1724976363;30/08/24;00:06:03;1.013;-0.022;0.088;-0.042760565876960754;-0.01710422709584236;0.0036651913542300463
01:00:0A:00:00:00:00;1724976364;30/08/24;00:06:04;1.016;-0.02;0.09;-0.042760565876960754;-0.014660765416920185;0.0036651913542300463
01:00:0A:00:00:00:00;1724976365;30/08/24;00:06:05;1.016;-0.018;0.088;-0.040317103266716;-0.0024434609804302454;-0.0036651913542300463
01:00:0A:00:00:00:00;1724976366;30/08/24;00:06:06;1.015;-0.02;0.088;-0.040317103266716;-0.0036651913542300463;-0.0024434609804302454
01:00:0A:00:00:00:00;1724976367;30/08/24;00:06:07;1.013;-0.021;0.085;-0.04153883829712868;-0.012217304669320583;-0.0024434609804302454
01:00:0A:00:00:00:00;1724976368;30/08/24;00:06:08;1.014;-0.021;0.085;-0.04153883829712868;-0.010995574295520782;0.0024434609804302454
01:00:0A:00:00:00:00;1724976369;30/08/24;00:06:09;1.014;-0.019;0.088;-0.042760565876960754;-0.014660765416920185;0.006108652334660292
01:00:0A:00:00:00:00;1724976370;30/08/24;00:06:10;1.015;-0.02;0.088;-0.04153883829712868;-0.014660765416920185;0.0012217304902151227
01:00:0A:00:00:00:00;1724976371;30/08/24;00:06:11;1.014;-0.018;0.089;-0.04153883829712868;-0.006108652334660292;0.0
01:00:0A:00:00:00:00;1724976372;30/08/24;00:06:12;1.015;-0.021;0.088;-0.042760565876960754;-0.006108652334660292;-0.0012217304902151227
01:00:0A:00:00:00:00;1724976373;30/08/24;00:06:13;1.015;-0.021;0.086;-0.042760565876960754;-0.012217304669320583;-0.0036651913542300463
01:00:0A:00:00:00:00;1724976374;30/08/24;00:06:14;1.014;-0.021;0.086;-0.042760565876960754;-0.014660765416920185;0.0
01:00:0A:00:00:00:00;1724976375;30/08/24;00:06:15;1.014;-0.023;0.09;-0.045204028487205505;-0.014660765416920185;0.004886921960860491
01:00:0A:00:00:00:00;1724976376;30/08/24;00:06:16;1.015;-0.022;0.089;-0.04398229718208313;-0.012217304669320583;0.0036651913542300463
01:00:0A:00:00:00:00;1724976377;30/08/24;00:06:17;1.014;-0.018;0.088;-0.045204028487205505;-0.0073303827084600925;0.0036651913542300463
01:00:0A:00:00:00:00;1724976378;30/08/24;00:06:18;1.013;-0.021;0.086;-0.04398229718208313;-0.00855211354792118;0.0
01:00:0A:00:00:00:00;1724976379;30/08/24;00:06:19;1.013;-0.021;0.085;-0.04398229718208313;-0.013439035043120384;-0.0036651913542300463
01:00:0A:00:00:00:00;1724976380;30/08/24;00:06:20;1.013;-0.02;0.086;-0.045204028487205505;-0.013439035043120384;0.0036651913542300463
01:00:0A:00:00:00:00;1724976381;30/08/24;00:06:21;1.014;-0.022;0.089;-0.045204028487205505;-0.015882495790719986;0.0012217304902151227
01:00:0A:00:00:00:00;1724976382;30/08/24;00:06:22;1.015;-0.019;0.089;-0.04398229718208313;-0.012217304669320583;-0.0036651913542300463
01:00:0A:00:00:00:00;1724976383;30/08/24;00:06:23;1.016;-0.019;0.086;-0.045204028487205505;-0.0073303827084600925;0.0012217304902151227
01:00:0A:00:00:00:00;1724976384;30/08/24;00:06:24;1.014;-0.022;0.086;-0.045204028487205505;-0.009773843921720982;0.0012217304902151227
01:00:0A:00:00:00:00;1724976385;30/08/24;00:06:25;1.015;-0.019;0.085;-0.042760565876960754;-0.012217304669320583;-0.0024434609804302454
01:00:0A:00:00:00:00;1724976386;30/08/24;00:06:26;1.015;-0.019;0.087;-0.045204028487205505;-0.013439035043120384;0.0024434609804302454
01:00:0A:00:00:00:00;1724976387;30/08/24;00:06:27;1.014;-0.023;0.088;-0.045204028487205505;-0.012217304669320583;0.0024434609804302454
01:00:0A:00:00:00:00;1724976388;30/08/24;00:06:28;1.014;-0.02;0.088;-0.042760565876960754;-0.00855211354792118;0.0
01:00:0A:00:00:00:00;1724976389;30/08/24;00:06:29;1.013;-0.019;0.087;-0.045204028487205505;-0.0073303827084600925;0.0036651913542300463
01:00:0A:00:00:00:00;1724976390;30/08/24;00:06:30;1.012;-0.02;0.084;-0.042760565876960754;-0.010995574295520782;-0.0012217304902151227
01:00:0A:00:00:00:00;1724976391;30/08/24;00:06:31;1.015;-0.02;0.085;-0.04153883829712868;-0.015882495790719986;-0.006108652334660292
01:00:0A:00:00:00:00;1724976392;30/08/24;00:06:32;1.016;-0.02;0.09;-0.045204028487205505;-0.01710422709584236;0.0036651913542300463
01:00:0A:00:00:00:00;1724976393;30/08/24;00:06:33;1.016;-0.022;0.089;-0.042760565876960754;-0.012217304669320583;0.0012217304902151227
01:00:0A:00:00:00:00;1724976394;30/08/24;00:06:34;1.016;-0.021;0.089;-0.040317103266716;-0.0036651913542300463;-0.0012217304902151227
01:00:0A:00:00:00:00;1724976395;30/08/24;00:06:35;1.014;-0.019;0.087;-0.04398229718208313;-0.004886921960860491;0.0073303827084600925
01:00:0A:00:00:00:00;1724976396;30/08/24;00:06:36;1.012;-0.021;0.083;-0.042760565876960754;-0.013439035043120384;0.0012217304902151227
01:00:0A:00:00:00:00;1724976397;30/08/24;00:06:37;1.012;-0.017;0.086;-0.040317103266716;-0.014660765416920185;-0.004886921960860491
01:00:0A:00:00:00:00;1724976398;30/08/24;00:06:38;1.016;-0.02;0.089;-0.042760565876960754;-0.01710422709584236;-0.0012217304902151227
01:00:0A:00:00:00:00;1724976399;30/08/24;00:06:39;1.016;-0.024;0.087;-0.04153883829712868;-0.012217304669320583;-0.0024434609804302454
01:00:0A:00:00:00:00;1724976400;30/08/24;00:06:40;1.016;-0.02;0.089;-0.04153883829712868;-0.0024434609804302454;0.0036651913542300463
01:00:0A:00:00:00:00;1724976401;30/08/24;00:06:41;1.013;-0.019;0.087;-0.04398229718208313;-0.0073303827084600925;0.00855211354792118
01:00:0A:00:00:00:00;1724976402;30/08/24;00:06:42;1.011;-0.02;0.082;-0.04153883829712868;-0.009773843921720982;0.0024434609804302454
01:00:0A:00:00:00:00;1724976403;30/08/24;00:06:43;1.012;-0.017;0.086;-0.040317103266716;-0.015882495790719986;-0.006108652334660292
01:00:0A:00:00:00:00;1724976404;30/08/24;00:06:44;1.015;-0.022;0.088;-0.04398229718208313;-0.02321287989616394;-0.0024434609804302454
01:00:0A:00:00:00:00;1724976405;30/08/24;00:06:45;1.017;-0.024;0.088;-0.04153883829712868;-0.012217304669320583;-0.0012217304902151227
01:00:0A:00:00:00:00;1724976406;30/08/24;00:06:46;1.016;-0.021;0.091;-0.04153883829712868;-0.004886921960860491;0.0024434609804302454
01:00:0A:00:00:00:00;1724976407;30/08/24;00:06:47;1.015;-0.022;0.087;-0.04642575979232788;-0.00855211354792118;0.00855211354792118
01:00:0A:00:00:00:00;1724976408;30/08/24;00:06:48;1.012;-0.02;0.083;-0.042760565876960754;-0.009773843921720982;0.0012217304902151227
01:00:0A:00:00:00:00;1724976409;30/08/24;00:06:49;1.012;-0.018;0.088;-0.042760565876960754;-0.013439035043120384;-0.004886921960860491
01:00:0A:00:00:00:00;1724976410;30/08/24;00:06:50;1.016;-0.021;0.089;-0.045204028487205505;-0.015882495790719986;-0.004886921960860491
01:00:0A:00:00:00:00;1724976411;30/08/24;00:06:51;1.017;-0.024;0.086;-0.042760565876960754;-0.009773843921720982;-0.004886921960860491
01:00:0A:00:00:00:00;1724976412;30/08/24;00:06:52;1.018;-0.022;0.089;-0.045204028487205505;-0.004886921960860491;0.006108652334660292
01:00:0A:00:00:00:00;1724976413;30/08/24;00:06:53;1.014;-0.02;0.088;-0.04886921867728233;-0.012217304669320583;0.009773843921720982
01:00:0A:00:00:00:00;1724976414;30/08/24;00:06:54;1.011;-0.018;0.086;-0.04642575979232788;-0.009773843921720982;0.0
01:00:0A:00:00:00:00;1724976415;30/08/24;00:06:55;1.01;-0.017;0.089;-0.04642575979232788;-0.009773843921720982;-0.0024434609804302454
01:00:0A:00:00:00:00;1724976416;30/08/24;00:06:56;1.014;-0.021;0.088;-0.04764748737215996;-0.018325956538319588;-0.0073303827084600925
01:00:0A:00:00:00:00;1724976417;30/08/24;00:06:57;1.017;-0.022;0.086;-0.04764748737215996;-0.009773843921720982;-0.006108652334660292
01:00:0A:00:00:00:00;1724976418;30/08/24;00:06:58;1.017;-0.022;0.09;-0.04886921867728233;-0.006108652334660292;0.0036651913542300463
01:00:0A:00:00:00:00;1724976419;30/08/24;00:06:59;1.014;-0.022;0.087;-0.051312677562236786;-0.014660765416920185;0.006108652334660292
01:00:0A:00:00:00:00;1724976420;30/08/24;00:07:00;1.012;-0.018;0.085;-0.05009094998240471;-0.009773843921720982;0.0024434609804302454
01:00:0A:00:00:00:00;1724976421;30/08/24;00:07:01;1.011;-0.018;0.089;-0.05009094998240471;-0.00855211354792118;-0.0024434609804302454
01:00:0A:00:00:00:00;1724976422;30/08/24;00:07:02;1.013;-0.02;0.088;-0.051312677562236786;-0.015882495790719986;-0.006108652334660292
01:00:0A:00:00:00:00;1724976423;30/08/24;00:07:03;1.017;-0.021;0.084;-0.05009094998240471;-0.00855211354792118;-0.004886921960860491
01:00:0A:00:00:00:00;1724976424;30/08/24;00:07:04;1.017;-0.023;0.089;-0.05253440886735916;-0.009773843921720982;0.0036651913542300463
01:00:0A:00:00:00:00;1724976425;30/08/24;00:07:05;1.016;-0.022;0.088;-0.05375614017248154;-0.015882495790719986;0.0036651913542300463
01:00:0A:00:00:00:00;1724976426;30/08/24;00:07:06;1.015;-0.019;0.087;-0.05253440886735916;-0.0073303827084600925;0.0036651913542300463
01:00:0A:00:00:00:00;1724976427;30/08/24;00:07:07;1.012;-0.019;0.089;-0.05375614017248154;-0.0073303827084600925;0.0024434609804302454
01:00:0A:00:00:00:00;1724976428;30/08/24;00:07:08;1.014;-0.02;0.086;-0.05253440886735916;-0.015882495790719986;-0.006108652334660292
01:00:0A:00:00:00:00;1724976429;30/08/24;00:07:09;1.014;-0.02;0.084;-0.05253440886735916;-0.00855211354792118;-0.0024434609804302454
01:00:0A:00:00:00:00;1724976430;30/08/24;00:07:10;1.015;-0.022;0.089;-0.05375614017248154;-0.012217304669320583;0.0024434609804302454
01:00:0A:00:00:00:00;1724976431;30/08/24;00:07:11;1.014;-0.022;0.087;-0.05253440886735916;-0.01710422709584236;-0.0024434609804302454
01:00:0A:00:00:00:00;1724976432;30/08/24;00:07:12;1.015;-0.018;0.086;-0.05253440886735916;-0.009773843921720982;0.0
01:00:0A:00:00:00:00;1724976433;30/08/24;00:07:13;1.014;-0.022;0.09;-0.05375614017248154;-0.010995574295520782;-0.0012217304902151227
01:00:0A:00:00:00:00;1724976434;30/08/24;00:07:14;1.016;-0.021;0.085;-0.05253440886735916;-0.012217304669320583;-0.004886921960860491
01:00:0A:00:00:00:00;1724976435;30/08/24;00:07:15;1.016;-0.018;0.084;-0.05375614017248154;-0.00855211354792118;0.0012217304902151227
01:00:0A:00:00:00:00;1724976436;30/08/24;00:07:16;1.014;-0.022;0.088;-0.05375614017248154;-0.009773843921720982;0.0024434609804302454
01:00:0A:00:00:00:00;1724976437;30/08/24;00:07:17;1.013;-0.021;0.086;-0.05253440886735916;-0.015882495790719986;-0.0036651913542300463
01:00:0A:00:00:00:00;1724976438;30/08/24;00:07:18;1.014;-0.018;0.087;-0.05375614017248154;-0.00855211354792118;0.0036651913542300463
01:00:0A:00:00:00:00;1724976439;30/08/24;00:07:19;1.014;-0.022;0.089;-0.05375614017248154;-0.009773843921720982;0.0012217304902151227
01:00:0A:00:00:00:00;1724976440;30/08/24;00:07:20;1.016;-0.019;0.086;-0.05009094998240471;-0.012217304669320583;-0.006108652334660292
01:00:0A:00:00:00:00;1724976441;30/08/24;00:07:21;1.015;-0.019;0.084;-0.05375614017248154;-0.0073303827084600925;0.0036651913542300463
01:00:0A:00:00:00:00;1724976442;30/08/24;00:07:22;1.014;-0.023;0.088;-0.05253440886735916;-0.012217304669320583;0.0024434609804302454
01:00:0A:00:00:00:00;1724976443;30/08/24;00:07:23;1.014;-0.02;0.087;-0.05009094998240471;-0.013439035043120384;-0.004886921960860491
01:00:0A:00:00:00:00;1724976444;30/08/24;00:07:24;1.014;-0.019;0.088;-0.05253440886735916;-0.00855211354792118;0.0036651913542300463
01:00:0A:00:00:00:00;1724976445;30/08/24;00:07:25;1.015;-0.023;0.088;-0.051312677562236786;-0.00855211354792118;0.0
01:00:0A:00:00:00:00;1724976446;30/08/24;00:07:26;1.016;-0.019;0.086;-0.04886921867728233;-0.010995574295520782;-0.0036651913542300463
01:00:0A:00:00:00:00;1724976447;30/08/24;00:07:27;1.016;-0.018;0.086;-0.05253440886735916;-0.009773843921720982;0.004886921960860491
01:00:0A:00:00:00:00;1724976448;30/08/24;00:07:28;1.013;-0.023;0.086;-0.051312677562236786;-0.013439035043120384;0.0
01:00:0A:00:00:00:00;1724976449;30/08/24;00:07:29;1.011;-0.018;0.087;-0.04764748737215996;-0.013439035043120384;-0.0073303827084600925
01:00:0A:00:00:00:00;1724976450;30/08/24;00:07:30;1.014;-0.02;0.088;-0.05253440886735916;-0.012217304669320583;0.0036651913542300463
01:00:0A:00:00:00:00;1724976451;30/08/24;00:07:31;1.016;-0.023;0.088;-0.05009094998240471;-0.010995574295520782;0.0
01:00:0A:00:00:00:00;1724976452;30/08/24;00:07:32;1.017;-0.019;0.088;-0.04764748737215996;-0.0073303827084600925;-0.004886921960860491
01:00:0A:00:00:00:00;1724976453;30/08/24;00:07:33;1.016;-0.019;0.087;-0.05253440886735916;-0.00855211354792118;0.006108652334660292
01:00:0A:00:00:00:00;1724976454;30/08/24;00:07:34;1.013;-0.022;0.085;-0.04886921867728233;-0.010995574295520782;-0.0012217304902151227
01:00:0A:00:00:00:00;1724976455;30/08/24;00:07:35;1.01;-0.019;0.088;-0.04764748737215996;-0.012217304669320583;-0.006108652334660292
01:00:0A:00:00:00:00;1724976456;30/08/24;00:07:36;1.012;-0.019;0.089;-0.051312677562236786;-0.013439035043120384;0.004886921960860491
01:00:0A:00:00:00:00;1724976457;30/08/24;00:07:37;1.015;-0.024;0.087;-0.04886921867728233;-0.010995574295520782;-0.0024434609804302454
01:00:0A:00:00:00:00;1724976458;30/08/24;00:07:38;1.017;-0.019;0.087;-0.04764748737215996;-0.009773843921720982;-0.0024434609804302454
01:00:0A:00:00:00:00;1724976459;30/08/24;00:07:39;1.018;-0.019;0.087;-0.051312677562236786;-0.012217304669320583;0.0036651913542300463
01:00:0A:00:00:00:00;1724976460;30/08/24;00:07:40;1.016;-0.024;0.086;-0.04764748737215996;-0.00855211354792118;-0.0024434609804302454
01:00:0A:00:00:00:00;1724976461;30/08/24;00:07:41;1.012;-0.018;0.088;-0.04642575979232788;-0.0073303827084600925;-0.0036651913542300463
01:00:0A:00:00:00:00;1724976462;30/08/24;00:07:42;1.012;-0.022;0.086;-0.05009094998240471;-0.013439035043120384;0.004886921960860491
01:00:0A:00:00:00:00;1724976463;30/08/24;00:07:43;1.015;-0.023;0.085;-0.04642575979232788;-0.012217304669320583;-0.0012217304902151227
01:00:0A:00:00:00:00;1724976464;30/08/24;00:07:44;1.018;-0.019;0.089;-0.045204028487205505;-0.00855211354792118;-0.0024434609804302454
01:00:0A:00:00:00:00;1724976465;30/08/24;00:07:45;1.018;-0.021;0.088;-0.04886921867728233;-0.012217304669320583;0.0036651913542300463
01:00:0A:00:00:00:00;1724976466;30/08/24;00:07:46;1.014;-0.023;0.085;-0.045204028487205505;-0.0073303827084600925;-0.0024434609804302454
01:00:0A:00:00:00:00;1724976467;30/08/24;00:07:47;1.01;-0.02;0.087;-0.04398229718208313;-0.0073303827084600925;-0.0012217304902151227
01:00:0A:00:00:00:00;1724976468;30/08/24;00:07:48;1.012;-0.021;0.087;-0.04764748737215996;-0.015882495790719986;0.004886921960860491
01:00:0A:00:00:00:00;1724976469;30/08/24;00:07:49;1.014;-0.022;0.084;-0.042760565876960754;-0.009773843921720982;-0.0012217304902151227
01:00:0A:00:00:00:00;1724976470;30/08/24;00:07:50;1.017;-0.019;0.089;-0.042760565876960754;-0.009773843921720982;0.0
01:00:0A:00:00:00:00;1724976471;30/08/24;00:07:51;1.019;-0.02;0.088;-0.045204028487205505;-0.012217304669320583;0.0036651913542300463
01:00:0A:00:00:00:00;1724976472;30/08/24;00:07:52;1.016;-0.022;0.086;-0.04153883829712868;-0.004886921960860491;-0.0012217304902151227
01:00:0A:00:00:00:00;1724976473;30/08/24;00:07:53;1.01;-0.019;0.088;-0.042760565876960754;-0.006108652334660292;0.0024434609804302454
01:00:0A:00:00:00:00;1724976474;30/08/24;00:07:54;1.011;-0.021;0.085;-0.04398229718208313;-0.01710422709584236;0.0024434609804302454
01:00:0A:00:00:00:00;1724976475;30/08/24;00:07:55;1.013;-0.022;0.085;-0.040317103266716;-0.012217304669320583;-0.0024434609804302454
01:00:0A:00:00:00:00;1724976476;30/08/24;00:07:56;1.016;-0.019;0.091;-0.04153883829712868;-0.009773843921720982;0.0012217304902151227
01:00:0A:00:00:00:00;1724976477;30/08/24;00:07:57;1.016;-0.021;0.088;-0.042760565876960754;-0.010995574295520782;0.0012217304902151227
01:00:0A:00:00:00:00;1724976478;30/08/24;00:07:58;1.016;-0.021;0.085;-0.039095375686883926;-0.0036651913542300463;0.0012217304902151227
01:00:0A:00:00:00:00;1724976479;30/08/24;00:07:59;1.012;-0.021;0.087;-0.040317103266716;-0.006108652334660292;0.0024434609804302454
01:00:0A:00:00:00:00;1724976480;30/08/24;00:08:00;1.012;-0.022;0.087;-0.04153883829712868;-0.015882495790719986;0.0012217304902151227
01:00:0A:00:00:00:00;1724976481;30/08/24;00:08:01;1.013;-0.021;0.085;-0.03787364438176155;-0.009773843921720982;-0.0012217304902151227
01:00:0A:00:00:00:00;1724976482;30/08/24;00:08:02;1.016;-0.021;0.09;-0.040317103266716;-0.010995574295520782;0.0024434609804302454
01:00:0A:00:00:00:00;1724976483;30/08/24;00:08:03;1.016;-0.021;0.087;-0.040317103266716;-0.013439035043120384;0.0012217304902151227
01:00:0A:00:00:00:00;1724976484;30/08/24;00:08:04;1.015;-0.019;0.085;-0.039095375686883926;-0.006108652334660292;0.0012217304902151227
01:00:0A:00:00:00:00;1724976485;30/08/24;00:08:05;1.014;-0.021;0.088;-0.040317103266716;-0.00855211354792118;0.0036651913542300463
01:00:0A:00:00:00:00;1724976486;30/08/24;00:08:06;1.011;-0.021;0.085;-0.039095375686883926;-0.01710422709584236;-0.0012217304902151227
01:00:0A:00:00:00:00;1724976487;30/08/24;00:08:07;1.014;-0.019;0.087;-0.039095375686883926;-0.009773843921720982;0.0
01:00:0A:00:00:00:00;1724976488;30/08/24;00:08:08;1.017;-0.022;0.091;-0.040317103266716;-0.009773843921720982;0.0036651913542300463
01:00:0A:00:00:00:00;1724976489;30/08/24;00:08:09;1.016;-0.022;0.087;-0.039095375686883926;-0.012217304669320583;0.0
01:00:0A:00:00:00:00;1724976490;30/08/24;00:08:10;1.014;-0.019;0.086;-0.039095375686883926;-0.004886921960860491;0.0024434609804302454
01:00:0A:00:00:00:00;1724976491;30/08/24;00:08:11;1.014;-0.021;0.087;-0.039095375686883926;-0.010995574295520782;0.0024434609804302454
01:00:0A:00:00:00:00;1724976492;30/08/24;00:08:12;1.013;-0.02;0.085;-0.03787364438176155;-0.013439035043120384;-0.0036651913542300463
01:00:0A:00:00:00:00;1724976493;30/08/24;00:08:13;1.016;-0.018;0.086;-0.03787364438176155;-0.009773843921720982;0.0024434609804302454
01:00:0A:00:00:00:00;1724976494;30/08/24;00:08:14;1.015;-0.022;0.089;-0.03787364438176155;-0.009773843921720982;0.0024434609804302454
01:00:0A:00:00:00:00;1724976495;30/08/24;00:08:15;1.014;-0.02;0.088;-0.036651913076639175;-0.012217304669320583;-0.0024434609804302454
01:00:0A:00:00:00:00;1724976496;30/08/24;00:08:16;1.014;-0.02;0.086;-0.03787364438176155;-0.006108652334660292;0.0036651913542300463
01:00:0A:00:00:00:00;1724976497;30/08/24;00:08:17;1.013;-0.022;0.087;-0.03787364438176155;-0.010995574295520782;0.0036651913542300463
01:00:0A:00:00:00:00;1724976498;30/08/24;00:08:18;1.013;-0.02;0.085;-0.03420845419168472;-0.014660765416920185;-0.0036651913542300463
01:00:0A:00:00:00:00;1724976499;30/08/24;00:08:19;1.016;-0.019;0.087;-0.036651913076639175;-0.009773843921720982;0.0024434609804302454
01:00:0A:00:00:00:00;1724976500;30/08/24;00:08:20;1.016;-0.023;0.089;-0.036651913076639175;-0.009773843921720982;0.0036651913542300463
01:00:0A:00:00:00:00;1724976501;30/08/24;00:08:21;1.015;-0.02;0.087;-0.03420845419168472;-0.009773843921720982;-0.0024434609804302454
01:00:0A:00:00:00:00;1724976502;30/08/24;00:08:22;1.013;-0.017;0.086;-0.036651913076639175;-0.00855211354792118;0.004886921960860491
01:00:0A:00:00:00:00;1724976503;30/08/24;00:08:23;1.012;-0.022;0.088;-0.0354301817715168;-0.012217304669320583;0.0
01:00:0A:00:00:00:00;1724976504;30/08/24;00:08:24;1.015;-0.02;0.086;-0.03298672288656235;-0.013439035043120384;-0.004886921960860491
01:00:0A:00:00:00:00;1724976505;30/08/24;00:08:25;1.016;-0.019;0.088;-0.0354301817715168;-0.012217304669320583;0.004886921960860491
01:00:0A:00:00:00:00;1724976506;30/08/24;00:08:26;1.016;-0.023;0.089;-0.03298672288656235;-0.010995574295520782;0.0036651913542300463
01:00:0A:00:00:00:00;1724976507;30/08/24;00:08:27;1.015;-0.019;0.088;-0.030543262138962746;-0.00855211354792118;-0.0012217304902151227
01:00:0A:00:00:00:00;1724976508;30/08/24;00:08:28;1.012;-0.019;0.086;-0.03298672288656235;-0.009773843921720982;0.004886921960860491
01:00:0A:00:00:00:00;1724976509;30/08/24;00:08:29;1.013;-0.023;0.085;-0.03176499158143997;-0.014660765416920185;0.0012217304902151227
01:00:0A:00:00:00:00;1724976510;30/08/24;00:08:30;1.016;-0.019;0.086;-0.028099799528717995;-0.015882495790719986;-0.004886921960860491
01:00:0A:00:00:00:00;1724976511;30/08/24;00:08:31;1.016;-0.02;0.089;-0.030543262138962746;-0.013439035043120384;0.0036651913542300463
01:00:0A:00:00:00:00;1724976512;30/08/24;00:08:32;1.017;-0.024;0.089;-0.028099799528717995;-0.009773843921720982;0.0012217304902151227
01:00:0A:00:00:00:00;1724976513;30/08/24;00:08:33;1.013;-0.019;0.086;-0.025656338781118393;-0.0073303827084600925;-0.0012217304902151227
01:00:0A:00:00:00:00;1724976514;30/08/24;00:08:34;1.012;-0.02;0.086;-0.02932153083384037;-0.00855211354792118;0.0073303827084600925
01:00:0A:00:00:00:00;1724976515;30/08/24;00:08:35;1.013;-0.021;0.084;-0.025656338781118393;-0.013439035043120384;-0.0024434609804302454
01:00:0A:00:00:00:00;1724976516;30/08/24;00:08:36;1.014;-0.019;0.086;-0.02321287989616394;-0.013439035043120384;-0.0024434609804302454
01:00:0A:00:00:00:00;1724976517;30/08/24;00:08:37;1.016;-0.021;0.088;-0.02687807008624077;-0.014660765416920185;0.004886921960860491
01:00:0A:00:00:00:00;1724976518;30/08/24;00:08:38;1.016;-0.024;0.088;-0.02321287989616394;-0.00855211354792118;0.0024434609804302454
01:00:0A:00:00:00:00;1724976519;30/08/24;00:08:39;1.015;-0.019;0.087;-0.021991148591041565;-0.004886921960860491;0.0012217304902151227
01:00:0A:00:00:00:00;1724976520;30/08/24;00:08:40;1.012;-0.02;0.087;-0.024434609338641167;-0.009773843921720982;0.006108652334660292
01:00:0A:00:00:00:00;1724976521;30/08/24;00:08:41;1.011;-0.022;0.083;-0.02076941914856434;-0.012217304669320583;0.0
01:00:0A:00:00:00:00;1724976522;30/08/24;00:08:42;1.015;-0.018;0.087;-0.019547687843441963;-0.013439035043120384;-0.0036651913542300463
01:00:0A:00:00:00:00;1724976523;30/08/24;00:08:43;1.016;-0.021;0.089;-0.02321287989616394;-0.015882495790719986;0.0036651913542300463
01:00:0A:00:00:00:00;1724976524;30/08/24;00:08:44;1.016;-0.023;0.087;-0.019547687843441963;-0.00855211354792118;0.0012217304902151227
01:00:0A:00:00:00:00;1724976525;30/08/24;00:08:45;1.015;-0.019;0.088;-0.018325956538319588;-0.004886921960860491;0.0024434609804302454
01:00:0A:00:00:00:00;1724976526;30/08/24;00:08:46;1.012;-0.02;0.087;-0.021991148591041565;-0.010995574295520782;0.00855211354792118
01:00:0A:00:00:00:00;1724976527;30/08/24;00:08:47;1.013;-0.022;0.085;-0.01710422709584236;-0.012217304669320583;-0.0024434609804302454
01:00:0A:00:00:00:00;1724976528;30/08/24;00:08:48;1.015;-0.019;0.088;-0.01710422709584236;-0.013439035043120384;-0.0024434609804302454
01:00:0A:00:00:00:00;1724976529;30/08/24;00:08:49;1.016;-0.021;0.089;-0.02076941914856434;-0.014660765416920185;0.004886921960860491
01:00:0A:00:00:00:00;1724976530;30/08/24;00:08:50;1.017;-0.023;0.087;-0.015882495790719986;-0.00855211354792118;0.0012217304902151227
01:00:0A:00:00:00:00;1724976531;30/08/24;00:08:51;1.016;-0.019;0.089;-0.01710422709584236;-0.004886921960860491;0.0024434609804302454
01:00:0A:00:00:00:00;1724976532;30/08/24;00:08:52;1.014;-0.02;0.085;-0.018325956538319588;-0.010995574295520782;0.006108652334660292
01:00:0A:00:00:00:00;1724976533;30/08/24;00:08:53;1.013;-0.021;0.084;-0.014660765416920185;-0.012217304669320583;-0.0012217304902151227
01:00:0A:00:00:00:00;1724976534;30/08/24;00:08:54;1.013;-0.017;0.088;-0.015882495790719986;-0.012217304669320583;-0.0012217304902151227
01:00:0A:00:00:00:00;1724976535;30/08/24;00:08:55;1.015;-0.023;0.088;-0.018325956538319588;-0.015882495790719986;0.0024434609804302454
01:00:0A:00:00:00:00;1724976536;30/08/24;00:08:56;1.016;-0.022;0.087;-0.014660765416920185;-0.00855211354792118;0.0012217304902151227
01:00:0A:00:00:00:00;1724976537;30/08/24;00:08:57;1.015;-0.019;0.088;-0.015882495790719986;-0.0073303827084600925;0.0036651913542300463
01:00:0A:00:00:00:00;1724976538;30/08/24;00:08:58;1.013;-0.019;0.087;-0.018325956538319588;-0.013439035043120384;0.006108652334660292
01:00:0A:00:00:00:00;1724976539;30/08/24;00:08:59;1.014;-0.02;0.084;-0.013439035043120384;-0.009773843921720982;-0.0024434609804302454
01:00:0A:00:00:00:00;1724976540;30/08/24;00:09:00;1.013;-0.019;0.089;-0.014660765416920185;-0.012217304669320583;-0.0012217304902151227
01:00:0A:00:00:00:00;1724976541;30/08/24;00:09:01;1.016;-0.022;0.089;-0.015882495790719986;-0.015882495790719986;0.0024434609804302454
01:00:0A:00:00:00:00;1724976542;30/08/24;00:09:02;1.016;-0.021;0.086;-0.013439035043120384;-0.00855211354792118;0.0012217304902151227
01:00:0A:00:00:00:00;1724976543;30/08/24;00:09:03;1.015;-0.02;0.089;-0.014660765416920185;-0.00855211354792118;0.0036651913542300463
01:00:0A:00:00:00:00;1724976544;30/08/24;00:09:04;1.014;-0.02;0.086;-0.015882495790719986;-0.013439035043120384;0.004886921960860491
01:00:0A:00:00:00:00;1724976545;30/08/24;00:09:05;1.013;-0.02;0.084;-0.012217304669320583;-0.009773843921720982;-0.0012217304902151227
01:00:0A:00:00:00:00;1724976546;30/08/24;00:09:06;1.013;-0.02;0.089;-0.013439035043120384;-0.010995574295520782;0.0012217304902151227
01:00:0A:00:00:00:00;1724976547;30/08/24;00:09:07;1.015;-0.021;0.087;-0.014660765416920185;-0.014660765416920185;0.0036651913542300463
01:00:0A:00:00:00:00;1724976548;30/08/24;00:09:08;1.016;-0.022;0.085;-0.010995574295520782;-0.0073303827084600925;0.0
01:00:0A:00:00:00:00;1724976549;30/08/24;00:09:09;1.015;-0.019;0.088;-0.012217304669320583;-0.00855211354792118;0.0036651913542300463
01:00:0A:00:00:00:00;1724976550;30/08/24;00:09:10;1.014;-0.021;0.086;-0.013439035043120384;-0.014660765416920185;0.0036651913542300463
01:00:0A:00:00:00:00;1724976551;30/08/24;00:09:11;1.014;-0.02;0.085;-0.009773843921720982;-0.00855211354792118;-0.0012217304902151227
01:00:0A:00:00:00:00;1724976552;30/08/24;00:09:12;1.015;-0.02;0.089;-0.012217304669320583;-0.010995574295520782;0.0012217304902151227
01:00:0A:00:00:00:00;1724976553;30/08/24;00:09:13;1.015;-0.023;0.086;-0.012217304669320583;-0.014660765416920185;0.0036651913542300463
01:00:0A:00:00:00:00;1724976554;30/08/24;00:09:14;1.015;-0.021;0.084;-0.009773843921720982;-0.0073303827084600925;0.0024434609804302454
01:00:0A:00:00:00:00;1724976555;30/08/24;00:09:15;1.014;-0.019;0.088;-0.010995574295520782;-0.009773843921720982;0.004886921960860491
01:00:0A:00:00:00:00;1724976556;30/08/24;00:09:16;1.014;-0.02;0.087;-0.012217304669320583;-0.014660765416920185;0.0036651913542300463
01:00:0A:00:00:00:00;1724976557;30/08/24;00:09:17;1.015;-0.02;0.086;-0.00855211354792118;-0.00855211354792118;0.0
01:00:0A:00:00:00:00;1724976558;30/08/24;00:09:18;1.015;-0.02;0.089;-0.009773843921720982;-0.009773843921720982;0.0024434609804302454
01:00:0A:00:00:00:00;1724976559;30/08/24;00:09:19;1.016;-0.022;0.086;-0.009773843921720982;-0.013439035043120384;0.0024434609804302454
01:00:0A:00:00:00:00;1724976560;30/08/24;00:09:20;1.016;-0.02;0.086;-0.0073303827084600925;-0.006108652334660292;0.0036651913542300463
01:00:0A:00:00:00:00;1724976561;30/08/24;00:09:21;1.014;-0.02;0.089;-0.009773843921720982;-0.009773843921720982;0.006108652334660292
01:00:0A:00:00:00:00;1724976562;30/08/24;00:09:22;1.013;-0.021;0.086;-0.00855211354792118;-0.014660765416920185;0.0024434609804302454
01:00:0A:00:00:00:00;1724976563;30/08/24;00:09:23;1.014;-0.021;0.086;-0.006108652334660292;-0.00855211354792118;-0.0012217304902151227
01:00:0A:00:00:00:00;1724976564;30/08/24;00:09:24;1.015;-0.021;0.089;-0.00855211354792118;-0.010995574295520782;0.0012217304902151227
01:00:0A:00:00:00:00;1724976565;30/08/24;00:09:25;1.016;-0.023;0.085;-0.0073303827084600925;-0.013439035043120384;0.0024434609804302454
01:00:0A:00:00:00:00;1724976566;30/08/24;00:09:26;1.013;-0.021;0.086;-0.006108652334660292;-0.0073303827084600925;0.004886921960860491
01:00:0A:00:00:00:00;1724976567;30/08/24;00:09:27;1.014;-0.02;0.09;-0.0073303827084600925;-0.009773843921720982;0.006108652334660292
01:00:0A:00:00:00:00;1724976568;30/08/24;00:09:28;1.014;-0.019;0.085;-0.006108652334660292;-0.014660765416920185;0.0024434609804302454
01:00:0A:00:00:00:00;1724976569;30/08/24;00:09:29;1.016;-0.019;0.086;-0.0036651913542300463;-0.00855211354792118;0.0
01:00:0A:00:00:00:00;1724976570;30/08/24;00:09:30;1.015;-0.021;0.089;-0.004886921960860491;-0.012217304669320583;0.0012217304902151227
01:00:0A:00:00:00:00;1724976571;30/08/24;00:09:31;1.016;-0.022;0.086;-0.006108652334660292;-0.014660765416920185;0.0036651913542300463
01:00:0A:00:00:00:00;1724976572;30/08/24;00:09:32;1.013;-0.021;0.085;-0.0036651913542300463;-0.006108652334660292;0.004886921960860491
01:00:0A:00:00:00:00;1724976573;30/08/24;00:09:33;1.014;-0.021;0.088;-0.004886921960860491;-0.009773843921720982;0.006108652334660292
01:00:0A:00:00:00:00;1724976574;30/08/24;00:09:34;1.013;-0.02;0.085;-0.004886921960860491;-0.015882495790719986;0.0012217304902151227
01:00:0A:00:00:00:00;1724976575;30/08/24;00:09:35;1.015;-0.02;0.086;-0.0024434609804302454;-0.0073303827084600925;0.0
01:00:0A:00:00:00:00;1724976576;30/08/24;00:09:36;1.016;-0.022;0.09;-0.0036651913542300463;-0.012217304669320583;0.0012217304902151227
01:00:0A:00:00:00:00;1724976577;30/08/24;00:09:37;1.016;-0.023;0.086;-0.0036651913542300463;-0.013439035043120384;0.0012217304902151227
01:00:0A:00:00:00:00;1724976578;30/08/24;00:09:38;1.014;-0.021;0.085;-0.0024434609804302454;-0.006108652334660292;0.006108652334660292
01:00:0A:00:00:00:00;1724976579;30/08/24;00:09:39;1.013;-0.021;0.089;-0.0036651913542300463;-0.012217304669320583;0.006108652334660292
01:00:0A:00:00:00:00;1724976580;30/08/24;00:09:40;1.014;-0.02;0.085;-0.0036651913542300463;-0.014660765416920185;0.0012217304902151227
01:00:0A:00:00:00:00;1724976581;30/08/24;00:09:41;1.015;-0.02;0.086;-0.0012217304902151227;-0.0073303827084600925;0.0
01:00:0A:00:00:00:00;1724976582;30/08/24;00:09:42;1.015;-0.021;0.09;-0.0024434609804302454;-0.012217304669320583;0.0012217304902151227
01:00:0A:00:00:00:00;1724976583;30/08/24;00:09:43;1.015;-0.021;0.085;-0.0036651913542300463;-0.014660765416920185;0.0024434609804302454
01:00:0A:00:00:00:00;1724976584;30/08/24;00:09:44;1.015;-0.022;0.087;-0.0024434609804302454;-0.006108652334660292;0.0073303827084600925
01:00:0A:00:00:00:00;1724976585;30/08/24;00:09:45;1.014;-0.02;0.089;-0.0036651913542300463;-0.012217304669320583;0.006108652334660292
01:00:0A:00:00:00:00;1724976586;30/08/24;00:09:46;1.014;-0.019;0.085;-0.0036651913542300463;-0.014660765416920185;0.0024434609804302454
01:00:0A:00:00:00:00;1724976587;30/08/24;00:09:47;1.014;-0.02;0.087;-0.0024434609804302454;-0.006108652334660292;0.0012217304902151227
01:00:0A:00:00:00:00;1724976588;30/08/24;00:09:48;1.014;-0.022;0.088;-0.0036651913542300463;-0.013439035043120384;0.0012217304902151227
01:00:0A:00:00:00:00;1724976589;30/08/24;00:09:49;1.015;-0.021;0.085;-0.0036651913542300463;-0.013439035043120384;0.0024434609804302454
01:00:0A:00:00:00:00;1724976590;30/08/24;00:09:50;1.015;-0.021;0.087;-0.0036651913542300463;-0.006108652334660292;0.006108652334660292
01:00:0A:00:00:00:00;1724976591;30/08/24;00:09:51;1.013;-0.022;0.091;-0.006108652334660292;-0.013439035043120384;0.004886921960860491
01:00:0A:00:00:00:00;1724976592;30/08/24;00:09:52;1.014;-0.019;0.085;-0.004886921960860491;-0.013439035043120384;0.0012217304902151227
01:00:0A:00:00:00:00;1724976593;30/08/24;00:09:53;1.014;-0.019;0.085;-0.0036651913542300463;-0.006108652334660292;0.0012217304902151227
01:00:0A:00:00:00:00;1724976594;30/08/24;00:09:54;1.014;-0.022;0.089;-0.006108652334660292;-0.013439035043120384;0.0012217304902151227
01:00:0A:00:00:00:00;1724976595;30/08/24;00:09:55;1.016;-0.022;0.084;-0.006108652334660292;-0.013439035043120384;0.0012217304902151227
01:00:0A:00:00:00:00;1724976596;30/08/24;00:09:56;1.015;-0.021;0.087;-0.006108652334660292;-0.006108652334660292;0.006108652334660292
01:00:0A:00:00:00:00;1724976597;30/08/24;00:09:57;1.015;-0.021;0.088;-0.0073303827084600925;-0.013439035043120384;0.004886921960860491
01:00:0A:00:00:00:00;1724976598;30/08/24;00:09:58;1.014;-0.02;0.085;-0.006108652334660292;-0.013439035043120384;0.0012217304902151227
01:00:0A:00:00:00:00;1724976599;30/08/24;00:09:59;1.015;-0.02;0.086;-0.006108652334660292;-0.006108652334660292;0.0024434609804302454
01:00:0A:00:00:00:00;1724976600;30/08/24;00:10:00;1.014;-0.022;0.089;-0.00855211354792118;-0.014660765416920185;0.0012217304902151227
01:00:0A:00:00:00:00;1724976601;30/08/24;00:10:01;1.016;-0.02;0.084;-0.00855211354792118;-0.014660765416920185;0.0024434609804302454
01:00:0A:00:00:00:00;1724976602;30/08/24;00:10:02;1.014;-0.02;0.088;-0.00855211354792118;-0.006108652334660292;0.006108652334660292
01:00:0A:00:00:00:00;1724976603;30/08/24;00:10:03;1.014;-0.021;0.089;-0.010995574295520782;-0.014660765416920185;0.0024434609804302454
01:00:0A:00:00:00:00;1724976604;30/08/24;00:10:04;1.014;-0.019;0.086;-0.009773843921720982;-0.012217304669320583;0.0012217304902151227
01:00:0A:00:00:00:00;1724976605;30/08/24;00:10:05;1.015;-0.021;0.087;-0.009773843921720982;-0.006108652334660292;0.0024434609804302454
01:00:0A:00:00:00:00;1724976606;30/08/24;00:10:06;1.015;-0.021;0.088;-0.010995574295520782;-0.014660765416920185;0.0012217304902151227
01:00:0A:00:00:00:00;1724976607;30/08/24;00:10:07;1.015;-0.02;0.084;-0.010995574295520782;-0.013439035043120384;0.0012217304902151227
01:00:0A:00:00:00:00;1724976608;30/08/24;00:10:08;1.015;-0.019;0.088;-0.010995574295520782;-0.0073303827084600925;0.006108652334660292
01:00:0A:00:00:00:00;1724976609;30/08/24;00:10:09;1.016;-0.021;0.089;-0.010995574295520782;-0.014660765416920185;0.0012217304902151227
01:00:0A:00:00:00:00;1724976610;30/08/24;00:10:10;1.014;-0.019;0.085;-0.010995574295520782;-0.013439035043120384;0.0
01:00:0A:00:00:00:00;1724976611;30/08/24;00:10:11;1.015;-0.02;0.088;-0.010995574295520782;-0.006108652334660292;0.0024434609804302454
01:00:0A:00:00:00:00;1724976612;30/08/24;00:10:12;1.015;-0.022;0.089;-0.012217304669320583;-0.014660765416920185;0.0012217304902151227
01:00:0A:00:00:00:00;1724976613;30/08/24;00:10:13;1.015;-0.02;0.085;-0.012217304669320583;-0.012217304669320583;0.0024434609804302454
01:00:0A:00:00:00:00;1724976614;30/08/24;00:10:14;1.014;-0.021;0.088;-0.013439035043120384;-0.0073303827084600925;0.006108652334660292
01:00:0A:00:00:00:00;1724976615;30/08/24;00:10:15;1.014;-0.021;0.089;-0.014660765416920185;-0.014660765416920185;0.0012217304902151227
01:00:0A:00:00:00:00;1724976616;30/08/24;00:10:16;1.014;-0.018;0.084;-0.013439035043120384;-0.012217304669320583;0.0
01:00:0A:00:00:00:00;1724976617;30/08/24;00:10:17;1.013;-0.021;0.088;-0.014660765416920185;-0.006108652334660292;0.0024434609804302454
01:00:0A:00:00:00:00;1724976618;30/08/24;00:10:18;1.015;-0.023;0.088;-0.014660765416920185;-0.014660765416920185;0.0
01:00:0A:00:00:00:00;1724976619;30/08/24;00:10:19;1.015;-0.02;0.085;-0.015882495790719986;-0.013439035043120384;0.0024434609804302454
01:00:0A:00:00:00:00;1724976620;30/08/24;00:10:20;1.015;-0.021;0.089;-0.015882495790719986;-0.00855211354792118;0.006108652334660292
01:00:0A:00:00:00:00;1724976621;30/08/24;00:10:21;1.014;-0.02;0.09;-0.015882495790719986;-0.015882495790719986;0.0
01:00:0A:00:00:00:00;1724976622;30/08/24;00:10:22;1.014;-0.019;0.085;-0.015882495790719986;-0.010995574295520782;0.0
01:00:0A:00:00:00:00;1724976623;30/08/24;00:10:23;1.015;-0.021;0.088;-0.01710422709584236;-0.0073303827084600925;0.0036651913542300463
01:00:0A:00:00:00:00;1724976624;30/08/24;00:10:24;1.014;-0.022;0.088;-0.01710422709584236;-0.014660765416920185;-0.0012217304902151227
01:00:0A:00:00:00:00;1724976625;30/08/24;00:10:25;1.015;-0.02;0.084;-0.01710422709584236;-0.012217304669320583;0.0036651913542300463
01:00:0A:00:00:00:00;1724976626;30/08/24;00:10:26;1.013;-0.022;0.088;-0.018325956538319588;-0.00855211354792118;0.006108652334660292
01:00:0A:00:00:00:00;1724976627;30/08/24;00:10:27;1.014;-0.021;0.089;-0.01710422709584236;-0.015882495790719986;0.0
01:00:0A:00:00:00:00;1724976628;30/08/24;00:10:28;1.015;-0.018;0.086;-0.01710422709584236;-0.010995574295520782;0.0
01:00:0A:00:00:00:00;1724976629;30/08/24;00:10:29;1.015;-0.022;0.089;-0.018325956538319588;-0.006108652334660292;0.0036651913542300463
01:00:0A:00:00:00:00;1724976630;30/08/24;00:10:30;1.014;-0.022;0.087;-0.01710422709584236;-0.013439035043120384;-0.0012217304902151227
01:00:0A:00:00:00:00;1724976631;30/08/24;00:10:31;1.013;-0.02;0.085;-0.018325956538319588;-0.010995574295520782;0.0024434609804302454
01:00:0A:00:00:00:00;1724976632;30/08/24;00:10:32;1.013;-0.022;0.088;-0.019547687843441963;-0.009773843921720982;0.006108652334660292
01:00:0A:00:00:00:00;1724976633;30/08/24;00:10:33;1.015;-0.02;0.088;-0.018325956538319588;-0.015882495790719986;-0.0012217304902151227
01:00:0A:00:00:00:00;1724976634;30/08/24;00:10:34;1.016;-0.019;0.086;-0.018325956538319588;-0.009773843921720982;0.0024434609804302454
01:00:0A:00:00:00:00;1724976635;30/08/24;00:10:35;1.013;-0.023;0.089;-0.019547687843441963;-0.006108652334660292;0.0036651913542300463
01:00:0A:00:00:00:00;1724976636;30/08/24;00:10:36;1.014;-0.021;0.087;-0.018325956538319588;-0.013439035043120384;-0.0024434609804302454
01:00:0A:00:00:00:00;1724976637;30/08/24;00:10:37;1.015;-0.019;0.086;-0.019547687843441963;-0.012217304669320583;0.0024434609804302454
01:00:0A:00:00:00:00;1724976638;30/08/24;00:10:38;1.015;-0.022;0.088;-0.019547687843441963;-0.010995574295520782;0.004886921960860491
01:00:0A:00:00:00:00;1724976639;30/08/24;00:10:39;1.014;-0.021;0.09;-0.018325956538319588;-0.014660765416920185;-0.0012217304902151227
01:00:0A:00:00:00:00;1724976640;30/08/24;00:10:40;1.016;-0.019;0.086;-0.018325956538319588;-0.009773843921720982;0.0024434609804302454
01:00:0A:00:00:00:00;1724976641;30/08/24;00:10:41;1.015;-0.022;0.089;-0.019547687843441963;-0.0073303827084600925;0.004886921960860491
01:00:0A:00:00:00:00;1724976642;30/08/24;00:10:42;1.014;-0.021;0.087;-0.01710422709584236;-0.012217304669320583;-0.0024434609804302454
01:00:0A:00:00:00:00;1724976643;30/08/24;00:10:43;1.013;-0.018;0.086;-0.018325956538319588;-0.012217304669320583;0.0036651913542300463
01:00:0A:00:00:00:00;1724976644;30/08/24;00:10:44;1.014;-0.023;0.089;-0.018325956538319588;-0.010995574295520782;0.004886921960860491
01:00:0A:00:00:00:00;1724976645;30/08/24;00:10:45;1.015;-0.021;0.089;-0.015882495790719986;-0.014660765416920185;-0.0024434609804302454
01:00:0A:00:00:00:00;1724976646;30/08/24;00:10:46;1.014;-0.019;0.086;-0.01710422709584236;-0.00855211354792118;0.0036651913542300463
01:00:0A:00:00:00:00;1724976647;30/08/24;00:10:47;1.015;-0.023;0.088;-0.01710422709584236;-0.0073303827084600925;0.004886921960860491
01:00:0A:00:00:00:00;1724976648;30/08/24;00:10:48;1.015;-0.022;0.086;-0.014660765416920185;-0.013439035043120384;-0.0024434609804302454
01:00:0A:00:00:00:00;1724976649;30/08/24;00:10:49;1.014;-0.018;0.086;-0.015882495790719986;-0.012217304669320583;0.004886921960860491
01:00:0A:00:00:00:00;1724976650;30/08/24;00:10:50;1.015;-0.023;0.089;-0.015882495790719986;-0.012217304669320583;0.0036651913542300463
01:00:0A:00:00:00:00;1724976651;30/08/24;00:10:51;1.016;-0.021;0.088;-0.013439035043120384;-0.013439035043120384;-0.0024434609804302454
01:00:0A:00:00:00:00;1724976652;30/08/24;00:10:52;1.016;-0.018;0.087;-0.014660765416920185;-0.00855211354792118;0.0036651913542300463
01:00:0A:00:00:00:00;1724976653;30/08/24;00:10:53;1.014;-0.023;0.087;-0.013439035043120384;-0.00855211354792118;0.0036651913542300463
01:00:0A:00:00:00:00;1724976654;30/08/24;00:10:54;1.016;-0.021;0.086;-0.010995574295520782;-0.013439035043120384;-0.0024434609804302454
01:00:0A:00:00:00:00;1724976655;30/08/24;00:10:55;1.015;-0.019;0.086;-0.013439035043120384;-0.013439035043120384;0.0036651913542300463
01:00:0A:00:00:00:00;1724976656;30/08/24;00:10:56;1.015;-0.023;0.087;-0.012217304669320583;-0.012217304669320583;0.0036651913542300463
01:00:0A:00:00:00:00;1724976657;30/08/24;00:10:57;1.015;-0.021;0.089;-0.009773843921720982;-0.012217304669320583;-0.0024434609804302454
01:00:0A:00:00:00:00;1724976658;30/08/24;00:10:58;1.015;-0.019;0.087;-0.012217304669320583;-0.009773843921720982;0.006108652334660292
01:00:0A:00:00:00:00;1724976659;30/08/24;00:10:59;1.015;-0.024;0.087;-0.010995574295520782;-0.009773843921720982;0.004886921960860491
01:00:0A:00:00:00:00;1724976660;30/08/24;00:11:00;1.014;-0.02;0.086;-0.00855211354792118;-0.012217304669320583;-0.0024434609804302454
01:00:0A:00:00:00:00;1724976661;30/08/24;00:11:01;1.016;-0.018;0.086;-0.010995574295520782;-0.013439035043120384;0.006108652334660292
01:00:0A:00:00:00:00;1724976662;30/08/24;00:11:02;1.015;-0.023;0.088;-0.009773843921720982;-0.010995574295520782;0.004886921960860491
01:00:0A:00:00:00:00;1724976663;30/08/24;00:11:03;1.015;-0.019;0.088;-0.006108652334660292;-0.010995574295520782;-0.0024434609804302454
01:00:0A:00:00:00:00;1724976664;30/08/24;00:11:04;1.015;-0.019;0.085;-0.00855211354792118;-0.009773843921720982;0.006108652334660292
01:00:0A:00:00:00:00;1724976665;30/08/24;00:11:05;1.014;-0.023;0.087;-0.0073303827084600925;-0.009773843921720982;0.0036651913542300463
01:00:0A:00:00:00:00;1724976666;30/08/24;00:11:06;1.014;-0.021;0.086;-0.004886921960860491;-0.012217304669320583;-0.0024434609804302454
01:00:0A:00:00:00:00;1724976667;30/08/24;00:11:07;1.015;-0.02;0.085;-0.0073303827084600925;-0.012217304669320583;0.006108652334660292
01:00:0A:00:00:00:00;1724976668;30/08/24;00:11:08;1.015;-0.024;0.088;-0.004886921960860491;-0.010995574295520782;0.0036651913542300463
01:00:0A:00:00:00:00;1724976669;30/08/24;00:11:09;1.016;-0.019;0.088;-0.0036651913542300463;-0.010995574295520782;0.0
01:00:0A:00:00:00:00;1724976670;30/08/24;00:11:10;1.014;-0.02;0.086;-0.006108652334660292;-0.009773843921720982;0.0073303827084600925
01:00:0A:00:00:00:00;1724976671;30/08/24;00:11:11;1.013;-0.024;0.086;-0.0036651913542300463;-0.010995574295520782;0.0036651913542300463
01:00:0A:00:00:00:00;1724976672;30/08/24;00:11:12;1.014;-0.019;0.087;-0.0024434609804302454;-0.012217304669320583;-0.0012217304902151227
01:00:0A:00:00:00:00;1724976673;30/08/24;00:11:13;1.014;-0.021;0.087;-0.004886921960860491;-0.012217304669320583;0.006108652334660292
01:00:0A:00:00:00:00;1724976674;30/08/24;00:11:14;1.015;-0.023;0.088;-0.0024434609804302454;-0.010995574295520782;0.0036651913542300463
01:00:0A:00:00:00:00;1724976675;30/08/24;00:11:15;1.014;-0.019;0.087;0.0;-0.009773843921720982;-0.0012217304902151227
01:00:0A:00:00:00:00;1724976676;30/08/24;00:11:16;1.014;-0.019;0.087;-0.0036651913542300463;-0.009773843921720982;0.0073303827084600925
01:00:0A:00:00:00:00;1724976677;30/08/24;00:11:17;1.014;-0.023;0.087;-0.0012217304902151227;-0.009773843921720982;0.0024434609804302454
01:00:0A:00:00:00:00;1724976678;30/08/24;00:11:18;1.014;-0.019;0.086;0.0;-0.012217304669320583;0.0
01:00:0A:00:00:00:00;1724976679;30/08/24;00:11:19;1.014;-0.02;0.088;-0.0024434609804302454;-0.013439035043120384;0.0073303827084600925
01:00:0A:00:00:00:00;1724976680;30/08/24;00:11:20;1.015;-0.024;0.089;0.0;-0.010995574295520782;0.0024434609804302454
01:00:0A:00:00:00:00;1724976681;30/08/24;00:11:21;1.015;-0.02;0.088;0.0012217304902151227;-0.010995574295520782;0.0
01:00:0A:00:00:00:00;1724976682;30/08/24;00:11:22;1.015;-0.02;0.088;-0.0012217304902151227;-0.009773843921720982;0.0073303827084600925
01:00:0A:00:00:00:00;1724976683;30/08/24;00:11:23;1.015;-0.023;0.087;0.0012217304902151227;-0.009773843921720982;0.0024434609804302454
01:00:0A:00:00:00:00;1724976684;30/08/24;00:11:24;1.015;-0.018;0.087;0.0024434609804302454;-0.012217304669320583;0.0
01:00:0A:00:00:00:00;1724976685;30/08/24;00:11:25;1.014;-0.019;0.087;-0.0012217304902151227;-0.013439035043120384;0.0073303827084600925
01:00:0A:00:00:00:00;1724976686;30/08/24;00:11:26;1.014;-0.023;0.087;0.0024434609804302454;-0.010995574295520782;0.0024434609804302454
01:00:0A:00:00:00:00;1724976687;30/08/24;00:11:27;1.014;-0.019;0.087;0.0024434609804302454;-0.010995574295520782;0.0
01:00:0A:00:00:00:00;1724976688;30/08/24;00:11:28;1.015;-0.02;0.087;0.0;-0.009773843921720982;0.0073303827084600925
01:00:0A:00:00:00:00;1724976689;30/08/24;00:11:29;1.015;-0.023;0.086;0.0024434609804302454;-0.009773843921720982;0.0024434609804302454
01:00:0A:00:00:00:00;1724976690;30/08/24;00:11:30;1.015;-0.019;0.087;0.0036651913542300463;-0.012217304669320583;0.0012217304902151227
01:00:0A:00:00:00:00;1724976691;30/08/24;00:11:31;1.014;-0.02;0.086;0.0012217304902151227;-0.013439035043120384;0.0073303827084600925
01:00:0A:00:00:00:00;1724976692;30/08/24;00:11:32;1.014;-0.023;0.087;0.004886921960860491;-0.012217304669320583;0.0012217304902151227
01:00:0A:00:00:00:00;1724976693;30/08/24;00:11:33;1.014;-0.019;0.088;0.004886921960860491;-0.010995574295520782;0.0
01:00:0A:00:00:00:00;1724976694;30/08/24;00:11:34;1.015;-0.02;0.087;0.0024434609804302454;-0.009773843921720982;0.00855211354792118
01:00:0A:00:00:00:00;1724976695;30/08/24;00:11:35;1.015;-0.022;0.087;0.004886921960860491;-0.009773843921720982;0.0024434609804302454
01:00:0A:00:00:00:00;1724976696;30/08/24;00:11:36;1.015;-0.019;0.087;0.004886921960860491;-0.012217304669320583;0.0012217304902151227
01:00:0A:00:00:00:00;1724976697;30/08/24;00:11:37;1.015;-0.021;0.088;0.0024434609804302454;-0.013439035043120384;0.0073303827084600925
01:00:0A:00:00:00:00;1724976698;30/08/24;00:11:38;1.014;-0.023;0.087;0.006108652334660292;-0.010995574295520782;0.0012217304902151227
01:00:0A:00:00:00:00;1724976699;30/08/24;00:11:39;1.015;-0.019;0.088;0.006108652334660292;-0.010995574295520782;0.0024434609804302454
01:00:0A:00:00:00:00;1724976700;30/08/24;00:11:40;1.015;-0.02;0.086;0.0036651913542300463;-0.009773843921720982;0.0073303827084600925
01:00:0A:00:00:00:00;1724976701;30/08/24;00:11:41;1.015;-0.022;0.087;0.0073303827084600925;-0.009773843921720982;0.0024434609804302454
01:00:0A:00:00:00:00;1724976702;30/08/24;00:11:42;1.014;-0.019;0.087;0.006108652334660292;-0.012217304669320583;0.0024434609804302454
01:00:0A:00:00:00:00;1724976703;30/08/24;00:11:43;1.014;-0.02;0.087;0.004886921960860491;-0.013439035043120384;0.0073303827084600925
01:00:0A:00:00:00:00;1724976704;30/08/24;00:11:44;1.014;-0.022;0.088;0.0073303827084600925;-0.010995574295520782;0.0
01:00:0A:00:00:00:00;1724976705;30/08/24;00:11:45;1.015;-0.019;0.088;0.0073303827084600925;-0.010995574295520782;0.0012217304902151227
01:00:0A:00:00:00:00;1724976706;30/08/24;00:11:46;1.014;-0.021;0.087;0.004886921960860491;-0.009773843921720982;0.00855211354792118
01:00:0A:00:00:00:00;1724976707;30/08/24;00:11:47;1.014;-0.023;0.087;0.0073303827084600925;-0.009773843921720982;0.0024434609804302454
01:00:0A:00:00:00:00;1724976708;30/08/24;00:11:48;1.015;-0.018;0.086;0.006108652334660292;-0.012217304669320583;0.0012217304902151227
01:00:0A:00:00:00:00;1724976709;30/08/24;00:11:49;1.015;-0.022;0.087;0.004886921960860491;-0.013439035043120384;0.006108652334660292
01:00:0A:00:00:00:00;1724976710;30/08/24;00:11:50;1.015;-0.023;0.088;0.0073303827084600925;-0.010995574295520782;0.0012217304902151227
01:00:0A:00:00:00:00;1724976711;30/08/24;00:11:51;1.016;-0.019;0.088;0.006108652334660292;-0.010995574295520782;0.0024434609804302454
01:00:0A:00:00:00:00;1724976712;30/08/24;00:11:52;1.015;-0.02;0.087;0.0036651913542300463;-0.009773843921720982;0.0073303827084600925
01:00:0A:00:00:00:00;1724976713;30/08/24;00:11:53;1.014;-0.023;0.086;0.0073303827084600925;-0.009773843921720982;0.0012217304902151227
01:00:0A:00:00:00:00;1724976714;30/08/24;00:11:54;1.014;-0.018;0.087;0.006108652334660292;-0.012217304669320583;0.0024434609804302454
01:00:0A:00:00:00:00;1724976715;30/08/24;00:11:55;1.016;-0.022;0.087;0.0036651913542300463;-0.012217304669320583;0.006108652334660292
01:00:0A:00:00:00:00;1724976716;30/08/24;00:11:56;1.014;-0.021;0.088;0.006108652334660292;-0.010995574295520782;0.0
01:00:0A:00:00:00:00;1724976717;30/08/24;00:11:57;1.016;-0.018;0.088;0.004886921960860491;-0.009773843921720982;0.0024434609804302454
01:00:0A:00:00:00:00;1724976718;30/08/24;00:11:58;1.014;-0.021;0.087;0.0024434609804302454;-0.010995574295520782;0.00855211354792118
01:00:0A:00:00:00:00;1724976719;30/08/24;00:11:59;1.014;-0.022;0.087;0.006108652334660292;-0.010995574295520782;0.0
01:00:0A:00:00:00:00;1724976720;30/08/24;00:12:00;1.015;-0.018;0.086;0.004886921960860491;-0.012217304669320583;0.0012217304902151227
01:00:0A:00:00:00:00;1724976721;30/08/24;00:12:01;1.015;-0.022;0.087;0.0024434609804302454;-0.012217304669320583;0.006108652334660292
01:00:0A:00:00:00:00;1724976722;30/08/24;00:12:02;1.015;-0.021;0.088;0.004886921960860491;-0.010995574295520782;0.0012217304902151227
01:00:0A:00:00:00:00;1724976723;30/08/24;00:12:03;1.014;-0.019;0.087;0.0036651913542300463;-0.010995574295520782;0.0036651913542300463
01:00:0A:00:00:00:00;1724976724;30/08/24;00:12:04;1.014;-0.022;0.086;0.0024434609804302454;-0.010995574295520782;0.0073303827084600925
01:00:0A:00:00:00:00;1724976725;30/08/24;00:12:05;1.014;-0.021;0.086;0.004886921960860491;-0.010995574295520782;0.0
01:00:0A:00:00:00:00;1724976726;30/08/24;00:12:06;1.015;-0.018;0.087;0.0024434609804302454;-0.012217304669320583;0.0024434609804302454
01:00:0A:00:00:00:00;1724976727;30/08/24;00:12:07;1.015;-0.022;0.087;0.0012217304902151227;-0.012217304669320583;0.006108652334660292
01:00:0A:00:00:00:00;1724976728;30/08/24;00:12:08;1.016;-0.021;0.088;0.0036651913542300463;-0.010995574295520782;0.0
01:00:0A:00:00:00:00;1724976729;30/08/24;00:12:09;1.015;-0.018;0.088;0.0024434609804302454;-0.009773843921720982;0.0036651913542300463
01:00:0A:00:00:00:00;1724976730;30/08/24;00:12:10;1.015;-0.022;0.086;0.0012217304902151227;-0.010995574295520782;0.006108652334660292
01:00:0A:00:00:00:00;1724976731;30/08/24;00:12:11;1.016;-0.021;0.086;0.0036651913542300463;-0.010995574295520782;0.0
01:00:0A:00:00:00:00;1724976732;30/08/24;00:12:12;1.015;-0.019;0.087;0.0012217304902151227;-0.012217304669320583;0.0036651913542300463
01:00:0A:00:00:00:00;1724976733;30/08/24;00:12:13;1.014;-0.022;0.087;0.0;-0.012217304669320583;0.006108652334660292
01:00:0A:00:00:00:00;1724976734;30/08/24;00:12:14;1.015;-0.021;0.087;0.0024434609804302454;-0.009773843921720982;0.0
01:00:0A:00:00:00:00;1724976735;30/08/24;00:12:15;1.015;-0.019;0.088;0.0012217304902151227;-0.010995574295520782;0.0036651913542300463
01:00:0A:00:00:00:00;1724976736;30/08/24;00:12:16;1.016;-0.023;0.085;0.0;-0.010995574295520782;0.006108652334660292
01:00:0A:00:00:00:00;1724976737;30/08/24;00:12:17;1.014;-0.02;0.087;0.0024434609804302454;-0.009773843921720982;0.0
01:00:0A:00:00:00:00;1724976738;30/08/24;00:12:18;1.015;-0.02;0.087;0.0012217304902151227;-0.012217304669320583;0.0036651913542300463
01:00:0A:00:00:00:00;1724976739;30/08/24;00:12:19;1.014;-0.022;0.087;0.0;-0.012217304669320583;0.006108652334660292
01:00:0A:00:00:00:00;1724976740;30/08/24;00:12:20;1.013;-0.02;0.087;0.0024434609804302454;-0.009773843921720982;0.0
01:00:0A:00:00:00:00;1724976741;30/08/24;00:12:21;1.014;-0.02;0.087;0.0;-0.010995574295520782;0.004886921960860491
01:00:0A:00:00:00:00;1724976742;30/08/24;00:12:22;1.015;-0.021;0.086;0.0;-0.010995574295520782;0.006108652334660292
01:00:0A:00:00:00:00;1724976743;30/08/24;00:12:23;1.015;-0.021;0.087;0.0024434609804302454;-0.010995574295520782;0.0
01:00:0A:00:00:00:00;1724976744;30/08/24;00:12:24;1.014;-0.019;0.087;0.0;-0.012217304669320583;0.0036651913542300463
01:00:0A:00:00:00:00;1724976745;30/08/24;00:12:25;1.014;-0.022;0.086;-0.0012217304902151227;-0.012217304669320583;0.004886921960860491
01:00:0A:00:00:00:00;1724976746;30/08/24;00:12:26;1.015;-0.021;0.088;0.0024434609804302454;-0.009773843921720982;0.0
01:00:0A:00:00:00:00;1724976747;30/08/24;00:12:27;1.015;-0.019;0.089;0.0;-0.010995574295520782;0.0036651913542300463
01:00:0A:00:00:00:00;1724976748;30/08/24;00:12:28;1.015;-0.021;0.085;-0.0012217304902151227;-0.010995574295520782;0.004886921960860491
01:00:0A:00:00:00:00;1724976749;30/08/24;00:12:29;1.016;-0.021;0.086;0.0012217304902151227;-0.009773843921720982;0.0
01:00:0A:00:00:00:00;1724976750;30/08/24;00:12:30;1.015;-0.02;0.086;-0.0012217304902151227;-0.012217304669320583;0.004886921960860491
01:00:0A:00:00:00:00;1724976751;30/08/24;00:12:31;1.014;-0.021;0.087;-0.0012217304902151227;-0.012217304669320583;0.004886921960860491
01:00:0A:00:00:00:00;1724976752;30/08/24;00:12:32;1.014;-0.02;0.086;0.0012217304902151227;-0.009773843921720982;0.0
01:00:0A:00:00:00:00;1724976753;30/08/24;00:12:33;1.015;-0.019;0.088;-0.0012217304902151227;-0.010995574295520782;0.0036651913542300463
01:00:0A:00:00:00:00;1724976754;30/08/24;00:12:34;1.016;-0.021;0.085;-0.0012217304902151227;-0.010995574295520782;0.006108652334660292
01:00:0A:00:00:00:00;1724976755;30/08/24;00:12:35;1.016;-0.021;0.086;0.0012217304902151227;-0.010995574295520782;0.0
01:00:0A:00:00:00:00;1724976756;30/08/24;00:12:36;1.014;-0.019;0.088;-0.0012217304902151227;-0.012217304669320583;0.004886921960860491
01:00:0A:00:00:00:00;1724976757;30/08/24;00:12:37;1.014;-0.022;0.085;-0.0012217304902151227;-0.012217304669320583;0.0036651913542300463
01:00:0A:00:00:00:00;1724976758;30/08/24;00:12:38;1.014;-0.021;0.088;0.0012217304902151227;-0.009773843921720982;0.0
01:00:0A:00:00:00:00;1724976759;30/08/24;00:12:39;1.014;-0.02;0.088;-0.0012217304902151227;-0.012217304669320583;0.004886921960860491
01:00:0A:00:00:00:00;1724976760;30/08/24;00:12:40;1.016;-0.022;0.086;-0.0012217304902151227;-0.010995574295520782;0.004886921960860491
01:00:0A:00:00:00:00;1724976761;30/08/24;00:12:41;1.016;-0.021;0.086;0.0;-0.009773843921720982;0.0
01:00:0A:00:00:00:00;1724976762;30/08/24;00:12:42;1.014;-0.019;0.087;-0.0012217304902151227;-0.012217304669320583;0.004886921960860491
01:00:0A:00:00:00:00;1724976763;30/08/24;00:12:43;1.014;-0.022;0.086;-0.0012217304902151227;-0.012217304669320583;0.004886921960860491
01:00:0A:00:00:00:00;1724976764;30/08/24;00:12:44;1.013;-0.02;0.087;0.0;-0.009773843921720982;0.0
01:00:0A:00:00:00:00;1724976765;30/08/24;00:12:45;1.015;-0.019;0.087;-0.0012217304902151227;-0.012217304669320583;0.004886921960860491
01:00:0A:00:00:00:00;1724976766;30/08/24;00:12:46;1.014;-0.022;0.086;-0.0012217304902151227;-0.010995574295520782;0.004886921960860491
01:00:0A:00:00:00:00;1724976767;30/08/24;00:12:47;1.015;-0.021;0.087;0.0;-0.009773843921720982;0.0
01:00:0A:00:00:00:00;1724976768;30/08/24;00:12:48;1.015;-0.019;0.088;-0.0024434609804302454;-0.012217304669320583;0.004886921960860491
01:00:0A:00:00:00:00;1724976769;30/08/24;00:12:49;1.014;-0.022;0.087;-0.0012217304902151227;-0.012217304669320583;0.0036651913542300463
01:00:0A:00:00:00:00;1724976770;30/08/24;00:12:50;1.014;-0.02;0.087;0.0;-0.009773843921720982;0.0
01:00:0A:00:00:00:00;1724976771;30/08/24;00:12:51;1.015;-0.019;0.087;-0.0024434609804302454;-0.012217304669320583;0.006108652334660292
01:00:0A:00:00:00:00;1724976772;30/08/24;00:12:52;1.015;-0.022;0.086;-0.0012217304902151227;-0.012217304669320583;0.0036651913542300463
01:00:0A:00:00:00:00;1724976773;30/08/24;00:12:53;1.014;-0.019;0.088;0.0;-0.009773843921720982;0.0
01:00:0A:00:00:00:00;1724976774;30/08/24;00:12:54;1.015;-0.02;0.087;-0.0024434609804302454;-0.012217304669320583;0.004886921960860491
01:00:0A:00:00:00:00;1724976775;30/08/24;00:12:55;1.014;-0.022;0.086;-0.0012217304902151227;-0.012217304669320583;0.0036651913542300463
01:00:0A:00:00:00:00;1724976776;30/08/24;00:12:56;1.015;-0.02;0.086;0.0;-0.009773843921720982;0.0
01:00:0A:00:00:00:00;1724976777;30/08/24;00:12:57;1.014;-0.021;0.087;-0.0024434609804302454;-0.012217304669320583;0.004886921960860491
01:00:0A:00:00:00:00;1724976778;30/08/24;00:12:58;1.016;-0.022;0.086;-0.0012217304902151227;-0.012217304669320583;0.0036651913542300463
01:00:0A:00:00:00:00;1724976779;30/08/24;00:12:59;1.015;-0.021;0.087;0.0;-0.009773843921720982;0.0
01:00:0A:00:00:00:00;1724976780;30/08/24;00:13:00;1.015;-0.02;0.087;-0.0024434609804302454;-0.012217304669320583;0.004886921960860491
01:00:0A:00:00:00:00;1724976781;30/08/24;00:13:01;1.015;-0.022;0.086;-0.0012217304902151227;-0.012217304669320583;0.0024434609804302454
01:00:0A:00:00:00:00;1724976782;30/08/24;00:13:02;1.014;-0.019;0.088;-0.0012217304902151227;-0.009773843921720982;0.0012217304902151227
01:00:0A:00:00:00:00;1724976783;30/08/24;00:13:03;1.015;-0.02;0.088;-0.0036651913542300463;-0.013439035043120384;0.004886921960860491
01:00:0A:00:00:00:00;1724976784;30/08/24;00:13:04;1.016;-0.021;0.087;-0.0012217304902151227;-0.010995574295520782;0.0036651913542300463
01:00:0A:00:00:00:00;1724976785;30/08/24;00:13:05;1.015;-0.019;0.087;-0.0012217304902151227;-0.00855211354792118;0.0012217304902151227
01:00:0A:00:00:00:00;1724976786;30/08/24;00:13:06;1.016;-0.02;0.086;-0.0024434609804302454;-0.012217304669320583;0.0012217304902151227
01:00:0A:00:00:00:00;1724976787;30/08/24;00:13:07;1.015;-0.028;0.084;-0.0024434609804302454;-0.015882495790719986;0.0073303827084600925
01:00:0A:00:00:00:00;1724976788;30/08/24;00:13:08;1.012;-0.021;0.086;-0.0012217304902151227;-0.014660765416920185;0.015882495790719986
01:00:0A:00:00:00:00;1724976789;30/08/24;00:13:09;1.005;-0.011;0.091;-0.0024434609804302454;-0.02076941914856434;0.00855211354792118
01:00:0A:00:00:00:00;1724976790;30/08/24;00:13:10;1.008;-0.014;0.088;0.0012217304902151227;-0.010995574295520782;-0.014660765416920185
01:00:0A:00:00:00:00;1724976791;30/08/24;00:13:11;1.016;-0.021;0.087;0.0024434609804302454;-0.004886921960860491;-0.01710422709584236
01:00:0A:00:00:00:00;1724976792;30/08/24;00:13:12;1.027;-0.029;0.089;-0.004886921960860491;-0.013439035043120384;0.009773843921720982
01:00:0A:00:00:00:00;1724976793;30/08/24;00:13:13;1.028;-0.029;0.094;-0.009773843921720982;-0.009773843921720982;0.028099799528717995
01:00:0A:00:00:00:00;1724976794;30/08/24;00:13:14;1.013;-0.021;0.104;-0.012217304669320583;0.0;0.021991148591041565
01:00:0A:00:00:00:00;1724976795;30/08/24;00:13:15;1.001;-0.008;0.084;-0.015882495790719986;-0.028099799528717995;-0.0036651913542300463
01:00:0A:00:00:00:00;1724976796;30/08/24;00:13:16;0.998;-0.004;0.063;-0.015882495790719986;-0.015882495790719986;-0.009773843921720982
01:00:0A:00:00:00:00;1724976797;30/08/24;00:13:17;1.013;-0.027;0.079;-0.0012217304902151227;0.02687807008624077;0.0
01:00:0A:00:00:00:00;1724976798;30/08/24;00:13:18;1.023;-0.008;0.126;-0.030543262138962746;-0.02076941914856434;-0.0659734457731247
01:00:0A:00:00:00:00;1724976799;30/08/24;00:13:19;1.031;0.009;0.089;-0.10506881773471832;-0.05253440886735916;0.036651913076639175
01:00:0A:00:00:00:00;1724976800;30/08/24;00:13:20;1.021;-0.037;0.05;-0.1062905490398407;-0.03787364438176155;0.0354301817715168
01:00:0A:00:00:00:00;1724976801;30/08/24;00:13:21;0.998;0.006;0.076;-0.07208210229873657;0.021991148591041565;-0.018325956538319588
01:00:0A:00:00:00:00;1724976802;30/08/24;00:13:22;0.992;-0.006;0.096;-0.1062905490398407;-0.018325956538319588;0.08552113175392151
01:00:0A:00:00:00:00;1724976803;30/08/24;00:13:23;1.016;-0.076;0.07;-0.02321287989616394;-0.01710422709584236;-0.11972958594560623
01:00:0A:00:00:00:00;1724976804;30/08/24;00:13:24;1.038;0.035;0.074;-0.02687807008624077;0.03787364438176155;-0.05864306166768074
01:00:0A:00:00:00:00;1724976805;30/08/24;00:13:25;1.035;-0.042;0.096;-0.1111774742603302;0.0073303827084600925;0.10995574295520782
01:00:0A:00:00:00:00;1724976806;30/08/24;00:13:26;0.995;-0.031;0.057;-0.08918632566928864;-0.05497787147760391;0.012217304669320583
01:00:0A:00:00:00:00;1724976807;30/08/24;00:13:27;0.972;0.043;0.085;-0.09285151958465576;0.012217304669320583;-0.051312677562236786
01:00:0A:00:00:00:00;1724976808;30/08/24;00:13:28;0.996;0.044;0.108;-0.22479839622974396;-0.10018189996480942;0.09651670604944229
01:00:0A:00:00:00:00;1724976809;30/08/24;00:13:29;1.032;0.034;0.124;-0.25045475363731384;0.08918632566928864;-0.12461651116609573
01:00:0A:00:00:00:00;1724976810;30/08/24;00:13:30;1.056;-0.048;0.173;-0.3738495111465454;-0.03787364438176155;0.00855211354792118
01:00:0A:00:00:00:00;1724976811;30/08/24;00:13:31;1.044;-0.031;-0.108;-0.3017674386501312;-0.042760565876960754;-0.09162978082895279
01:00:0A:00:00:00:00;1724976812;30/08/24;00:13:32;0.972;-0.003;0.18;-0.3188716471195221;0.23579397797584534;-0.040317103266716
01:00:0A:00:00:00:00;1724976813;30/08/24;00:13:33;0.947;0.068;-0.058;-0.39584067463874817;-0.49235740303993225;-0.22846359014511108
01:00:0A:00:00:00:00;1724976814;30/08/24;00:13:34;0.966;0.008;0.122;-0.5082398653030396;0.46792274713516235;0.4752531349658966
01:00:0A:00:00:00:00;1724976815;30/08/24;00:13:35;0.966;-0.241;0.136;-0.2577851116657257;-0.5925393104553223;-0.6291911602020264
01:00:0A:00:00:00:00;1724976816;30/08/24;00:13:36;0.989;0.228;-0.17;-0.2321287840604782;0.12217304855585098;0.27000245451927185
01:00:0A:00:00:00:00;1724976817;30/08/24;00:13:37;1.07;-0.14;0.126;-0.24923302233219147;0.14049901068210602;0.08429940044879913
01:00:0A:00:00:00:00;1724976818;30/08/24;00:13:38;1.037;0.104;0.062;-0.294437050819397;0.042760565876960754;-0.0354301817715168
01:00:0A:00:00:00:00;1724976819;30/08/24;00:13:39;0.926;-0.192;0.177;-0.2993239760398865;0.4080579876899719;0.3176499307155609
01:00:0A:00:00:00:00;1724976820;30/08/24;00:13:40;0.9;0.304;0.074;-0.34086278080940247;-0.6572909951210022;-0.9798278212547302
01:00:0A:00:00:00:00;1724976821;30/08/24;00:13:41;0.935;0.199;0.005;-1.1203267574310303;-0.30054569244384766;0.9150761365890503
01:00:0A:00:00:00:00;1724976822;30/08/24;00:13:42;0.985;-0.101;0.037;-0.929736852645874;0.48380526900291443;-0.11484266817569733
01:00:0A:00:00:00:00;1724976823;30/08/24;00:13:43;1.024;-0.056;0.306;-0.9847148060798645;-0.02932153083384037;-0.17348572611808777
01:00:0A:00:00:00:00;1724976824;30/08/24;00:13:44;1.05;0.177;0.039;-1.1215485334396362;-0.00855211354792118;-0.10018189996480942
01:00:0A:00:00:00:00;1724976825;30/08/24;00:13:45;0.988;-0.269;0.03;-1.0421360731124878;-0.02932153083384037;0.3701843321323395
01:00:0A:00:00:00:00;1724976826;30/08/24;00:13:46;0.935;0.124;0.115;-0.5461135506629944;0.6096435189247131;-0.7709119319915771
01:00:0A:00:00:00:00;1724976827;30/08/24;00:13:47;0.952;-0.05;-0.02;-0.919963002204895;-0.8796459436416626;0.3335324227809906
01:00:0A:00:00:00:00;1724976828;30/08/24;00:13:48;0.965;-0.039;-0.028;-0.46181410551071167;0.9871581792831421;-0.03420845419168472
01:00:0A:00:00:00:00;1724976829;30/08/24;00:13:49;0.915;0.161;0.328;-0.7562511563301086;-0.911410927772522;-0.8576548099517822
01:00:0A:00:00:00:00;1724976830;30/08/24;00:13:50;0.933;0.425;-0.023;-1.3475687503814697;-0.5827654600143433;0.2125810980796814
01:00:0A:00:00:00:00;1724976831;30/08/24;00:13:51;1.038;-0.027;-0.064;-1.5723670721054077;-0.19303341209888458;0.39584067463874817
01:00:0A:00:00:00:00;1724976832;30/08/24;00:13:52;0.986;-0.142;0.286;-2.3933699131011963;0.8136724829673767;-0.15393804013729095
01:00:0A:00:00:00:00;1724976833;30/08/24;00:13:53;0.93;0.072;0.31;-1.8875735998153687;0.33964109420776367;-0.9529497623443604
01:00:0A:00:00:00:00;1724976834;30/08/24;00:13:54;0.943;-0.011;0.229;-1.9242254495620728;-0.5815436840057373;-1.1557570695877075
01:00:0A:00:00:00:00;1724976835;30/08/24;00:13:55;0.955;0.071;0.292;-2.1930060386657715;-0.5754350423812866;-0.42271876335144043
01:00:0A:00:00:00:00;1724976836;30/08/24;00:13:56;1.011;0.046;0.268;-2.0134117603302;0.06719517707824707;-0.43737950921058655
01:00:0A:00:00:00:00;1724976837;30/08/24;00:13:57;0.961;-0.202;0.478;-1.7935004234313965;0.375071257352829;-0.5253441333770752
01:00:0A:00:00:00:00;1724976838;30/08/24;00:13:58;0.946;-0.143;0.518;-1.547932505607605;0.41294488310813904;-0.2590068578720093
01:00:0A:00:00:00:00;1724976839;30/08/24;00:13:59;0.949;-0.085;0.387;-1.274264931678772;0.3738495111465454;-0.862541675567627
01:00:0A:00:00:00:00;1724976840;30/08/24;00:14:00;0.861;0.088;0.486;-1.4978415966033936;-0.05497787147760391;-0.7611380815505981
01:00:0A:00:00:00:00;1724976841;30/08/24;00:14:01;0.97;0.043;0.064;-1.595579981803894;-0.8710938096046448;-0.7696901559829712
01:00:0A:00:00:00:00;1724976842;30/08/24;00:14:02;1.011;0.037;0.069;-1.82404363155365;-0.21135938167572021;0.5155702233314514
01:00:0A:00:00:00:00;1724976843;30/08/24;00:14:03;0.995;-0.119;-0.231;-2.3469443321228027;0.6572909951210022;0.6426302194595337
01:00:0A:00:00:00:00;1724976844;30/08/24;00:14:04;0.943;-0.474;-0.063;-1.3512338399887085;0.8356636166572571;0.23457224667072296
01:00:0A:00:00:00:00;1724976845;30/08/24;00:14:05;0.974;-0.152;0.367;-0.8429940342903137;0.4996877610683441;-0.42271876335144043
01:00:0A:00:00:00:00;1724976846;30/08/24;00:14:06;0.988;0.005;0.093;-0.8381071090698242;-0.12828169763088226;-0.41172316670417786
01:00:0A:00:00:00:00;1724976847;30/08/24;00:14:07;0.961;-0.024;-0.01;-3.1471776962280273;-0.27000245451927185;0.14049901068210602
01:00:0A:00:00:00:00;1724976848;30/08/24;00:14:08;0.979;-0.067;-0.071;-2.6511549949645996;0.26511549949645996;0.44348815083503723
01:00:0A:00:00:00:00;1724976849;30/08/24;00:14:09;0.985;-0.142;-0.161;-1.9022343158721924;0.6731734871864319;0.17959438264369965
01:00:0A:00:00:00:00;1724976850;30/08/24;00:14:10;1.024;-0.306;-0.032;-1.2620476484298706;0.5729915499687195;-0.2431243658065796
01:00:0A:00:00:00:00;1724976851;30/08/24;00:14:11;0.815;0.325;-0.46;-0.010995574295520782;0.4202752709388733;-0.24068090319633484
01:00:0A:00:00:00:00;1724976852;30/08/24;00:14:12;0.954;0.099;0.37;-0.4789183437824249;-0.08552113175392151;-0.3335324227809906
01:00:0A:00:00:00:00;1724976853;30/08/24;00:14:13;1.009;0.087;0.115;1.2999212741851807;-0.1160643920302391;-0.13439035415649414
01:00:0A:00:00:00:00;1724976854;30/08/24;00:14:14;1.012;0.019;0.107;0.4996877610683441;0.1673770695924759;-0.2687807083129883
01:00:0A:00:00:00:00;1724976855;30/08/24;00:14:15;1.01;-0.064;0.025;-0.07696902006864548;0.6316346526145935;0.05497787147760391
01:00:0A:00:00:00:00;1724976856;30/08/24;00:14:16;1.026;0.134;0.059;-0.6572909951210022;-0.15393804013729095;0.17959438264369965
01:00:0A:00:00:00:00;1724976857;30/08/24;00:14:17;1.064;0.04;0.029;-0.901637077331543;-0.051312677562236786;-0.49724429845809937
01:00:0A:00:00:00:00;1724976858;30/08/24;00:14:18;1.073;-0.015;0.043;-1.193630576133728;0.29565879702568054;0.025656338781118393
01:00:0A:00:00:00:00;1724976859;30/08/24;00:14:19;1.003;0.149;0.048;-1.4856243133544922;0.024434609338641167;-0.2174680233001709
01:00:0A:00:00:00:00;1724976860;30/08/24;00:14:20;0.922;-0.18;-0.006;-1.7214182615280151;0.14294245839118958;0.29688048362731934
01:00:0A:00:00:00:00;1724976861;30/08/24;00:14:21;0.942;0.103;0.026;-1.6786577701568604;-0.1014036238193512;-0.1576032191514969
01:00:0A:00:00:00:00;1724976862;30/08/24;00:14:22;0.99;-0.067;0.051;-1.9633208513259888;0.12950342893600464;0.33719760179519653
01:00:0A:00:00:00:00;1724976863;30/08/24;00:14:23;1.006;-0.037;0.23;-1.9596556425094604;-0.12339477241039276;-0.862541675567627
01:00:0A:00:00:00:00;1724976864;30/08/24;00:14:24;1.06;0.138;-0.192;-2.3799309730529785;0.24068090319633484;0.6414085030555725
01:00:0A:00:00:00:00;1724976865;30/08/24;00:14:25;1.011;-0.089;0.274;-2.3151791095733643;0.5363396406173706;-0.5009095072746277
01:00:0A:00:00:00:00;1724976866;30/08/24;00:14:26;0.987;0.095;0.077;-2.3432791233062744;-0.30543261766433716;-0.485027015209198
01:00:0A:00:00:00:00;1724976867;30/08/24;00:14:27;0.986;0.0;0.076;-0.2785545289516449;0.27977627515792847;-0.27488934993743896
01:00:0A:00:00:00:00;1724976868;30/08/24;00:14:28;0.987;-0.128;-0.044;-0.7880162000656128;0.3677408695220947;0.3591887652873993
01:00:0A:00:00:00:00;1724976869;30/08/24;00:14:29;1.022;0.194;0.131;-1.0213667154312134;-0.3848450779914856;-0.49846604466438293
01:00:0A:00:00:00:00;1724976870;30/08/24;00:14:30;1.049;0.087;0.03;-1.4355332851409912;0.24923302233219147;0.07330382615327835
01:00:0A:00:00:00:00;1724976871;30/08/24;00:14:31;0.995;-0.07;0.215;-1.7861698865890503;0.20647244155406952;-0.03420845419168472
01:00:0A:00:00:00:00;1724976872;30/08/24;00:14:32;1.0;-0.099;-0.085;-2.046398639678955;0.21380282938480377;-0.04153883829712868
01:00:0A:00:00:00:00;1724976873;30/08/24;00:14:33;0.924;0.055;0.309;-2.094045877456665;-0.3286454975605011;-1.0225883722305298
01:00:0A:00:00:00:00;1724976874;30/08/24;00:14:34;0.974;0.09;-0.131;-2.5888469219207764;-1.056796908378601;0.4544837474822998
01:00:0A:00:00:00:00;1724976875;30/08/24;00:14:35;0.941;-0.207;-0.276;-2.5754077434539795;0.8698720932006836;1.7311919927597046
01:00:0A:00:00:00:00;1724976876;30/08/24;00:14:36;0.899;-0.508;0.244;-2.1148154735565186;1.6285667419433594;-0.4899139106273651
01:00:0A:00:00:00:00;1724976877;30/08/24;00:14:37;1.005;-0.2;0.314;-2.2430970668792725;0.08674286305904388;-1.4477505683898926
01:00:0A:00:00:00:00;1724976878;30/08/24;00:14:38;0.935;0.099;0.515;-2.4617867469787598;-0.06475171446800232;-1.1789698600769043
01:00:0A:00:00:00:00;1724976879;30/08/24;00:14:39;0.939;0.233;0.407;-2.75500226020813;-0.8136724829673767;-0.9101892113685608
01:00:0A:00:00:00:00;1724976880;30/08/24;00:14:40;0.843;-0.514;0.253;-0.13072516024112701;-0.4593706727027893;0.5302309989929199
01:00:0A:00:00:00:00;1724976881;30/08/24;00:14:41;1.017;0.162;0.07;-0.3494149148464203;-0.2015855312347412;-0.35552355647087097
01:00:0A:00:00:00:00;1724976882;30/08/24;00:14:42;1.017;-0.089;0.27;-1.1056660413742065;-0.16982054710388184;-0.2541199326515198
01:00:0A:00:00:00:00;1724976883;30/08/24;00:14:43;1.032;0.103;-0.191;-1.4489723443984985;0.4092797040939331;0.3090977966785431
01:00:0A:00:00:00:00;1724976884;30/08/24;00:14:44;1.002;0.183;0.345;-1.891238808631897;-0.5913175940513611;-0.6951646208763123
01:00:0A:00:00:00:00;1724976885;30/08/24;00:14:45;1.005;-0.196;0.256;-2.6230554580688477;0.49846604466438293;0.19547687470912933
01:00:0A:00:00:00:00;1724976886;30/08/24;00:14:46;1.003;0.04;-0.097;-2.8576273918151855;-0.6328563690185547;-0.03787364438176155
01:00:0A:00:00:00:00;1724976887;30/08/24;00:14:47;0.979;0.11;0.188;-3.224146842956543;0.16859880089759827;-0.45326200127601624
01:00:0A:00:00:00:00;1724976888;30/08/24;00:14:48;0.983;-0.101;0.12;-3.6468653678894043;-0.12950342893600464;-0.3445279896259308
01:00:0A:00:00:00:00;1724976889;30/08/24;00:14:49;0.986;0.046;-0.016;-4.096462249755859;-0.4691444933414459;0.021991148591041565
01:00:0A:00:00:00:00;1724976890;30/08/24;00:14:50;0.981;-0.292;0.197;-4.440990447998047;0.2321287840604782;-0.7073819637298584
01:00:0A:00:00:00:00;1724976891;30/08/24;00:14:51;0.999;-0.056;0.11;-4.249178886413574;-0.8576548099517822;-0.9456194043159485
01:00:0A:00:00:00:00;1724976892;30/08/24;00:14:52;0.989;0.082;-0.07;-4.311486721038818;-1.9364427328109741;-0.43249258399009705
01:00:0A:00:00:00:00;1724976893;30/08/24;00:14:53;0.902;0.459;0.129;-4.467868328094482;-2.7965409755706787;-0.3274237811565399
01:00:0A:00:00:00:00;1724976894;30/08/24;00:14:54;0.918;0.188;0.076;-0.6792821884155273;0.2675589621067047;-2.155132532119751
01:00:0A:00:00:00:00;1724976895;30/08/24;00:14:55;1.017;-0.215;-0.125;-2.9382617473602295;-0.3090977966785431;0.4141666293144226
01:00:0A:00:00:00:00;1724976896;30/08/24;00:14:56;0.995;-0.235;0.181;-2.079385280609131;0.25534167885780334;0.01710422709584236
01:00:0A:00:00:00:00;1724976897;30/08/24;00:14:57;1.03;-0.128;0.144;-1.8069393634796143;0.23945917189121246;-0.2834414541721344
01:00:0A:00:00:00:00;1724976898;30/08/24;00:14:58;1.065;0.005;0.15;-1.6859880685806274;-0.0659734457731247;-0.313984751701355
01:00:0A:00:00:00:00;1724976899;30/08/24;00:14:59;1.034;0.031;-0.343;-2.872288227081299;-0.28466320037841797;-0.2528982162475586
01:00:0A:00:00:00:00;1724976900;30/08/24;00:15:00;0.906;-0.546;0.111;-2.2259929180145264;-0.2528982162475586;0.38240164518356323
01:00:0A:00:00:00:00;1724976901;30/08/24;00:15:01;0.983;0.242;-0.017;-1.5137239694595337;0.646295428276062;-0.080634206533432
01:00:0A:00:00:00:00;1724976902;30/08/24;00:15:02;0.931;-0.35;0.096;-1.2180652618408203;-0.3347541391849518;-0.19425514340400696
01:00:0A:00:00:00:00;1724976903;30/08/24;00:15:03;0.989;-0.014;0.204;-0.8454375267028809;0.5461135506629944;-0.09407324343919754
01:00:0A:00:00:00:00;1724976904;30/08/24;00:15:04;0.994;-0.189;0.198;-0.7819074988365173;-0.6719517707824707;-0.13316862285137177
01:00:0A:00:00:00:00;1724976905;30/08/24;00:15:05;1.018;0.193;-0.152;-0.6365215182304382;-0.045204028487205505;-0.1014036238193512
01:00:0A:00:00:00:00;1724976906;30/08/24;00:15:06;0.987;-0.388;0.25;-0.5705481767654419;0.10018189996480942;0.5497786998748779
01:00:0A:00:00:00:00;1724976907;30/08/24;00:15:07;0.988;0.227;-0.116;-0.23457224667072296;-0.27122414112091064;-0.8161159753799438
01:00:0A:00:00:00:00;1724976908;30/08/24;00:15:08;0.951;-0.2;0.231;-0.35674530267715454;0.21624629199504852;0.5656611919403076
01:00:0A:00:00:00:00;1724976909;30/08/24;00:15:09;0.935;-0.027;0.042;0.02321287989616394;-0.2834414541721344;-0.8112289905548096
01:00:0A:00:00:00:00;1724976910;30/08/24;00:15:10;0.944;0.005;0.062;-0.2028072476387024;0.24678954482078552;0.76846843957901
01:00:0A:00:00:00:00;1724976911;30/08/24;00:15:11;0.97;-0.176;0.179;0.12950342893600464;-0.13316862285137177;-0.919963002204895
01:00:0A:00:00:00:00;1724976912;30/08/24;00:15:12;0.971;0.362;0.046;-0.26145032048225403;-0.06108652427792549;0.44715335965156555
01:00:0A:00:00:00:00;1724976913;30/08/24;00:15:13;1.011;-0.381;-0.02;-0.17348572611808777;-0.04642575979232788;0.14416420459747314
01:00:0A:00:00:00:00;1724976914;30/08/24;00:15:14;1.032;0.025;0.083;0.05497787147760391;0.07452555745840073;-0.17959438264369965
01:00:0A:00:00:00:00;1724976915;30/08/24;00:15:15;0.959;0.043;0.162;-0.07696902006864548;-0.04764748737215996;0.2015855312347412
01:00:0A:00:00:00:00;1724976916;30/08/24;00:15:16;0.973;-0.033;0.094;-0.06475171446800232;-0.28099802136421204;-0.015882495790719986
01:00:0A:00:00:00:00;1724976917;30/08/24;00:15:17;1.04;-0.088;0.018;0.015882495790719986;0.34697145223617554;-0.05009094998240471
01:00:0A:00:00:00:00;1724976918;30/08/24;00:15:18;1.017;0.031;0.431;-0.17837265133857727;-0.5412266254425049;0.3017674386501312
01:00:0A:00:00:00:00;1724976919;30/08/24;00:15:19;0.973;-0.162;-0.452;0.07696902006864548;0.24923302233219147;0.01710422709584236
01:00:0A:00:00:00:00;1724976920;30/08/24;00:15:20;0.989;0.169;0.44;0.15393804013729095;0.06841690838336945;-0.04153883829712868
01:00:0A:00:00:00:00;1724976921;30/08/24;00:15:21;1.024;-0.231;-0.2;0.24923302233219147;-0.17470745742321014;-0.1368338167667389
01:00:0A:00:00:00:00;1724976922;30/08/24;00:15:22;1.074;0.028;-0.008;0.4813618063926697;0.12461651116609573;-0.3848450779914856
01:00:0A:00:00:00:00;1724976923;30/08/24;00:15:23;0.996;-0.156;0.189;0.3799581527709961;0.2174680233001709;0.3946189284324646
01:00:0A:00:00:00:00;1724976924;30/08/24;00:15:24;0.953;-0.073;-0.109;0.4752531349658966;-0.4960225820541382;0.015882495790719986
01:00:0A:00:00:00:00;1724976925;30/08/24;00:15:25;0.911;0.033;0.192;0.5693264007568359;0.9871581792831421;-0.14538592100143433
01:00:0A:00:00:00:00;1724976926;30/08/24;00:15:26;0.979;-0.077;0.079;0.23579397797584534;-0.6426302194595337;0.5167919993400574
