Source;Epoch timestamp (UTC);Date;Time (UTC);Accel X (G);Accel Y (G);Accel Z (G);Gyro X (rad/s);Gyro Y (rad/s);Gyro Z (rad/s)
01:00:0A:00:00:00:00;1725753613;08/09/24;00:00:13;1.012;0.012;0.113;0.0024434609804302454;-0.012217304669320583;0.004886921960860491
01:00:0A:00:00:00:00;1725753614;08/09/24;00:00:14;1.013;0.011;0.112;0.0036651913542300463;-0.012217304669320583;0.0024434609804302454
01:00:0A:00:00:00:00;1725753615;08/09/24;00:00:15;1.013;0.012;0.111;0.0024434609804302454;-0.010995574295520782;0.0012217304902151227
01:00:0A:00:00:00:00;1725753616;08/09/24;00:00:16;1.013;0.013;0.113;0.0036651913542300463;-0.010995574295520782;0.0024434609804302454
01:00:0A:00:00:00:00;1725753617;08/09/24;00:00:17;1.013;0.012;0.113;0.004886921960860491;-0.012217304669320583;0.0036651913542300463
01:00:0A:00:00:00:00;1725753618;08/09/24;00:00:18;1.013;0.01;0.113;0.006108652334660292;-0.010995574295520782;0.0036651913542300463
01:00:0A:00:00:00:00;1725753619;08/09/24;00:00:19;1.012;0.009;0.113;0.004886921960860491;-0.012217304669320583;0.0036651913542300463
01:00:0A:00:00:00:00;1725753620;08/09/24;00:00:20;1.012;0.01;0.112;0.006108652334660292;-0.010995574295520782;0.0012217304902151227
01:00:0A:00:00:00:00;1725753621;08/09/24;00:00:21;1.012;0.013;0.113;0.0073303827084600925;-0.010995574295520782;0.0
01:00:0A:00:00:00:00;1725753622;08/09/24;00:00:22;1.012;0.011;0.113;0.0036651913542300463;-0.010995574295520782;0.006108652334660292
01:00:0A:00:00:00:00;1725753623;08/09/24;00:00:23;1.012;0.009;0.112;0.0073303827084600925;-0.012217304669320583;0.0024434609804302454
01:00:0A:00:00:00:00;1725753624;08/09/24;00:00:24;1.013;0.013;0.112;0.0073303827084600925;-0.010995574295520782;0.0012217304902151227
01:00:0A:00:00:00:00;1725753625;08/09/24;00:00:25;1.013;0.012;0.112;0.004886921960860491;-0.010995574295520782;0.004886921960860491
01:00:0A:00:00:00:00;1725753626;08/09/24;00:00:26;1.012;0.011;0.111;0.00855211354792118;-0.012217304669320583;0.0024434609804302454
01:00:0A:00:00:00:00;1725753627;08/09/24;00:00:27;1.012;0.011;0.112;0.0073303827084600925;-0.010995574295520782;0.004886921960860491
01:00:0A:00:00:00:00;1725753628;08/09/24;00:00:28;1.013;0.011;0.113;0.0073303827084600925;-0.010995574295520782;0.004886921960860491
01:00:0A:00:00:00:00;1725753629;08/09/24;00:00:29;1.013;0.009;0.112;0.0073303827084600925;-0.012217304669320583;0.0024434609804302454
01:00:0A:00:00:00:00;1725753630;08/09/24;00:00:30;1.013;0.011;0.112;0.0073303827084600925;-0.010995574295520782;0.0
01:00:0A:00:00:00:00;1725753631;08/09/24;00:00:31;1.012;0.013;0.113;0.006108652334660292;-0.012217304669320583;0.0036651913542300463
01:00:0A:00:00:00:00;1725753632;08/09/24;00:00:32;1.013;0.009;0.112;0.006108652334660292;-0.012217304669320583;0.0036651913542300463
01:00:0A:00:00:00:00;1725753633;08/09/24;00:00:33;1.012;0.012;0.112;0.00855211354792118;-0.010995574295520782;0.0
01:00:0A:00:00:00:00;1725753634;08/09/24;00:00:34;1.013;0.012;0.112;0.006108652334660292;-0.012217304669320583;0.004886921960860491
01:00:0A:00:00:00:00;1725753635;08/09/24;00:00:35;1.013;0.011;0.113;0.0073303827084600925;-0.012217304669320583;0.0036651913542300463
01:00:0A:00:00:00:00;1725753636;08/09/24;00:00:36;1.012;0.011;0.113;0.00855211354792118;-0.010995574295520782;0.0012217304902151227
01:00:0A:00:00:00:00;1725753637;08/09/24;00:00:37;1.012;0.01;0.112;0.0073303827084600925;-0.010995574295520782;0.0036651913542300463
01:00:0A:00:00:00:00;1725753638;08/09/24;00:00:38;1.012;0.01;0.113;0.00855211354792118;-0.012217304669320583;0.0036651913542300463
01:00:0A:00:00:00:00;1725753639;08/09/24;00:00:39;1.012;0.01;0.111;0.00855211354792118;-0.010995574295520782;0.0012217304902151227
01:00:0A:00:00:00:00;1725753640;08/09/24;00:00:40;1.012;0.013;0.114;0.0073303827084600925;-0.010995574295520782;0.0036651913542300463
01:00:0A:00:00:00:00;1725753641;08/09/24;00:00:41;1.012;0.01;0.113;0.0073303827084600925;-0.012217304669320583;0.004886921960860491
01:00:0A:00:00:00:00;1725753642;08/09/24;00:00:42;1.012;0.011;0.112;0.009773843921720982;-0.010995574295520782;0.0012217304902151227
01:00:0A:00:00:00:00;1725753643;08/09/24;00:00:43;1.013;0.012;0.113;0.0073303827084600925;-0.010995574295520782;0.0036651913542300463
01:00:0A:00:00:00:00;1725753644;08/09/24;00:00:44;1.013;0.011;0.113;0.009773843921720982;-0.010995574295520782;0.0036651913542300463
01:00:0A:00:00:00:00;1725753645;08/09/24;00:00:45;1.012;0.011;0.112;0.010995574295520782;-0.012217304669320583;0.0036651913542300463
01:00:0A:00:00:00:00;1725753646;08/09/24;00:00:46;1.014;0.01;0.113;0.010995574295520782;-0.010995574295520782;0.0036651913542300463
01:00:0A:00:00:00:00;1725753647;08/09/24;00:00:47;1.013;0.01;0.112;0.010995574295520782;-0.012217304669320583;0.0036651913542300463
01:00:0A:00:00:00:00;1725753648;08/09/24;00:00:48;1.012;0.011;0.112;0.009773843921720982;-0.010995574295520782;0.0012217304902151227
01:00:0A:00:00:00:00;1725753649;08/09/24;00:00:49;0.983;-0.005;0.138;0.024434609338641167;0.09651670604944229;0.02076941914856434
01:00:0A:00:00:00:00;1725753650;08/09/24;00:00:50;0.941;0.141;-0.14;-0.2883284091949463;-0.3188716471195221;0.036651913076639175
01:00:0A:00:00:00:00;1725753651;08/09/24;00:00:51;0.958;0.315;0.077;-1.7336355447769165;-0.656069278717041;1.027475357055664
01:00:0A:00:00:00:00;1725753652;08/09/24;00:00:52;0.967;0.034;-0.396;-1.7201964855194092;-0.06230825558304787;-0.1014036238193512
01:00:0A:00:00:00:00;1725753653;08/09/24;00:00:53;0.944;-0.044;-0.126;-1.4624114036560059;-1.4563027620315552;-0.15271630883216858
01:00:0A:00:00:00:00;1725753654;08/09/24;00:00:54;0.943;0.118;0.142;-2.1062633991241455;0.40072759985923767;1.4391984939575195
01:00:0A:00:00:00:00;1725753655;08/09/24;00:00:55;0.948;-0.162;0.079;-0.6743952035903931;0.4398229718208313;-0.9773843884468079
01:00:0A:00:00:00:00;1725753656;08/09/24;00:00:56;0.817;-0.658;0.406;-0.24434609711170197;0.004886921960860491;-1.1740829944610596
01:00:0A:00:00:00:00;1725753657;08/09/24;00:00:57;0.922;0.459;-0.148;-0.6695082783699036;-0.36651912331581116;0.02076941914856434
01:00:0A:00:00:00:00;1725753658;08/09/24;00:00:58;0.74;-0.001;0.793;-1.3964378833770752;1.814269781112671;-0.6108652353286743
01:00:0A:00:00:00:00;1725753659;08/09/24;00:00:59;0.931;0.193;-0.272;-1.0885618925094604;0.021991148591041565;-0.5693264007568359
01:00:0A:00:00:00:00;1725753660;08/09/24;00:01:00;0.995;-0.081;0.217;-1.6823228597640991;-0.49235740303993225;0.8124507665634155
01:00:0A:00:00:00:00;1725753661;08/09/24;00:01:01;0.67;0.641;0.739;-1.0189231634140015;0.7305948734283447;-2.1734585762023926
01:00:0A:00:00:00:00;1725753662;08/09/24;00:01:02;0.957;-0.039;-0.33;-1.5247195959091187;-0.5216788649559021;0.06108652427792549
01:00:0A:00:00:00:00;1725753663;08/09/24;00:01:03;0.967;-0.203;0.118;-1.4001030921936035;0.14782939851284027;0.616973876953125
01:00:0A:00:00:00:00;1725753664;08/09/24;00:01:04;1.005;0.111;0.09;-0.7635815143585205;0.4508185386657715;-0.5424482822418213
01:00:0A:00:00:00:00;1725753665;08/09/24;00:01:05;0.936;0.099;0.453;-0.7916813492774963;-0.5644394755363464;0.07696902006864548
01:00:0A:00:00:00:00;1725753666;08/09/24;00:01:06;0.82;-0.045;0.34;-1.3988813161849976;2.4239132404327393;0.6536257863044739
01:00:0A:00:00:00:00;1725753667;08/09/24;00:01:07;0.968;0.079;-0.068;-0.6939429044723511;0.09285151958465576;-0.7892378568649292
01:00:0A:00:00:00:00;1725753668;08/09/24;00:01:08;0.928;0.099;0.315;-1.1349875926971436;-0.5852089524269104;0.5778785347938538
01:00:0A:00:00:00:00;1725753669;08/09/24;00:01:09;0.957;0.131;0.181;-1.2889256477355957;-1.957212209701538;0.2981022298336029
01:00:0A:00:00:00:00;1725753670;08/09/24;00:01:10;0.93;0.352;-0.124;-1.6896531581878662;0.26511549949645996;0.38728854060173035
01:00:0A:00:00:00:00;1725753671;08/09/24;00:01:11;1.003;-0.106;-0.038;-1.5015066862106323;-0.3298672139644623;0.025656338781118393
01:00:0A:00:00:00:00;1725753672;08/09/24;00:01:12;0.982;0.048;0.189;-1.3646730184555054;0.616973876953125;0.22846359014511108
01:00:0A:00:00:00:00;1725753673;08/09/24;00:01:13;0.969;0.121;-0.099;-0.9126326441764832;-0.34208452701568604;-0.5656611919403076
01:00:0A:00:00:00:00;1725753674;08/09/24;00:01:14;0.765;-0.808;0.428;-1.350012183189392;1.3170254230499268;1.9230037927627563
01:00:0A:00:00:00:00;1725753675;08/09/24;00:01:15;0.909;0.27;-0.443;-0.587652325630188;-1.2510520219802856;-0.2871066629886627
01:00:0A:00:00:00:00;1725753676;08/09/24;00:01:16;0.916;-0.551;-0.144;-0.626747727394104;0.7428121566772461;0.6352998614311218
01:00:0A:00:00:00:00;1725753677;08/09/24;00:01:17;0.986;-0.057;0.356;0.19058994948863983;0.05619959905743599;-0.7147123217582703
01:00:0A:00:00:00:00;1725753678;08/09/24;00:01:18;0.989;0.282;0.033;-0.3152064383029938;-0.22113320231437683;0.18936821818351746
01:00:0A:00:00:00:00;1725753679;08/09/24;00:01:19;1.021;-0.03;0.093;-0.4740314185619354;0.49724429845809937;-0.03298672288656235
01:00:0A:00:00:00:00;1725753680;08/09/24;00:01:20;0.94;-0.015;0.13;-0.2883284091949463;-0.12217304855585098;-0.29565879702568054
01:00:0A:00:00:00:00;1725753681;08/09/24;00:01:21;0.677;0.281;0.672;-1.7201964855194092;-1.0653489828109741;-0.4349360466003418
01:00:0A:00:00:00:00;1725753682;08/09/24;00:01:22;1.011;-0.089;0.126;-1.225395679473877;-1.3292428255081177;0.21502456068992615
01:00:0A:00:00:00:00;1725753683;08/09/24;00:01:23;0.88;0.397;-0.213;-1.6493362188339233;0.8613200187683105;0.4544837474822998
01:00:0A:00:00:00:00;1725753684;08/09/24;00:01:24;0.98;-0.364;0.077;-1.1472049951553345;-0.24190263450145721;0.018325956538319588
01:00:0A:00:00:00:00;1725753685;08/09/24;00:01:25;0.925;0.12;0.209;-1.205847978591919;0.35185837745666504;0.019547687843441963
01:00:0A:00:00:00:00;1725753686;08/09/24;00:01:26;0.831;-0.54;-0.245;-1.684766411781311;1.3158037662506104;0.16371189057826996
01:00:0A:00:00:00:00;1725753687;08/09/24;00:01:27;0.859;0.238;0.489;-1.3658946752548218;-0.06475171446800232;-1.7397441864013672
01:00:0A:00:00:00:00;1725753688;08/09/24;00:01:28;0.795;0.172;0.587;-0.35185837745666504;-0.6878342032432556;-0.1966986060142517
01:00:0A:00:00:00:00;1725753689;08/09/24;00:01:29;0.804;-0.258;0.635;-1.1410963535308838;0.32131510972976685;0.4495967924594879
01:00:0A:00:00:00:00;1725753690;08/09/24;00:01:30;0.809;-0.602;0.013;-0.22968533635139465;0.28466320037841797;-1.0775662660598755
01:00:0A:00:00:00:00;1725753691;08/09/24;00:01:31;0.606;-0.185;-0.83;0.05009094998240471;0.445931613445282;0.4398229718208313
01:00:0A:00:00:00:00;1725753692;08/09/24;00:01:32;0.877;0.026;0.417;0.24678954482078552;1.1044443845748901;-0.36651912331581116
01:00:0A:00:00:00:00;1725753693;08/09/24;00:01:33;0.955;-0.015;0.291;0.3433062732219696;-0.49357908964157104;-0.6414085030555725
01:00:0A:00:00:00:00;1725753694;08/09/24;00:01:34;0.801;-0.264;0.126;1.1875219345092773;-0.5742133259773254;-1.725083351135254
01:00:0A:00:00:00:00;1725753695;08/09/24;00:01:35;0.98;-0.16;0.221;0.9541715383529663;0.8576548099517822;-1.821600079536438
01:00:0A:00:00:00:00;1725753696;08/09/24;00:01:36;0.909;0.181;0.417;0.8662068843841553;0.0757472887635231;-2.3799309730529785
01:00:0A:00:00:00:00;1725753697;08/09/24;00:01:37;0.854;-0.659;0.031;0.3433062732219696;1.489289402961731;-1.3524556159973145
01:00:0A:00:00:00:00;1725753698;08/09/24;00:01:38;0.827;0.576;-0.055;-0.8576548099517822;-1.007927656173706;1.0005972385406494
01:00:0A:00:00:00:00;1725753699;08/09/24;00:01:39;0.779;-0.463;-0.326;-1.056796908378601;0.9285151362419128;0.29688048362731934
01:00:0A:00:00:00:00;1725753700;08/09/24;00:01:40;0.914;0.028;0.353;-0.04398229718208313;-0.045204028487205505;-1.82404363155365
01:00:0A:00:00:00:00;1725753701;08/09/24;00:01:41;0.899;-0.059;-0.408;-1.0128145217895508;0.5253441333770752;-0.9395107626914978
01:00:0A:00:00:00:00;1725753702;08/09/24;00:01:42;1.066;0.15;0.121;-1.5161675214767456;-0.2272418737411499;1.19607412815094
01:00:0A:00:00:00:00;1725753703;08/09/24;00:01:43;1.083;0.094;0.419;-0.9089674949645996;0.3298672139644623;-0.8967502117156982
01:00:0A:00:00:00:00;1725753704;08/09/24;00:01:44;1.072;0.175;0.315;-1.292590856552124;-0.3640756905078888;1.2412781715393066
01:00:0A:00:00:00:00;1725753705;08/09/24;00:01:45;0.6;0.216;-0.92;-2.026850938796997;0.04398229718208313;0.3604104816913605
01:00:0A:00:00:00:00;1725753706;08/09/24;00:01:46;0.835;0.331;0.472;1.1007791757583618;2.8075366020202637;-2.3457224369049072
01:00:0A:00:00:00:00;1725753707;08/09/24;00:01:47;0.863;0.553;0.112;0.3946189284324646;-2.1038198471069336;0.39706242084503174
01:00:0A:00:00:00:00;1725753708;08/09/24;00:01:48;0.771;0.498;-0.014;-1.5784757137298584;-0.19547687470912933;0.3885102868080139
01:00:0A:00:00:00:00;1725753709;08/09/24;00:01:49;0.774;0.557;0.087;-0.5546656250953674;-0.23457224667072296;0.8442157506942749
01:00:0A:00:00:00:00;1725753710;08/09/24;00:01:50;1.013;-0.007;-0.139;-1.4636330604553223;-0.3530800938606262;0.1514945775270462
01:00:0A:00:00:00:00;1725753711;08/09/24;00:01:51;1.074;-0.019;0.093;-1.4819591045379639;0.1771509200334549;-0.40194931626319885
01:00:0A:00:00:00:00;1725753712;08/09/24;00:01:52;0.977;-0.34;0.363;-0.6780604124069214;-0.5143485069274902;-0.5216788649559021
01:00:0A:00:00:00:00;1725753713;08/09/24;00:01:53;0.885;0.333;-0.147;0.40683624148368835;-0.6792821884155273;0.1722639948129654
01:00:0A:00:00:00:00;1725753714;08/09/24;00:01:54;0.851;-0.468;-0.278;-0.8515461683273315;0.7648032903671265;-0.012217304669320583
01:00:0A:00:00:00:00;1725753715;08/09/24;00:01:55;0.771;-0.372;0.627;-0.8210028409957886;1.615127682685852;-0.40194931626319885
01:00:0A:00:00:00:00;1725753716;08/09/24;00:01:56;0.876;0.484;-0.077;-1.2950342893600464;-1.1044443845748901;0.1918116807937622
01:00:0A:00:00:00:00;1725753717;08/09/24;00:01:57;0.835;-0.551;-0.495;-0.8539896011352539;1.2168434858322144;0.2883284091949463
01:00:0A:00:00:00:00;1725753718;08/09/24;00:01:58;0.651;-0.394;0.652;2.7293460369110107;-0.7086036801338196;-0.39217546582221985
01:00:0A:00:00:00:00;1725753719;08/09/24;00:01:59;0.792;0.535;-0.04;-0.7525859475135803;-0.030543262138962746;-1.4294246435165405
01:00:0A:00:00:00:00;1725753720;08/09/24;00:02:00;0.677;0.449;0.895;-0.8222246170043945;0.970054030418396;-0.5009095072746277
01:00:0A:00:00:00:00;1725753721;08/09/24;00:02:01;0.857;-0.37;-0.494;-0.5681046843528748;0.4752531349658966;-0.5387831330299377
01:00:0A:00:00:00:00;1725753722;08/09/24;00:02:02;0.965;0.224;0.162;-0.8686503767967224;-0.09162978082895279;-0.2822197377681732
01:00:0A:00:00:00:00;1725753723;08/09/24;00:02:03;0.902;-0.314;-0.022;-1.1911872625350952;-0.44226640462875366;1.222952127456665
01:00:0A:00:00:00:00;1725753724;08/09/24;00:02:04;1.01;-0.242;0.153;-0.32620203495025635;1.2302825450897217;-1.3964378833770752
01:00:0A:00:00:00:00;1725753725;08/09/24;00:02:05;0.517;-0.688;-0.168;1.9620990753173828;1.1594222784042358;-0.14294245839118958
01:00:0A:00:00:00:00;1725753726;08/09/24;00:02:06;0.988;0.079;-0.119;-0.2431243658065796;0.3078760802745819;-0.5644394755363464
01:00:0A:00:00:00:00;1725753727;08/09/24;00:02:07;0.953;-0.037;0.163;-0.18936821818351746;-0.7110471129417419;-0.28588491678237915
01:00:0A:00:00:00:00;1725753728;08/09/24;00:02:08;0.798;-0.058;0.385;0.6707300543785095;-0.5510004162788391;-0.13439035415649414
01:00:0A:00:00:00:00;1725753729;08/09/24;00:02:09;0.885;-0.196;0.069;0.1270599663257599;0.48747044801712036;0.059864792972803116
01:00:0A:00:00:00:00;1725753730;08/09/24;00:02:10;1.028;0.139;0.108;-0.6768386960029602;-1.1814132928848267;-1.2681562900543213
01:00:0A:00:00:00:00;1725753731;08/09/24;00:02:11;0.835;-0.347;0.165;0.33108896017074585;1.290147304534912;-1.5992451906204224
01:00:0A:00:00:00:00;1725753732;08/09/24;00:02:12;1.037;-0.088;-0.462;-1.8448129892349243;0.4105014204978943;0.5400049090385437
01:00:0A:00:00:00:00;1725753733;08/09/24;00:02:13;1.023;0.308;0.022;-0.27611109614372253;-0.1417207270860672;0.080634206533432
01:00:0A:00:00:00:00;1725753734;08/09/24;00:02:14;0.771;-0.554;-0.122;-0.10384709388017654;0.8136724829673767;1.1606439352035522
01:00:0A:00:00:00:00;1725753735;08/09/24;00:02:15;0.832;0.337;-0.482;-0.5778785347938538;-1.197295904159546;0.16371189057826996
01:00:0A:00:00:00:00;1725753736;08/09/24;00:02:16;0.988;0.227;0.246;-1.3683381080627441;0.09040805697441101;0.5326744914054871
01:00:0A:00:00:00:00;1725753737;08/09/24;00:02:17;0.98;0.33;0.196;-0.07208210229873657;-0.6010913848876953;-0.11728612333536148
01:00:0A:00:00:00:00;1725753738;08/09/24;00:02:18;0.807;-0.234;0.775;-0.4752531349658966;0.44226640462875366;0.1160643920302391
01:00:0A:00:00:00:00;1725753739;08/09/24;00:02:19;0.9;0.071;0.547;0.006108652334660292;0.5497786998748779;-0.01710422709584236
01:00:0A:00:00:00:00;1725753740;08/09/24;00:02:20;1.026;0.105;0.076;-1.1020008325576782;-0.6951646208763123;-0.2834414541721344
01:00:0A:00:00:00:00;1725753741;08/09/24;00:02:21;1.028;0.289;-0.053;-1.7397441864013672;-0.45692718029022217;0.22357667982578278
01:00:0A:00:00:00:00;1725753742;08/09/24;00:02:22;0.81;-0.248;0.134;-1.1545352935791016;0.8002334833145142;-2.1649065017700195
01:00:0A:00:00:00:00;1725753743;08/09/24;00:02:23;1.035;-0.121;-0.154;-0.8393288850784302;-0.7525859475135803;0.740368664264679
01:00:0A:00:00:00:00;1725753744;08/09/24;00:02:24;0.943;-0.107;-0.063;-0.5522221922874451;2.3750438690185547;-0.8381071090698242
01:00:0A:00:00:00:00;1725753745;08/09/24;00:02:25;0.822;0.174;0.44;-0.6120869517326355;-0.27488934993743896;-0.6536257863044739
01:00:0A:00:00:00:00;1725753746;08/09/24;00:02:26;0.966;-0.037;-0.063;-0.7110471129417419;0.20402899384498596;0.080634206533432
01:00:0A:00:00:00:00;1725753747;08/09/24;00:02:27;0.986;0.114;0.278;-1.282817006111145;0.5522221922874451;-1.3145819902420044
01:00:0A:00:00:00:00;1725753748;08/09/24;00:02:28;0.971;-0.306;0.197;-0.6499606370925903;-0.7806857824325562;-0.7232644557952881
01:00:0A:00:00:00:00;1725753749;08/09/24;00:02:29;0.976;0.272;0.196;-0.5265658497810364;-0.03298672288656235;0.21868975460529327
01:00:0A:00:00:00:00;1725753750;08/09/24;00:02:30;0.998;0.024;0.039;-0.1111774742603302;-0.4483751058578491;-1.0946705341339111
01:00:0A:00:00:00:00;1725753751;08/09/24;00:02:31;0.83;0.536;0.049;-1.264491081237793;-1.1362093687057495;1.0775662660598755
01:00:0A:00:00:00:00;1725753752;08/09/24;00:02:32;0.823;0.236;-0.28;-0.7037167549133301;-0.27611109614372253;0.4948008358478546
01:00:0A:00:00:00:00;1725753753;08/09/24;00:02:33;0.947;-0.237;-0.16;-0.96883225440979;-0.3433062732219696;0.46181410551071167
01:00:0A:00:00:00:00;1725753754;08/09/24;00:02:34;0.935;0.241;-0.008;-0.8503243923187256;0.9932668209075928;-0.02321287989616394
01:00:0A:00:00:00:00;1725753755;08/09/24;00:02:35;0.927;-0.106;-0.046;-0.2590068578720093;-1.1997392177581787;0.0708603635430336
01:00:0A:00:00:00:00;1725753756;08/09/24;00:02:36;0.977;0.0;0.075;-1.1252137422561646;0.9724974632263184;0.5962044596672058
01:00:0A:00:00:00:00;1725753757;08/09/24;00:02:37;0.822;-0.152;0.534;0.40683624148368835;-0.46670106053352356;0.13561207056045532
01:00:0A:00:00:00:00;1725753758;08/09/24;00:02:38;0.947;0.25;0.132;0.7757988572120667;-0.3445279896259308;-0.7709119319915771
01:00:0A:00:00:00:00;1725753759;08/09/24;00:02:39;0.82;0.498;-0.117;-0.6291911602020264;-0.15882496535778046;0.7538076639175415
01:00:0A:00:00:00:00;1725753760;08/09/24;00:02:40;0.883;-0.354;0.038;-0.6682865619659424;1.222952127456665;0.03787364438176155
01:00:0A:00:00:00:00;1725753761;08/09/24;00:02:41;1.004;-0.048;0.131;-0.2370157092809677;-0.2028072476387024;-0.23335053026676178
01:00:0A:00:00:00:00;1725753762;08/09/24;00:02:42;0.858;0.034;0.537;0.2871066629886627;0.1820378452539444;-0.9663888216018677
01:00:0A:00:00:00:00;1725753763;08/09/24;00:02:43;0.732;0.539;-0.014;-0.4349360466003418;-2.3066272735595703;0.9798278212547302
01:00:0A:00:00:00:00;1725753764;08/09/24;00:02:44;0.714;-0.132;-0.81;-2.020742177963257;0.04642575979232788;1.5430455207824707
01:00:0A:00:00:00:00;1725753765;08/09/24;00:02:45;0.935;-0.432;0.099;-1.872912883758545;1.3353514671325684;-0.0073303827084600925
01:00:0A:00:00:00:00;1725753766;08/09/24;00:02:46;0.811;0.702;0.004;-0.7648032903671265;-1.4929546117782593;0.9187413454055786
01:00:0A:00:00:00:00;1725753767;08/09/24;00:02:47;0.689;0.399;0.714;-0.8405505418777466;-0.9443976283073425;-0.1918116807937622
01:00:0A:00:00:00:00;1725753768;08/09/24;00:02:48;0.899;-0.101;0.266;-2.4556782245635986;1.8863518238067627;0.5754350423812866
01:00:0A:00:00:00:00;1725753769;08/09/24;00:02:49;0.997;-0.088;0.107;-0.8796459436416626;0.10506881773471832;-1.3316861391067505
01:00:0A:00:00:00:00;1725753770;08/09/24;00:02:50;0.866;0.215;0.453;-1.6688838005065918;0.33108896017074585;-0.09651670604944229
01:00:0A:00:00:00:00;1725753771;08/09/24;00:02:51;1.02;-0.17;-0.094;-0.9871581792831421;-0.9040805697441101;-0.2528982162475586
01:00:0A:00:00:00:00;1725753772;08/09/24;00:02:52;1.009;0.276;0.01;-1.1252137422561646;0.06108652427792549;-0.07452555745840073
01:00:0A:00:00:00:00;1725753773;08/09/24;00:02:53;0.985;-0.046;0.114;-1.1606439352035522;0.2687807083129883;0.05009094998240471
01:00:0A:00:00:00:00;1725753774;08/09/24;00:02:54;0.935;-0.222;0.34;-0.5497786998748779;0.17592918872833252;0.10262535512447357
01:00:0A:00:00:00:00;1725753775;08/09/24;00:02:55;0.999;0.02;0.12;0.1014036238193512;-0.4349360466003418;-0.3848450779914856
01:00:0A:00:00:00:00;1725753776;08/09/24;00:02:56;1.031;0.102;-0.031;-0.3176499307155609;0.2321287840604782;0.24923302233219147
01:00:0A:00:00:00:00;1725753777;08/09/24;00:02:57;0.991;-0.255;0.315;0.024434609338641167;-0.1270599663257599;-0.16859880089759827
01:00:0A:00:00:00:00;1725753778;08/09/24;00:02:58;1.015;0.124;-0.06;-0.08429940044879913;-0.37751471996307373;-0.10384709388017654
01:00:0A:00:00:00:00;1725753779;08/09/24;00:02:59;0.97;-0.071;0.102;-0.48869219422340393;0.33719760179519653;0.40072759985923767
01:00:0A:00:00:00:00;1725753780;08/09/24;00:03:00;0.964;0.012;0.065;-0.06230825558304787;-0.28099802136421204;-0.48869219422340393
01:00:0A:00:00:00:00;1725753781;08/09/24;00:03:01;0.979;-0.049;0.125;-0.37751471996307373;0.1160643920302391;0.4043927788734436
01:00:0A:00:00:00:00;1725753782;08/09/24;00:03:02;0.975;-0.161;0.094;0.1062905490398407;-0.26145032048225403;-0.3591887652873993
01:00:0A:00:00:00:00;1725753783;08/09/24;00:03:03;0.987;0.119;-0.002;-0.14294245839118958;-0.14538592100143433;0.021991148591041565
01:00:0A:00:00:00:00;1725753784;08/09/24;00:03:04;0.985;-0.009;0.165;-0.445931613445282;0.009773843921720982;0.36529743671417236
01:00:0A:00:00:00:00;1725753785;08/09/24;00:03:05;1.007;-0.084;0.164;-0.05375614017248154;-0.08918632566928864;-0.3066543638706207
01:00:0A:00:00:00:00;1725753786;08/09/24;00:03:06;1.029;0.151;0.085;-0.21991148591041565;0.025656338781118393;0.10506881773471832
01:00:0A:00:00:00:00;1725753787;08/09/24;00:03:07;1.049;-0.081;0.145;-0.19303341209888458;-0.012217304669320583;0.05009094998240471
01:00:0A:00:00:00:00;1725753788;08/09/24;00:03:08;1.001;0.063;0.111;-0.09040805697441101;-0.00855211354792118;-0.2174680233001709
01:00:0A:00:00:00:00;1725753789;08/09/24;00:03:09;0.985;0.004;0.133;-0.2919935882091522;0.0012217304902151227;0.19547687470912933
01:00:0A:00:00:00:00;1725753790;08/09/24;00:03:10;1.018;-0.039;0.144;-0.08674286305904388;-0.08674286305904388;-0.09162978082895279
01:00:0A:00:00:00:00;1725753791;08/09/24;00:03:11;1.041;0.113;0.11;-0.13561207056045532;-0.004886921960860491;-0.059864792972803116
01:00:0A:00:00:00:00;1725753792;08/09/24;00:03:12;1.007;-0.06;0.155;-0.19914205372333527;0.10995574295520782;0.13316862285137177
01:00:0A:00:00:00:00;1725753793;08/09/24;00:03:13;0.957;0.053;0.022;-0.04886921867728233;-0.1062905490398407;-0.22113320231437683
01:00:0A:00:00:00:00;1725753794;08/09/24;00:03:14;0.957;0.005;0.078;-0.2895500957965851;0.18325956165790558;0.2272418737411499
01:00:0A:00:00:00:00;1725753795;08/09/24;00:03:15;0.992;-0.05;0.114;0.07452555745840073;-0.3628539443016052;-0.3738495111465454
01:00:0A:00:00:00:00;1725753796;08/09/24;00:03:16;1.02;0.135;-0.028;-0.28099802136421204;0.025656338781118393;0.14049901068210602
01:00:0A:00:00:00:00;1725753797;08/09/24;00:03:17;0.993;-0.121;0.205;-0.33597588539123535;0.13316862285137177;0.21013763546943665
01:00:0A:00:00:00:00;1725753798;08/09/24;00:03:18;0.991;0.054;0.111;0.006108652334660292;-0.18448130786418915;-0.2871066629886627
01:00:0A:00:00:00:00;1725753799;08/09/24;00:03:19;1.0;0.134;0.08;-0.3836233615875244;0.024434609338641167;0.1918116807937622
01:00:0A:00:00:00:00;1725753800;08/09/24;00:03:20;1.023;-0.11;0.141;-0.2773328125476837;0.02076941914856434;-0.0659734457731247
01:00:0A:00:00:00:00;1725753801;08/09/24;00:03:21;1.019;0.058;0.14;-0.16371189057826996;0.006108652334660292;-0.19792033731937408
01:00:0A:00:00:00:00;1725753802;08/09/24;00:03:22;0.999;0.033;0.112;-0.3335324227809906;-0.05009094998240471;0.12950342893600464
01:00:0A:00:00:00:00;1725753803;08/09/24;00:03:23;0.995;-0.012;0.129;-0.22846359014511108;0.021991148591041565;-0.05375614017248154
01:00:0A:00:00:00:00;1725753804;08/09/24;00:03:24;1.016;0.056;0.142;-0.18814648687839508;-0.07941248267889023;-0.09651670604944229
01:00:0A:00:00:00:00;1725753805;08/09/24;00:03:25;1.03;0.047;0.115;-0.2981022298336029;-0.02687807008624077;0.0659734457731247
01:00:0A:00:00:00:00;1725753806;08/09/24;00:03:26;1.005;-0.056;0.148;-0.20647244155406952;0.04398229718208313;-0.009773843921720982
01:00:0A:00:00:00:00;1725753807;08/09/24;00:03:27;0.983;0.01;0.166;-0.08674286305904388;-0.04764748737215996;-0.16371189057826996
01:00:0A:00:00:00:00;1725753808;08/09/24;00:03:28;0.996;0.028;0.14;-0.21135938167572021;-0.04764748737215996;0.10262535512447357
01:00:0A:00:00:00:00;1725753809;08/09/24;00:03:29;1.02;-0.032;0.127;-0.1014036238193512;-0.02076941914856434;-0.08429940044879913
01:00:0A:00:00:00:00;1725753810;08/09/24;00:03:30;1.029;0.08;0.14;-0.12095131725072861;-0.05009094998240471;-0.03420845419168472
01:00:0A:00:00:00:00;1725753811;08/09/24;00:03:31;1.011;-0.029;0.106;-0.10384709388017654;-0.021991148591041565;0.16004669666290283
01:00:0A:00:00:00:00;1725753812;08/09/24;00:03:32;0.994;-0.068;0.172;0.030543262138962746;0.06352998316287994;0.06230825558304787
01:00:0A:00:00:00:00;1725753813;08/09/24;00:03:33;0.989;-0.116;0.209;0.3445279896259308;0.0659734457731247;0.12461651116609573
01:00:0A:00:00:00:00;1725753814;08/09/24;00:03:34;1.007;-0.035;0.153;0.5656611919403076;-0.06352998316287994;-0.042760565876960754
01:00:0A:00:00:00:00;1725753815;08/09/24;00:03:35;1.006;0.009;0.173;0.4752531349658966;0.040317103266716;0.02321287989616394
01:00:0A:00:00:00:00;1725753816;08/09/24;00:03:36;0.991;0.072;0.224;0.37262779474258423;0.018325956538319588;0.025656338781118393
01:00:0A:00:00:00:00;1725753817;08/09/24;00:03:37;0.998;0.078;0.195;0.322536826133728;-0.025656338781118393;0.06841690838336945
01:00:0A:00:00:00:00;1725753818;08/09/24;00:03:38;1.001;0.027;0.176;0.22846359014511108;-0.025656338781118393;0.028099799528717995
01:00:0A:00:00:00:00;1725753819;08/09/24;00:03:39;1.011;0.014;0.132;0.1661553531885147;-0.07330382615327835;0.03298672288656235
01:00:0A:00:00:00:00;1725753820;08/09/24;00:03:40;1.012;0.008;0.109;0.05619959905743599;-0.02687807008624077;0.05009094998240471
01:00:0A:00:00:00:00;1725753821;08/09/24;00:03:41;1.012;0.006;0.124;0.02932153083384037;0.0024434609804302454;-0.013439035043120384
01:00:0A:00:00:00:00;1725753822;08/09/24;00:03:42;1.015;0.009;0.101;-0.030543262138962746;0.0354301817715168;-0.0024434609804302454
01:00:0A:00:00:00:00;1725753823;08/09/24;00:03:43;0.996;0.041;0.178;-0.07330382615327835;0.013439035043120384;-0.010995574295520782
01:00:0A:00:00:00:00;1725753824;08/09/24;00:03:44;0.999;0.038;0.173;-0.06841690838336945;-0.03787364438176155;-0.045204028487205505
01:00:0A:00:00:00:00;1725753825;08/09/24;00:03:45;1.004;0.036;0.163;-0.12339477241039276;-0.05009094998240471;-0.02687807008624077
01:00:0A:00:00:00:00;1725753826;08/09/24;00:03:46;1.009;0.038;0.134;-0.12339477241039276;-0.08796459436416626;-0.009773843921720982
01:00:0A:00:00:00:00;1725753827;08/09/24;00:03:47;1.012;0.016;0.12;-0.15271630883216858;0.019547687843441963;0.0012217304902151227
01:00:0A:00:00:00:00;1725753828;08/09/24;00:03:48;1.004;-0.017;0.155;-0.15027284622192383;-0.010995574295520782;-0.0073303827084600925
01:00:0A:00:00:00:00;1725753829;08/09/24;00:03:49;1.007;0.008;0.162;-0.12095131725072861;0.0024434609804302454;-0.02687807008624077
01:00:0A:00:00:00:00;1725753830;08/09/24;00:03:50;1.006;0.024;0.172;-0.10384709388017654;-0.009773843921720982;-0.013439035043120384
01:00:0A:00:00:00:00;1725753831;08/09/24;00:03:51;1.005;0.034;0.139;-0.08429940044879913;-0.004886921960860491;-0.00855211354792118
01:00:0A:00:00:00:00;1725753832;08/09/24;00:03:52;1.038;0.024;0.122;-0.10995574295520782;-0.009773843921720982;0.030543262138962746
01:00:0A:00:00:00:00;1725753833;08/09/24;00:03:53;1.007;-0.018;0.132;-0.0659734457731247;-0.040317103266716;-0.039095375686883926
01:00:0A:00:00:00:00;1725753834;08/09/24;00:03:54;1.011;0.023;0.131;-0.042760565876960754;-0.03176499158143997;-0.045204028487205505
01:00:0A:00:00:00:00;1725753835;08/09/24;00:03:55;1.01;0.021;0.142;-0.06963863223791122;-0.0024434609804302454;-0.013439035043120384
01:00:0A:00:00:00:00;1725753836;08/09/24;00:03:56;1.017;0.022;0.128;-0.07452555745840073;-0.018325956538319588;0.03420845419168472
01:00:0A:00:00:00:00;1725753837;08/09/24;00:03:57;1.004;-0.015;0.128;-0.08674286305904388;0.009773843921720982;0.05009094998240471
01:00:0A:00:00:00:00;1725753838;08/09/24;00:03:58;1.009;-0.041;0.138;-0.021991148591041565;-0.015882495790719986;-0.045204028487205505
01:00:0A:00:00:00:00;1725753839;08/09/24;00:03:59;1.008;0.015;0.155;-0.03176499158143997;0.024434609338641167;-0.025656338781118393
01:00:0A:00:00:00:00;1725753840;08/09/24;00:04:00;1.009;0.029;0.14;-0.01710422709584236;-0.03298672288656235;0.0024434609804302454
01:00:0A:00:00:00:00;1725753841;08/09/24;00:04:01;1.039;0.01;0.126;-0.03420845419168472;-0.030543262138962746;0.030543262138962746
01:00:0A:00:00:00:00;1725753842;08/09/24;00:04:02;1.002;0.018;0.125;-0.019547687843441963;0.00855211354792118;-0.012217304669320583
01:00:0A:00:00:00:00;1725753843;08/09/24;00:04:03;1.011;0.011;0.14;-0.03176499158143997;-0.013439035043120384;0.004886921960860491
01:00:0A:00:00:00:00;1725753844;08/09/24;00:04:04;1.013;0.014;0.125;0.012217304669320583;-0.010995574295520782;-0.03787364438176155
01:00:0A:00:00:00:00;1725753845;08/09/24;00:04:05;1.039;0.019;0.123;-0.013439035043120384;0.012217304669320583;-0.0012217304902151227
01:00:0A:00:00:00:00;1725753846;08/09/24;00:04:06;1.003;0.013;0.128;-0.009773843921720982;-0.009773843921720982;0.02932153083384037
01:00:0A:00:00:00:00;1725753847;08/09/24;00:04:07;1.007;0.013;0.124;-0.018325956538319588;-0.028099799528717995;-0.012217304669320583
01:00:0A:00:00:00:00;1725753848;08/09/24;00:04:08;1.015;0.046;0.13;-0.013439035043120384;0.018325956538319588;-0.02076941914856434
01:00:0A:00:00:00:00;1725753849;08/09/24;00:04:09;1.011;0.02;0.14;-0.010995574295520782;-0.006108652334660292;-0.010995574295520782
01:00:0A:00:00:00:00;1725753850;08/09/24;00:04:10;1.011;0.017;0.119;-0.021991148591041565;-0.0073303827084600925;0.004886921960860491
01:00:0A:00:00:00:00;1725753851;08/09/24;00:04:11;1.003;0.023;0.129;-0.03420845419168472;0.012217304669320583;0.00855211354792118
01:00:0A:00:00:00:00;1725753852;08/09/24;00:04:12;1.012;0.017;0.13;-0.04642575979232788;-0.02687807008624077;0.0012217304902151227
01:00:0A:00:00:00:00;1725753853;08/09/24;00:04:13;1.013;0.035;0.13;-0.004886921960860491;0.0073303827084600925;-0.0354301817715168
01:00:0A:00:00:00:00;1725753854;08/09/24;00:04:14;1.018;0.032;0.131;-0.04398229718208313;0.0036651913542300463;0.02076941914856434
01:00:0A:00:00:00:00;1725753855;08/09/24;00:04:15;1.006;0.014;0.118;-0.04398229718208313;-0.0036651913542300463;-0.006108652334660292
01:00:0A:00:00:00:00;1725753856;08/09/24;00:04:16;1.004;0.018;0.122;-0.09040805697441101;-0.0073303827084600925;-0.004886921960860491
01:00:0A:00:00:00:00;1725753857;08/09/24;00:04:17;1.011;0.026;0.124;-0.13927726447582245;-0.021991148591041565;0.004886921960860491
01:00:0A:00:00:00:00;1725753858;08/09/24;00:04:18;1.013;0.021;0.136;-0.1062905490398407;-0.019547687843441963;-0.012217304669320583
01:00:0A:00:00:00:00;1725753859;08/09/24;00:04:19;1.054;0.023;0.137;-0.1270599663257599;-0.028099799528717995;-0.004886921960860491
01:00:0A:00:00:00:00;1725753860;08/09/24;00:04:20;1.011;0.001;0.119;-0.15515977144241333;-0.009773843921720982;-0.00855211354792118
01:00:0A:00:00:00:00;1725753861;08/09/24;00:04:21;1.007;0.016;0.136;-0.16004669666290283;0.0073303827084600925;-0.03298672288656235
01:00:0A:00:00:00:00;1725753862;08/09/24;00:04:22;1.01;0.019;0.132;-0.1563815027475357;-0.030543262138962746;0.0073303827084600925
01:00:0A:00:00:00:00;1725753863;08/09/24;00:04:23;1.043;0.009;0.113;-0.12950342893600464;-0.0012217304902151227;-0.02687807008624077
01:00:0A:00:00:00:00;1725753864;08/09/24;00:04:24;1.001;0.028;0.132;-0.12217304855585098;0.01710422709584236;-0.040317103266716
01:00:0A:00:00:00:00;1725753865;08/09/24;00:04:25;1.005;0.02;0.121;-0.13072516024112701;-0.06475171446800232;0.02687807008624077
01:00:0A:00:00:00:00;1725753866;08/09/24;00:04:26;1.015;0.014;0.107;-0.15393804013729095;-0.0012217304902151227;-0.013439035043120384
01:00:0A:00:00:00:00;1725753867;08/09/24;00:04:27;1.009;0.02;0.143;-0.13316862285137177;0.015882495790719986;-0.0024434609804302454
01:00:0A:00:00:00:00;1725753868;08/09/24;00:04:28;1.01;0.015;0.133;-0.10018189996480942;-0.03787364438176155;-0.021991148591041565
01:00:0A:00:00:00:00;1725753869;08/09/24;00:04:29;1.007;0.023;0.127;-0.11972958594560623;-0.012217304669320583;-0.021991148591041565
01:00:0A:00:00:00:00;1725753870;08/09/24;00:04:30;1.013;0.026;0.106;-0.15882496535778046;-0.013439035043120384;-0.0036651913542300463
01:00:0A:00:00:00:00;1725753871;08/09/24;00:04:31;1.011;0.032;0.104;-0.08674286305904388;-0.04642575979232788;-0.012217304669320583
01:00:0A:00:00:00:00;1725753872;08/09/24;00:04:32;1.012;0.006;0.122;-0.10995574295520782;0.010995574295520782;0.04398229718208313
01:00:0A:00:00:00:00;1725753873;08/09/24;00:04:33;1.004;0.019;0.122;-0.09040805697441101;-0.010995574295520782;-0.018325956538319588
01:00:0A:00:00:00:00;1725753874;08/09/24;00:04:34;1.004;0.054;0.135;-0.15271630883216858;-0.025656338781118393;0.0036651913542300463
01:00:0A:00:00:00:00;1725753875;08/09/24;00:04:35;1.014;0.019;0.114;-0.11850785464048386;-0.02932153083384037;0.0
01:00:0A:00:00:00:00;1725753876;08/09/24;00:04:36;1.012;0.023;0.118;-0.05619959905743599;-0.018325956538319588;-0.014660765416920185
01:00:0A:00:00:00:00;1725753877;08/09/24;00:04:37;1.011;0.01;0.121;-0.051312677562236786;-0.015882495790719986;0.004886921960860491
01:00:0A:00:00:00:00;1725753878;08/09/24;00:04:38;1.009;0.027;0.13;-0.05497787147760391;0.0024434609804302454;-0.00855211354792118
01:00:0A:00:00:00:00;1725753879;08/09/24;00:04:39;1.006;0.047;0.144;-0.040317103266716;-0.009773843921720982;-0.015882495790719986
01:00:0A:00:00:00:00;1725753880;08/09/24;00:04:40;1.01;0.038;0.132;-0.02321287989616394;-0.0354301817715168;0.010995574295520782
01:00:0A:00:00:00:00;1725753881;08/09/24;00:04:41;1.009;0.035;0.14;-0.006108652334660292;-0.024434609338641167;0.02932153083384037
01:00:0A:00:00:00:00;1725753882;08/09/24;00:04:42;1.013;0.014;0.112;0.018325956538319588;-0.0036651913542300463;0.021991148591041565
01:00:0A:00:00:00:00;1725753883;08/09/24;00:04:43;1.01;0.039;0.132;0.05375614017248154;0.0036651913542300463;-0.028099799528717995
01:00:0A:00:00:00:00;1725753884;08/09/24;00:04:44;1.011;0.044;0.115;-0.012217304669320583;-0.042760565876960754;0.019547687843441963
01:00:0A:00:00:00:00;1725753885;08/09/24;00:04:45;1.014;0.024;0.094;0.039095375686883926;-0.018325956538319588;0.0024434609804302454
01:00:0A:00:00:00:00;1725753886;08/09/24;00:04:46;1.011;0.017;0.127;0.06475171446800232;0.02932153083384037;0.012217304669320583
01:00:0A:00:00:00:00;1725753887;08/09/24;00:04:47;1.01;0.024;0.134;0.0024434609804302454;0.006108652334660292;-0.01710422709584236
01:00:0A:00:00:00:00;1725753888;08/09/24;00:04:48;1.006;0.057;0.15;-0.004886921960860491;-0.00855211354792118;-0.03298672288656235
01:00:0A:00:00:00:00;1725753889;08/09/24;00:04:49;1.014;0.032;0.119;0.025656338781118393;-0.059864792972803116;0.02321287989616394
01:00:0A:00:00:00:00;1725753890;08/09/24;00:04:50;1.015;0.005;0.101;0.04886921867728233;-0.0012217304902151227;0.042760565876960754
01:00:0A:00:00:00:00;1725753891;08/09/24;00:04:51;1.011;0.024;0.126;0.05253440886735916;0.02687807008624077;0.015882495790719986
01:00:0A:00:00:00:00;1725753892;08/09/24;00:04:52;1.009;0.034;0.141;0.05009094998240471;-0.014660765416920185;0.012217304669320583
01:00:0A:00:00:00:00;1725753893;08/09/24;00:04:53;1.008;0.056;0.142;0.004886921960860491;-0.02932153083384037;-0.015882495790719986
01:00:0A:00:00:00:00;1725753894;08/09/24;00:04:54;1.013;0.008;0.106;-0.0024434609804302454;-0.036651913076639175;0.025656338781118393
01:00:0A:00:00:00:00;1725753895;08/09/24;00:04:55;1.013;-0.003;0.117;0.09040805697441101;0.013439035043120384;-0.006108652334660292
01:00:0A:00:00:00:00;1725753896;08/09/24;00:04:56;1.01;0.021;0.135;0.10018189996480942;0.013439035043120384;-0.006108652334660292
01:00:0A:00:00:00:00;1725753897;08/09/24;00:04:57;1.007;0.047;0.145;0.018325956538319588;-0.024434609338641167;-0.03420845419168472
01:00:0A:00:00:00:00;1725753898;08/09/24;00:04:58;1.008;0.048;0.141;-0.02076941914856434;-0.030543262138962746;0.030543262138962746
01:00:0A:00:00:00:00;1725753899;08/09/24;00:04:59;1.014;-0.017;0.11;0.02321287989616394;-0.0073303827084600925;0.04642575979232788
01:00:0A:00:00:00:00;1725753900;08/09/24;00:05:00;1.01;-0.001;0.121;0.13561207056045532;0.021991148591041565;-0.05253440886735916
01:00:0A:00:00:00:00;1725753901;08/09/24;00:05:01;1.007;0.031;0.138;0.09529497474431992;-0.013439035043120384;0.021991148591041565
01:00:0A:00:00:00:00;1725753902;08/09/24;00:05:02;1.01;0.036;0.126;0.03298672288656235;-0.018325956538319588;-0.013439035043120384
01:00:0A:00:00:00:00;1725753903;08/09/24;00:05:03;1.011;0.031;0.12;0.00855211354792118;-0.02932153083384037;0.025656338781118393
01:00:0A:00:00:00:00;1725753904;08/09/24;00:05:04;1.012;0.0;0.123;0.04642575979232788;0.009773843921720982;0.0073303827084600925
01:00:0A:00:00:00:00;1725753905;08/09/24;00:05:05;1.011;0.024;0.131;0.09529497474431992;-0.021991148591041565;-0.03420845419168472
01:00:0A:00:00:00:00;1725753906;08/09/24;00:05:06;1.013;0.035;0.123;0.02932153083384037;-0.021991148591041565;-0.012217304669320583
01:00:0A:00:00:00:00;1725753907;08/09/24;00:05:07;1.01;0.042;0.133;-0.013439035043120384;-0.012217304669320583;-0.009773843921720982
01:00:0A:00:00:00:00;1725753908;08/09/24;00:05:08;1.011;0.004;0.132;-0.05497787147760391;-0.004886921960860491;0.06475171446800232
01:00:0A:00:00:00:00;1725753909;08/09/24;00:05:09;1.006;-0.006;0.124;0.03787364438176155;-0.019547687843441963;-0.03176499158143997
01:00:0A:00:00:00:00;1725753910;08/09/24;00:05:10;1.007;0.032;0.134;0.03420845419168472;0.0;0.0036651913542300463
01:00:0A:00:00:00:00;1725753911;08/09/24;00:05:11;1.009;0.018;0.129;0.05742133408784866;-0.04398229718208313;0.006108652334660292
01:00:0A:00:00:00:00;1725753912;08/09/24;00:05:12;1.012;0.02;0.114;0.036651913076639175;-0.02687807008624077;0.01710422709584236
01:00:0A:00:00:00:00;1725753913;08/09/24;00:05:13;1.012;-0.001;0.117;0.08307767659425735;0.013439035043120384;0.02932153083384037
01:00:0A:00:00:00:00;1725753914;08/09/24;00:05:14;1.01;0.014;0.118;0.13805554807186127;0.0024434609804302454;-0.018325956538319588
01:00:0A:00:00:00:00;1725753915;08/09/24;00:05:15;1.012;0.04;0.111;0.09773843735456467;-0.03420845419168472;0.039095375686883926
01:00:0A:00:00:00:00;1725753916;08/09/24;00:05:16;1.011;0.01;0.118;0.080634206533432;0.0024434609804302454;0.02932153083384037
01:00:0A:00:00:00:00;1725753917;08/09/24;00:05:17;1.01;0.002;0.138;0.16249015927314758;0.00855211354792118;0.02076941914856434
01:00:0A:00:00:00:00;1725753918;08/09/24;00:05:18;1.006;0.004;0.134;0.22357667982578278;-0.039095375686883926;-0.0073303827084600925
01:00:0A:00:00:00:00;1725753919;08/09/24;00:05:19;1.005;0.02;0.114;0.17592918872833252;0.006108652334660292;0.02687807008624077
01:00:0A:00:00:00:00;1725753920;08/09/24;00:05:20;1.009;0.01;0.139;0.15393804013729095;0.014660765416920185;0.04398229718208313
01:00:0A:00:00:00:00;1725753921;08/09/24;00:05:21;1.013;0.014;0.125;0.1771509200334549;-0.036651913076639175;0.014660765416920185
01:00:0A:00:00:00:00;1725753922;08/09/24;00:05:22;1.011;0.02;0.106;0.161268413066864;0.009773843921720982;0.009773843921720982
01:00:0A:00:00:00:00;1725753923;08/09/24;00:05:23;1.009;-0.008;0.142;0.2015855312347412;0.0024434609804302454;0.030543262138962746
01:00:0A:00:00:00:00;1725753924;08/09/24;00:05:24;1.012;0.002;0.129;0.24068090319633484;-0.039095375686883926;0.030543262138962746
01:00:0A:00:00:00:00;1725753925;08/09/24;00:05:25;1.011;0.015;0.126;0.2370157092809677;0.01710422709584236;0.021991148591041565
01:00:0A:00:00:00:00;1725753926;08/09/24;00:05:26;1.021;0.015;0.138;0.22846359014511108;-0.010995574295520782;0.028099799528717995
01:00:0A:00:00:00:00;1725753927;08/09/24;00:05:27;1.007;0.012;0.118;0.2223549485206604;-0.015882495790719986;0.030543262138962746
01:00:0A:00:00:00:00;1725753928;08/09/24;00:05:28;1.006;0.015;0.127;0.21991148591041565;0.0073303827084600925;0.018325956538319588
01:00:0A:00:00:00:00;1725753929;08/09/24;00:05:29;1.007;0.014;0.127;0.19425514340400696;-0.014660765416920185;0.03176499158143997
01:00:0A:00:00:00:00;1725753930;08/09/24;00:05:30;1.012;0.011;0.124;0.19058994948863983;-0.009773843921720982;0.025656338781118393
01:00:0A:00:00:00:00;1725753931;08/09/24;00:05:31;1.01;0.014;0.127;0.18570303916931152;-0.0012217304902151227;0.009773843921720982
01:00:0A:00:00:00:00;1725753932;08/09/24;00:05:32;1.004;0.015;0.124;0.17348572611808777;-0.013439035043120384;0.024434609338641167
01:00:0A:00:00:00:00;1725753933;08/09/24;00:05:33;1.004;0.016;0.122;0.1820378452539444;-0.013439035043120384;0.019547687843441963
01:00:0A:00:00:00:00;1725753934;08/09/24;00:05:34;1.01;0.01;0.126;0.14416420459747314;-0.015882495790719986;0.03298672288656235
01:00:0A:00:00:00:00;1725753935;08/09/24;00:05:35;1.016;-0.014;0.118;0.1319468915462494;-0.006108652334660292;0.02687807008624077
01:00:0A:00:00:00:00;1725753936;08/09/24;00:05:36;1.006;0.004;0.119;0.14538592100143433;0.004886921960860491;-0.030543262138962746
01:00:0A:00:00:00:00;1725753937;08/09/24;00:05:37;1.001;0.032;0.122;0.11362093687057495;-0.004886921960860491;0.018325956538319588
01:00:0A:00:00:00:00;1725753938;08/09/24;00:05:38;1.008;0.009;0.127;0.09773843735456467;-0.030543262138962746;0.04398229718208313
01:00:0A:00:00:00:00;1725753939;08/09/24;00:05:39;1.016;0.007;0.126;0.1319468915462494;-0.02932153083384037;-0.014660765416920185
01:00:0A:00:00:00:00;1725753940;08/09/24;00:05:40;1.016;0.036;0.122;0.09896016865968704;0.0036651913542300463;0.013439035043120384
01:00:0A:00:00:00:00;1725753941;08/09/24;00:05:41;1.009;0.006;0.136;0.080634206533432;0.006108652334660292;0.03787364438176155
01:00:0A:00:00:00:00;1725753942;08/09/24;00:05:42;1.01;0.011;0.122;0.11484266817569733;-0.028099799528717995;-0.00855211354792118
01:00:0A:00:00:00:00;1725753943;08/09/24;00:05:43;1.017;0.03;0.121;0.08552113175392151;0.0024434609804302454;0.012217304669320583
01:00:0A:00:00:00:00;1725753944;08/09/24;00:05:44;1.019;0.008;0.137;0.07696902006864548;0.0;0.021991148591041565
01:00:0A:00:00:00:00;1725753945;08/09/24;00:05:45;1.013;0.013;0.122;0.09529497474431992;-0.009773843921720982;-0.00855211354792118
01:00:0A:00:00:00:00;1725753946;08/09/24;00:05:46;1.005;0.022;0.123;0.07208210229873657;0.010995574295520782;0.010995574295520782
01:00:0A:00:00:00:00;1725753947;08/09/24;00:05:47;1.005;0.01;0.126;0.06841690838336945;-0.012217304669320583;0.018325956538319588
01:00:0A:00:00:00:00;1725753948;08/09/24;00:05:48;1.01;0.012;0.125;0.07941248267889023;-0.024434609338641167;0.0024434609804302454
01:00:0A:00:00:00:00;1725753949;08/09/24;00:05:49;1.011;0.019;0.119;0.06475171446800232;-0.010995574295520782;0.012217304669320583
01:00:0A:00:00:00:00;1725753950;08/09/24;00:05:50;1.008;0.013;0.129;0.05742133408784866;-0.004886921960860491;0.01710422709584236
01:00:0A:00:00:00:00;1725753951;08/09/24;00:05:51;1.01;0.016;0.128;0.06719517707824707;-0.03298672288656235;0.006108652334660292
01:00:0A:00:00:00:00;1725753952;08/09/24;00:05:52;1.019;0.02;0.122;0.05375614017248154;-0.006108652334660292;0.00855211354792118
01:00:0A:00:00:00:00;1725753953;08/09/24;00:05:53;1.018;0.015;0.138;0.051312677562236786;0.00855211354792118;0.0036651913542300463
01:00:0A:00:00:00:00;1725753954;08/09/24;00:05:54;1.012;0.013;0.122;0.05619959905743599;-0.009773843921720982;0.0
01:00:0A:00:00:00:00;1725753955;08/09/24;00:05:55;1.007;0.016;0.118;0.045204028487205505;0.0036651913542300463;0.004886921960860491
01:00:0A:00:00:00:00;1725753956;08/09/24;00:05:56;1.006;0.013;0.128;0.042760565876960754;-0.01710422709584236;0.013439035043120384
01:00:0A:00:00:00:00;1725753957;08/09/24;00:05:57;1.011;0.013;0.122;0.04764748737215996;-0.02076941914856434;0.0036651913542300463
01:00:0A:00:00:00:00;1725753958;08/09/24;00:05:58;1.008;0.017;0.122;0.03787364438176155;-0.004886921960860491;0.009773843921720982
01:00:0A:00:00:00:00;1725753959;08/09/24;00:05:59;1.008;0.011;0.125;0.03787364438176155;-0.015882495790719986;0.009773843921720982
01:00:0A:00:00:00:00;1725753960;08/09/24;00:06:00;1.011;0.017;0.126;0.039095375686883926;-0.021991148591041565;0.004886921960860491
01:00:0A:00:00:00:00;1725753961;08/09/24;00:06:01;1.017;0.017;0.124;0.03298672288656235;-0.014660765416920185;0.0073303827084600925
01:00:0A:00:00:00:00;1725753962;08/09/24;00:06:02;1.016;0.013;0.13;0.03176499158143997;-0.0012217304902151227;0.0024434609804302454
01:00:0A:00:00:00:00;1725753963;08/09/24;00:06:03;1.01;0.016;0.126;0.030543262138962746;-0.00855211354792118;0.0012217304902151227
01:00:0A:00:00:00:00;1725753964;08/09/24;00:06:04;1.008;0.014;0.12;0.02321287989616394;-0.004886921960860491;0.004886921960860491
01:00:0A:00:00:00:00;1725753965;08/09/24;00:06:05;1.009;0.015;0.128;0.024434609338641167;-0.00855211354792118;0.0
01:00:0A:00:00:00:00;1725753966;08/09/24;00:06:06;1.011;0.014;0.123;0.021991148591041565;-0.018325956538319588;0.006108652334660292
01:00:0A:00:00:00:00;1725753967;08/09/24;00:06:07;1.009;0.013;0.12;0.018325956538319588;-0.006108652334660292;0.004886921960860491
01:00:0A:00:00:00:00;1725753968;08/09/24;00:06:08;1.01;0.016;0.127;0.024434609338641167;-0.009773843921720982;0.004886921960860491
01:00:0A:00:00:00:00;1725753969;08/09/24;00:06:09;1.011;0.016;0.122;0.02321287989616394;-0.02076941914856434;0.004886921960860491
01:00:0A:00:00:00:00;1725753970;08/09/24;00:06:10;1.009;0.032;0.133;-0.0024434609804302454;0.014660765416920185;-0.030543262138962746
01:00:0A:00:00:00:00;1725753971;08/09/24;00:06:11;1.008;0.026;0.132;-0.05497787147760391;-0.014660765416920185;0.0012217304902151227
01:00:0A:00:00:00:00;1725753972;08/09/24;00:06:12;1.011;0.014;0.13;-0.06963863223791122;-0.01710422709584236;0.01710422709584236
01:00:0A:00:00:00:00;1725753973;08/09/24;00:06:13;1.012;0.008;0.12;-0.05009094998240471;-0.024434609338641167;-0.013439035043120384
01:00:0A:00:00:00:00;1725753974;08/09/24;00:06:14;1.012;0.022;0.126;-0.05497787147760391;-0.00855211354792118;-0.0012217304902151227
01:00:0A:00:00:00:00;1725753975;08/09/24;00:06:15;1.012;0.013;0.132;-0.05497787147760391;-0.013439035043120384;0.006108652334660292
01:00:0A:00:00:00:00;1725753976;08/09/24;00:06:16;1.011;0.014;0.121;-0.042760565876960754;-0.018325956538319588;-0.009773843921720982
01:00:0A:00:00:00:00;1725753977;08/09/24;00:06:17;1.009;0.014;0.124;-0.059864792972803116;-0.0073303827084600925;0.0024434609804302454
01:00:0A:00:00:00:00;1725753978;08/09/24;00:06:18;1.011;0.012;0.124;-0.04642575979232788;-0.025656338781118393;-0.0024434609804302454
01:00:0A:00:00:00:00;1725753979;08/09/24;00:06:19;1.014;0.016;0.125;-0.05375614017248154;-0.010995574295520782;-0.0036651913542300463
01:00:0A:00:00:00:00;1725753980;08/09/24;00:06:20;1.013;0.012;0.131;-0.06841690838336945;-0.013439035043120384;0.004886921960860491
01:00:0A:00:00:00:00;1725753981;08/09/24;00:06:21;1.011;0.013;0.123;-0.05742133408784866;-0.021991148591041565;-0.00855211354792118
01:00:0A:00:00:00:00;1725753982;08/09/24;00:06:22;1.01;0.02;0.123;-0.06230825558304787;-0.010995574295520782;-0.004886921960860491
01:00:0A:00:00:00:00;1725753983;08/09/24;00:06:23;1.015;0.014;0.128;-0.06475171446800232;-0.012217304669320583;-0.0012217304902151227
01:00:0A:00:00:00:00;1725753984;08/09/24;00:06:24;1.027;0.017;0.127;-0.06108652427792549;-0.010995574295520782;-0.00855211354792118
01:00:0A:00:00:00:00;1725753985;08/09/24;00:06:25;1.013;0.015;0.128;-0.07696902006864548;-0.019547687843441963;-0.013439035043120384
01:00:0A:00:00:00:00;1725753986;08/09/24;00:06:26;1.011;0.014;0.12;-0.09040805697441101;-0.018325956538319588;-0.006108652334660292
01:00:0A:00:00:00:00;1725753987;08/09/24;00:06:27;1.012;0.017;0.128;-0.08918632566928864;-0.010995574295520782;-0.0073303827084600925
01:00:0A:00:00:00:00;1725753988;08/09/24;00:06:28;1.016;0.016;0.129;-0.08674286305904388;-0.01710422709584236;-0.006108652334660292
01:00:0A:00:00:00:00;1725753989;08/09/24;00:06:29;1.025;0.016;0.124;-0.08918632566928864;-0.006108652334660292;-0.006108652334660292
01:00:0A:00:00:00:00;1725753990;08/09/24;00:06:30;1.011;0.013;0.137;-0.1111774742603302;-0.01710422709584236;-0.013439035043120384
01:00:0A:00:00:00:00;1725753991;08/09/24;00:06:31;1.012;0.02;0.117;-0.10751228034496307;-0.03176499158143997;-0.010995574295520782
01:00:0A:00:00:00:00;1725753992;08/09/24;00:06:32;1.013;0.013;0.123;-0.11850785464048386;0.0024434609804302454;-0.0024434609804302454
01:00:0A:00:00:00:00;1725753993;08/09/24;00:06:33;1.013;0.011;0.136;-0.10262535512447357;-0.00855211354792118;-0.013439035043120384
01:00:0A:00:00:00:00;1725753994;08/09/24;00:06:34;1.009;0.017;0.119;-0.09651670604944229;-0.024434609338641167;-0.013439035043120384
01:00:0A:00:00:00:00;1725753995;08/09/24;00:06:35;1.012;0.01;0.126;-0.14294245839118958;-0.0024434609804302454;-0.0036651913542300463
01:00:0A:00:00:00:00;1725753996;08/09/24;00:06:36;1.011;0.014;0.131;-0.11850785464048386;-0.02321287989616394;-0.02076941914856434
01:00:0A:00:00:00:00;1725753997;08/09/24;00:06:37;1.015;0.022;0.122;-0.12950342893600464;-0.018325956538319588;-0.00855211354792118
01:00:0A:00:00:00:00;1725753998;08/09/24;00:06:38;1.011;0.008;0.125;-0.14905111491680145;-0.019547687843441963;-0.0024434609804302454
01:00:0A:00:00:00:00;1725753999;08/09/24;00:06:39;1.013;0.01;0.125;-0.13927726447582245;-0.015882495790719986;-0.02321287989616394
01:00:0A:00:00:00:00;1725754000;08/09/24;00:06:40;1.011;0.022;0.127;-0.14905111491680145;-0.01710422709584236;-0.013439035043120384
01:00:0A:00:00:00:00;1725754001;08/09/24;00:06:41;1.011;0.013;0.124;-0.1563815027475357;-0.018325956538319588;0.0
01:00:0A:00:00:00:00;1725754002;08/09/24;00:06:42;1.014;0.013;0.122;-0.15393804013729095;-0.015882495790719986;-0.02321287989616394
01:00:0A:00:00:00:00;1725754003;08/09/24;00:06:43;1.011;0.018;0.125;-0.18570303916931152;-0.02076941914856434;-0.015882495790719986
01:00:0A:00:00:00:00;1725754004;08/09/24;00:06:44;1.012;0.015;0.121;-0.2125810980796814;-0.01710422709584236;-0.028099799528717995
01:00:0A:00:00:00:00;1725754005;08/09/24;00:06:45;1.01;0.025;0.134;-0.21135938167572021;-0.00855211354792118;-0.009773843921720982
01:00:0A:00:00:00:00;1725754006;08/09/24;00:06:46;1.012;0.01;0.123;-0.2015855312347412;-0.03420845419168472;-0.013439035043120384
01:00:0A:00:00:00:00;1725754007;08/09/24;00:06:47;1.012;0.012;0.113;-0.21135938167572021;-0.030543262138962746;-0.014660765416920185
01:00:0A:00:00:00:00;1725754008;08/09/24;00:06:48;1.012;0.014;0.112;-0.24434609711170197;-0.0073303827084600925;-0.02932153083384037
01:00:0A:00:00:00:00;1725754009;08/09/24;00:06:49;1.01;0.013;0.141;-0.24068090319633484;0.0;-0.010995574295520782
01:00:0A:00:00:00:00;1725754010;08/09/24;00:06:50;1.014;0.009;0.128;-0.20525071024894714;-0.045204028487205505;-0.025656338781118393
01:00:0A:00:00:00:00;1725754011;08/09/24;00:06:51;1.013;0.023;0.117;-0.2076941877603531;-0.006108652334660292;-0.019547687843441963
01:00:0A:00:00:00:00;1725754012;08/09/24;00:06:52;1.009;0.007;0.137;-0.20525071024894714;-0.010995574295520782;-0.006108652334660292
01:00:0A:00:00:00:00;1725754013;08/09/24;00:06:53;1.012;0.011;0.122;-0.17592918872833252;-0.03420845419168472;-0.03420845419168472
01:00:0A:00:00:00:00;1725754014;08/09/24;00:06:54;1.011;0.018;0.12;-0.16371189057826996;-0.00855211354792118;-0.0024434609804302454
01:00:0A:00:00:00:00;1725754015;08/09/24;00:06:55;1.011;0.007;0.13;-0.15271630883216858;-0.014660765416920185;-0.010995574295520782
01:00:0A:00:00:00:00;1725754016;08/09/24;00:06:56;1.011;0.024;0.128;-0.1563815027475357;-0.012217304669320583;-0.03176499158143997
01:00:0A:00:00:00:00;1725754017;08/09/24;00:06:57;1.009;0.034;0.128;-0.161268413066864;-0.012217304669320583;-0.00855211354792118
01:00:0A:00:00:00:00;1725754018;08/09/24;00:06:58;1.01;0.005;0.137;-0.18081611394882202;-0.021991148591041565;0.00855211354792118
01:00:0A:00:00:00:00;1725754019;08/09/24;00:06:59;1.014;0.008;0.114;-0.14049901068210602;-0.03420845419168472;-0.042760565876960754
01:00:0A:00:00:00:00;1725754020;08/09/24;00:07:00;1.011;0.029;0.123;-0.1673770695924759;0.009773843921720982;-0.010995574295520782
01:00:0A:00:00:00:00;1725754021;08/09/24;00:07:01;1.01;0.001;0.133;-0.16249015927314758;-0.028099799528717995;0.0073303827084600925
01:00:0A:00:00:00:00;1725754022;08/09/24;00:07:02;1.009;0.013;0.112;-0.13439035415649414;-0.024434609338641167;-0.03787364438176155
01:00:0A:00:00:00:00;1725754023;08/09/24;00:07:03;1.009;0.024;0.128;-0.161268413066864;-0.0036651913542300463;0.0012217304902151227
01:00:0A:00:00:00:00;1725754024;08/09/24;00:07:04;1.013;0.002;0.129;-0.1466076523065567;-0.03420845419168472;-0.0036651913542300463
01:00:0A:00:00:00:00;1725754025;08/09/24;00:07:05;1.015;0.016;0.118;-0.1319468915462494;-0.012217304669320583;-0.02932153083384037
01:00:0A:00:00:00:00;1725754026;08/09/24;00:07:06;1.01;0.026;0.134;-0.14782939851284027;0.013439035043120384;-0.02321287989616394
01:00:0A:00:00:00:00;1725754027;08/09/24;00:07:07;1.008;0.018;0.138;-0.1661553531885147;-0.03420845419168472;-0.009773843921720982
01:00:0A:00:00:00:00;1725754028;08/09/24;00:07:08;1.013;0.012;0.116;-0.16371189057826996;-0.03787364438176155;-0.010995574295520782
01:00:0A:00:00:00:00;1725754029;08/09/24;00:07:09;1.013;0.014;0.12;-0.1673770695924759;0.013439035043120384;-0.013439035043120384
01:00:0A:00:00:00:00;1725754030;08/09/24;00:07:10;1.01;0.01;0.138;-0.14905111491680145;-0.021991148591041565;-0.014660765416920185
01:00:0A:00:00:00:00;1725754031;08/09/24;00:07:11;1.012;0.018;0.117;-0.13805554807186127;-0.0354301817715168;-0.018325956538319588
01:00:0A:00:00:00:00;1725754032;08/09/24;00:07:12;1.01;0.012;0.122;-0.15393804013729095;0.006108652334660292;0.0
01:00:0A:00:00:00:00;1725754033;08/09/24;00:07:13;1.012;0.007;0.135;-0.13072516024112701;-0.019547687843441963;-0.01710422709584236
01:00:0A:00:00:00:00;1725754034;08/09/24;00:07:14;1.011;0.019;0.12;-0.12461651116609573;-0.02932153083384037;-0.015882495790719986
01:00:0A:00:00:00:00;1725754035;08/09/24;00:07:15;1.009;0.011;0.122;-0.13805554807186127;-0.0024434609804302454;0.0012217304902151227
01:00:0A:00:00:00:00;1725754036;08/09/24;00:07:16;1.009;0.009;0.132;-0.1160643920302391;-0.021991148591041565;-0.01710422709584236
01:00:0A:00:00:00:00;1725754037;08/09/24;00:07:17;1.013;0.021;0.12;-0.1160643920302391;-0.025656338781118393;-0.009773843921720982
01:00:0A:00:00:00:00;1725754038;08/09/24;00:07:18;1.015;0.013;0.123;-0.12461651116609573;-0.0024434609804302454;-0.0024434609804302454
01:00:0A:00:00:00:00;1725754039;08/09/24;00:07:19;1.011;0.01;0.128;-0.10751228034496307;-0.013439035043120384;-0.018325956538319588
01:00:0A:00:00:00:00;1725754040;08/09/24;00:07:20;1.008;0.017;0.122;-0.1062905490398407;-0.021991148591041565;-0.013439035043120384
01:00:0A:00:00:00:00;1725754041;08/09/24;00:07:21;1.011;0.013;0.123;-0.11850785464048386;-0.010995574295520782;0.004886921960860491
01:00:0A:00:00:00:00;1725754042;08/09/24;00:07:22;1.011;0.01;0.127;-0.10262535512447357;-0.01710422709584236;-0.013439035043120384
01:00:0A:00:00:00:00;1725754043;08/09/24;00:07:23;1.013;0.019;0.123;-0.1014036238193512;-0.014660765416920185;-0.013439035043120384
01:00:0A:00:00:00:00;1725754044;08/09/24;00:07:24;1.009;0.012;0.123;-0.10873401165008545;-0.013439035043120384;0.0012217304902151227
01:00:0A:00:00:00:00;1725754045;08/09/24;00:07:25;1.008;0.009;0.123;-0.09651670604944229;-0.012217304669320583;-0.014660765416920185
01:00:0A:00:00:00:00;1725754046;08/09/24;00:07:26;1.011;0.018;0.125;-0.09529497474431992;-0.02076941914856434;-0.00855211354792118
01:00:0A:00:00:00:00;1725754047;08/09/24;00:07:27;1.013;0.012;0.123;-0.10018189996480942;-0.01710422709584236;0.0
01:00:0A:00:00:00:00;1725754048;08/09/24;00:07:28;1.013;0.01;0.125;-0.09040805697441101;-0.00855211354792118;-0.013439035043120384
01:00:0A:00:00:00:00;1725754049;08/09/24;00:07:29;1.011;0.017;0.125;-0.09040805697441101;-0.015882495790719986;-0.00855211354792118
01:00:0A:00:00:00:00;1725754050;08/09/24;00:07:30;1.012;0.011;0.123;-0.09407324343919754;-0.014660765416920185;0.0
01:00:0A:00:00:00:00;1725754051;08/09/24;00:07:31;1.012;0.012;0.125;-0.08429940044879913;-0.013439035043120384;-0.012217304669320583
01:00:0A:00:00:00:00;1725754052;08/09/24;00:07:32;1.011;0.016;0.124;-0.08674286305904388;-0.012217304669320583;-0.0073303827084600925
01:00:0A:00:00:00:00;1725754053;08/09/24;00:07:33;1.011;0.012;0.124;-0.08918632566928864;-0.015882495790719986;-0.0012217304902151227
01:00:0A:00:00:00:00;1725754054;08/09/24;00:07:34;1.011;0.012;0.124;-0.08185594528913498;-0.014660765416920185;-0.009773843921720982
01:00:0A:00:00:00:00;1725754055;08/09/24;00:07:35;1.013;0.016;0.125;-0.08429940044879913;-0.013439035043120384;-0.006108652334660292
01:00:0A:00:00:00:00;1725754056;08/09/24;00:07:36;1.013;0.014;0.123;-0.08307767659425735;-0.015882495790719986;-0.0036651913542300463
01:00:0A:00:00:00:00;1725754057;08/09/24;00:07:37;1.009;0.014;0.122;-0.08185594528913498;-0.009773843921720982;-0.00855211354792118
01:00:0A:00:00:00:00;1725754058;08/09/24;00:07:38;1.01;0.015;0.125;-0.08185594528913498;-0.013439035043120384;-0.006108652334660292
01:00:0A:00:00:00:00;1725754059;08/09/24;00:07:39;1.012;0.013;0.124;-0.08185594528913498;-0.019547687843441963;-0.0024434609804302454
01:00:0A:00:00:00:00;1725754060;08/09/24;00:07:40;1.013;0.012;0.124;-0.07941248267889023;-0.009773843921720982;-0.00855211354792118
01:00:0A:00:00:00:00;1725754061;08/09/24;00:07:41;1.012;0.014;0.125;-0.07941248267889023;-0.014660765416920185;-0.0073303827084600925
01:00:0A:00:00:00:00;1725754062;08/09/24;00:07:42;1.01;0.013;0.124;-0.08185594528913498;-0.015882495790719986;-0.0024434609804302454
01:00:0A:00:00:00:00;1725754063;08/09/24;00:07:43;1.01;0.014;0.123;-0.07941248267889023;-0.010995574295520782;-0.0073303827084600925
01:00:0A:00:00:00:00;1725754064;08/09/24;00:07:44;1.011;0.015;0.125;-0.07941248267889023;-0.014660765416920185;-0.004886921960860491
01:00:0A:00:00:00:00;1725754065;08/09/24;00:07:45;1.013;0.014;0.124;-0.07819075137376785;-0.015882495790719986;-0.006108652334660292
01:00:0A:00:00:00:00;1725754066;08/09/24;00:07:46;1.012;0.014;0.123;-0.07696902006864548;-0.013439035043120384;-0.00855211354792118
01:00:0A:00:00:00:00;1725754067;08/09/24;00:07:47;1.011;0.013;0.126;-0.07941248267889023;-0.013439035043120384;-0.0036651913542300463
01:00:0A:00:00:00:00;1725754068;08/09/24;00:07:48;1.011;0.013;0.124;-0.07696902006864548;-0.014660765416920185;-0.004886921960860491
01:00:0A:00:00:00:00;1725754069;08/09/24;00:07:49;1.012;0.015;0.123;-0.07696902006864548;-0.012217304669320583;-0.006108652334660292
01:00:0A:00:00:00:00;1725754070;08/09/24;00:07:50;1.011;0.013;0.124;-0.0757472887635231;-0.013439035043120384;-0.006108652334660292
01:00:0A:00:00:00:00;1725754071;08/09/24;00:07:51;1.01;0.014;0.124;-0.07330382615327835;-0.018325956538319588;-0.006108652334660292
01:00:0A:00:00:00:00;1725754072;08/09/24;00:07:52;1.012;0.013;0.124;-0.0757472887635231;-0.010995574295520782;-0.0024434609804302454
01:00:0A:00:00:00:00;1725754073;08/09/24;00:07:53;1.011;0.015;0.124;-0.07208210229873657;-0.013439035043120384;-0.004886921960860491
01:00:0A:00:00:00:00;1725754074;08/09/24;00:07:54;1.012;0.015;0.124;-0.0708603635430336;-0.015882495790719986;-0.006108652334660292
01:00:0A:00:00:00:00;1725754075;08/09/24;00:07:55;1.011;0.014;0.124;-0.06963863223791122;-0.012217304669320583;-0.0073303827084600925
01:00:0A:00:00:00:00;1725754076;08/09/24;00:07:56;1.01;0.012;0.126;-0.06963863223791122;-0.014660765416920185;-0.0036651913542300463
01:00:0A:00:00:00:00;1725754077;08/09/24;00:07:57;1.013;0.012;0.124;-0.06841690838336945;-0.015882495790719986;-0.0012217304902151227
01:00:0A:00:00:00:00;1725754078;08/09/24;00:07:58;1.012;0.015;0.123;-0.06719517707824707;-0.010995574295520782;-0.006108652334660292
01:00:0A:00:00:00:00;1725754079;08/09/24;00:07:59;1.012;0.015;0.125;-0.0659734457731247;-0.014660765416920185;-0.0073303827084600925
01:00:0A:00:00:00:00;1725754080;08/09/24;00:08:00;1.011;0.013;0.122;-0.06475171446800232;-0.014660765416920185;-0.006108652334660292
01:00:0A:00:00:00:00;1725754081;08/09/24;00:08:01;1.012;0.014;0.123;-0.0659734457731247;-0.014660765416920185;-0.0012217304902151227
01:00:0A:00:00:00:00;1725754082;08/09/24;00:08:02;1.012;0.013;0.124;-0.06475171446800232;-0.013439035043120384;-0.0024434609804302454
01:00:0A:00:00:00:00;1725754083;08/09/24;00:08:03;1.011;0.014;0.124;-0.06230825558304787;-0.013439035043120384;-0.006108652334660292
01:00:0A:00:00:00:00;1725754084;08/09/24;00:08:04;1.012;0.014;0.123;-0.06230825558304787;-0.013439035043120384;-0.004886921960860491
01:00:0A:00:00:00:00;1725754085;08/09/24;00:08:05;1.012;0.012;0.124;-0.06230825558304787;-0.013439035043120384;-0.0036651913542300463
01:00:0A:00:00:00:00;1725754086;08/09/24;00:08:06;1.012;0.014;0.123;-0.06108652427792549;-0.015882495790719986;-0.0024434609804302454
01:00:0A:00:00:00:00;1725754087;08/09/24;00:08:07;1.009;0.014;0.122;-0.06108652427792549;-0.012217304669320583;-0.0036651913542300463
01:00:0A:00:00:00:00;1725754088;08/09/24;00:08:08;1.012;0.014;0.127;-0.059864792972803116;-0.012217304669320583;-0.006108652334660292
01:00:0A:00:00:00:00;1725754089;08/09/24;00:08:09;1.012;0.013;0.123;-0.05864306166768074;-0.015882495790719986;-0.004886921960860491
01:00:0A:00:00:00:00;1725754090;08/09/24;00:08:10;1.011;0.014;0.123;-0.059864792972803116;-0.012217304669320583;-0.0012217304902151227
01:00:0A:00:00:00:00;1725754091;08/09/24;00:08:11;1.011;0.014;0.124;-0.05742133408784866;-0.015882495790719986;-0.004886921960860491
01:00:0A:00:00:00:00;1725754092;08/09/24;00:08:12;1.012;0.015;0.122;-0.05864306166768074;-0.010995574295520782;-0.004886921960860491
01:00:0A:00:00:00:00;1725754093;08/09/24;00:08:13;1.011;0.012;0.124;-0.05742133408784866;-0.012217304669320583;-0.004886921960860491
01:00:0A:00:00:00:00;1725754094;08/09/24;00:08:14;1.011;0.013;0.123;-0.05619959905743599;-0.014660765416920185;-0.0036651913542300463
01:00:0A:00:00:00:00;1725754095;08/09/24;00:08:15;1.01;0.013;0.124;-0.05619959905743599;-0.014660765416920185;-0.0012217304902151227
01:00:0A:00:00:00:00;1725754096;08/09/24;00:08:16;1.011;0.015;0.124;-0.05375614017248154;-0.014660765416920185;-0.004886921960860491
01:00:0A:00:00:00:00;1725754097;08/09/24;00:08:17;1.011;0.014;0.125;-0.05497787147760391;-0.009773843921720982;-0.0024434609804302454
01:00:0A:00:00:00:00;1725754098;08/09/24;00:08:18;1.012;0.012;0.123;-0.051312677562236786;-0.014660765416920185;-0.0036651913542300463
01:00:0A:00:00:00:00;1725754099;08/09/24;00:08:19;1.011;0.014;0.123;-0.051312677562236786;-0.015882495790719986;-0.0024434609804302454
01:00:0A:00:00:00:00;1725754100;08/09/24;00:08:20;1.011;0.013;0.125;-0.051312677562236786;-0.013439035043120384;-0.0012217304902151227
01:00:0A:00:00:00:00;1725754101;08/09/24;00:08:21;1.012;0.014;0.122;-0.04886921867728233;-0.012217304669320583;-0.004886921960860491
01:00:0A:00:00:00:00;1725754102;08/09/24;00:08:22;1.012;0.012;0.123;-0.051312677562236786;-0.010995574295520782;0.0
01:00:0A:00:00:00:00;1725754103;08/09/24;00:08:23;1.012;0.013;0.123;-0.04642575979232788;-0.015882495790719986;-0.004886921960860491
01:00:0A:00:00:00:00;1725754104;08/09/24;00:08:24;1.011;0.015;0.123;-0.04764748737215996;-0.014660765416920185;-0.0012217304902151227
01:00:0A:00:00:00:00;1725754105;08/09/24;00:08:25;1.012;0.011;0.124;-0.04764748737215996;-0.012217304669320583;-0.0024434609804302454
01:00:0A:00:00:00:00;1725754106;08/09/24;00:08:26;1.011;0.015;0.122;-0.045204028487205505;-0.012217304669320583;-0.0036651913542300463
01:00:0A:00:00:00:00;1725754107;08/09/24;00:08:27;1.012;0.012;0.123;-0.04642575979232788;-0.012217304669320583;0.0
01:00:0A:00:00:00:00;1725754108;08/09/24;00:08:28;1.012;0.014;0.122;-0.04398229718208313;-0.015882495790719986;-0.0036651913542300463
01:00:0A:00:00:00:00;1725754109;08/09/24;00:08:29;1.01;0.014;0.124;-0.045204028487205505;-0.013439035043120384;-0.0012217304902151227
01:00:0A:00:00:00:00;1725754110;08/09/24;00:08:30;1.011;0.012;0.124;-0.04398229718208313;-0.010995574295520782;-0.0024434609804302454
01:00:0A:00:00:00:00;1725754111;08/09/24;00:08:31;1.01;0.013;0.123;-0.04398229718208313;-0.010995574295520782;-0.0024434609804302454
01:00:0A:00:00:00:00;1725754112;08/09/24;00:08:32;1.009;0.012;0.123;-0.04398229718208313;-0.014660765416920185;-0.0012217304902151227
01:00:0A:00:00:00:00;1725754113;08/09/24;00:08:33;1.011;0.015;0.123;-0.04153883829712868;-0.014660765416920185;-0.0036651913542300463
01:00:0A:00:00:00:00;1725754114;08/09/24;00:08:34;1.011;0.014;0.124;-0.04398229718208313;-0.012217304669320583;0.0
01:00:0A:00:00:00:00;1725754115;08/09/24;00:08:35;1.011;0.012;0.123;-0.04153883829712868;-0.010995574295520782;-0.0036651913542300463
01:00:0A:00:00:00:00;1725754116;08/09/24;00:08:36;1.012;0.014;0.122;-0.042760565876960754;-0.013439035043120384;-0.0012217304902151227
01:00:0A:00:00:00:00;1725754117;08/09/24;00:08:37;1.011;0.012;0.122;-0.04153883829712868;-0.014660765416920185;-0.0024434609804302454
01:00:0A:00:00:00:00;1725754118;08/09/24;00:08:38;1.01;0.014;0.125;-0.040317103266716;-0.013439035043120384;-0.0036651913542300463
01:00:0A:00:00:00:00;1725754119;08/09/24;00:08:39;1.011;0.013;0.123;-0.042760565876960754;-0.010995574295520782;0.0
01:00:0A:00:00:00:00;1725754120;08/09/24;00:08:40;1.012;0.014;0.123;-0.040317103266716;-0.012217304669320583;-0.0024434609804302454
01:00:0A:00:00:00:00;1725754121;08/09/24;00:08:41;1.01;0.014;0.123;-0.040317103266716;-0.014660765416920185;-0.0012217304902151227
01:00:0A:00:00:00:00;1725754122;08/09/24;00:08:42;1.012;0.013;0.124;-0.039095375686883926;-0.014660765416920185;-0.0036651913542300463
01:00:0A:00:00:00:00;1725754123;08/09/24;00:08:43;1.012;0.014;0.125;-0.040317103266716;-0.012217304669320583;-0.0012217304902151227
01:00:0A:00:00:00:00;1725754124;08/09/24;00:08:44;1.012;0.013;0.123;-0.040317103266716;-0.012217304669320583;0.0
01:00:0A:00:00:00:00;1725754125;08/09/24;00:08:45;1.01;0.014;0.123;-0.039095375686883926;-0.012217304669320583;-0.0024434609804302454
01:00:0A:00:00:00:00;1725754126;08/09/24;00:08:46;1.011;0.013;0.124;-0.03787364438176155;-0.015882495790719986;-0.0024434609804302454
01:00:0A:00:00:00:00;1725754127;08/09/24;00:08:47;1.012;0.012;0.124;-0.03787364438176155;-0.013439035043120384;-0.0024434609804302454
01:00:0A:00:00:00:00;1725754128;08/09/24;00:08:48;1.011;0.013;0.124;-0.03787364438176155;-0.010995574295520782;-0.0012217304902151227
01:00:0A:00:00:00:00;1725754129;08/09/24;00:08:49;1.012;0.013;0.123;-0.036651913076639175;-0.012217304669320583;0.0
01:00:0A:00:00:00:00;1725754130;08/09/24;00:08:50;1.012;0.014;0.123;-0.0354301817715168;-0.012217304669320583;-0.0024434609804302454
01:00:0A:00:00:00:00;1725754131;08/09/24;00:08:51;1.011;0.013;0.122;-0.03420845419168472;-0.014660765416920185;-0.0012217304902151227
01:00:0A:00:00:00:00;1725754132;08/09/24;00:08:52;1.011;0.011;0.123;-0.03298672288656235;-0.012217304669320583;-0.0012217304902151227
01:00:0A:00:00:00:00;1725754133;08/09/24;00:08:53;1.011;0.013;0.124;-0.03298672288656235;-0.010995574295520782;0.0
01:00:0A:00:00:00:00;1725754134;08/09/24;00:08:54;1.011;0.013;0.123;-0.030543262138962746;-0.012217304669320583;-0.0012217304902151227
01:00:0A:00:00:00:00;1725754135;08/09/24;00:08:55;1.012;0.013;0.123;-0.02932153083384037;-0.013439035043120384;-0.0012217304902151227
01:00:0A:00:00:00:00;1725754136;08/09/24;00:08:56;1.011;0.013;0.123;-0.028099799528717995;-0.013439035043120384;-0.0012217304902151227
01:00:0A:00:00:00:00;1725754137;08/09/24;00:08:57;1.012;0.013;0.123;-0.028099799528717995;-0.010995574295520782;0.0012217304902151227
01:00:0A:00:00:00:00;1725754138;08/09/24;00:08:58;1.011;0.014;0.123;-0.028099799528717995;-0.013439035043120384;0.0
01:00:0A:00:00:00:00;1725754139;08/09/24;00:08:59;1.011;0.013;0.123;-0.02687807008624077;-0.012217304669320583;0.0
01:00:0A:00:00:00:00;1725754140;08/09/24;00:09:00;1.012;0.013;0.122;-0.025656338781118393;-0.013439035043120384;-0.0012217304902151227
01:00:0A:00:00:00:00;1725754141;08/09/24;00:09:01;1.012;0.012;0.122;-0.02687807008624077;-0.012217304669320583;0.0
01:00:0A:00:00:00:00;1725754142;08/09/24;00:09:02;1.012;0.014;0.122;-0.025656338781118393;-0.010995574295520782;0.0012217304902151227
01:00:0A:00:00:00:00;1725754143;08/09/24;00:09:03;1.011;0.014;0.124;-0.025656338781118393;-0.012217304669320583;0.0
01:00:0A:00:00:00:00;1725754144;08/09/24;00:09:04;1.011;0.013;0.122;-0.02687807008624077;-0.013439035043120384;0.0
01:00:0A:00:00:00:00;1725754145;08/09/24;00:09:05;1.011;0.013;0.123;-0.02687807008624077;-0.013439035043120384;0.0
01:00:0A:00:00:00:00;1725754146;08/09/24;00:09:06;1.012;0.012;0.122;-0.02687807008624077;-0.010995574295520782;-0.0012217304902151227
01:00:0A:00:00:00:00;1725754147;08/09/24;00:09:07;1.011;0.013;0.122;-0.02687807008624077;-0.012217304669320583;0.0
01:00:0A:00:00:00:00;1725754148;08/09/24;00:09:08;1.011;0.014;0.123;-0.025656338781118393;-0.013439035043120384;-0.0012217304902151227
01:00:0A:00:00:00:00;1725754149;08/09/24;00:09:09;1.011;0.014;0.124;-0.02687807008624077;-0.012217304669320583;0.0
01:00:0A:00:00:00:00;1725754150;08/09/24;00:09:10;1.012;0.015;0.123;-0.025656338781118393;-0.013439035043120384;-0.0012217304902151227
01:00:0A:00:00:00:00;1725754151;08/09/24;00:09:11;1.011;0.013;0.123;-0.02687807008624077;-0.012217304669320583;0.0
01:00:0A:00:00:00:00;1725754152;08/09/24;00:09:12;1.011;0.013;0.123;-0.025656338781118393;-0.012217304669320583;-0.0012217304902151227
01:00:0A:00:00:00:00;1725754153;08/09/24;00:09:13;1.011;0.013;0.123;-0.025656338781118393;-0.012217304669320583;-0.0012217304902151227
01:00:0A:00:00:00:00;1725754154;08/09/24;00:09:14;1.012;0.012;0.124;-0.025656338781118393;-0.012217304669320583;0.0
01:00:0A:00:00:00:00;1725754155;08/09/24;00:09:15;1.011;0.013;0.124;-0.024434609338641167;-0.012217304669320583;0.0
01:00:0A:00:00:00:00;1725754156;08/09/24;00:09:16;1.011;0.013;0.123;-0.024434609338641167;-0.012217304669320583;0.0
01:00:0A:00:00:00:00;1725754157;08/09/24;00:09:17;1.011;0.014;0.123;-0.02321287989616394;-0.012217304669320583;0.0
01:00:0A:00:00:00:00;1725754158;08/09/24;00:09:18;1.011;0.013;0.123;-0.02321287989616394;-0.012217304669320583;0.0
01:00:0A:00:00:00:00;1725754159;08/09/24;00:09:19;1.011;0.013;0.123;-0.02321287989616394;-0.012217304669320583;0.0
01:00:0A:00:00:00:00;1725754160;08/09/24;00:09:20;1.011;0.013;0.124;-0.021991148591041565;-0.012217304669320583;0.0
01:00:0A:00:00:00:00;1725754161;08/09/24;00:09:21;1.012;0.012;0.124;-0.021991148591041565;-0.012217304669320583;0.0
01:00:0A:00:00:00:00;1725754162;08/09/24;00:09:22;1.012;0.014;0.123;-0.02076941914856434;-0.012217304669320583;0.0
01:00:0A:00:00:00:00;1725754163;08/09/24;00:09:23;1.011;0.013;0.125;-0.02076941914856434;-0.012217304669320583;0.0012217304902151227
01:00:0A:00:00:00:00;1725754164;08/09/24;00:09:24;1.012;0.013;0.124;-0.019547687843441963;-0.010995574295520782;0.0
01:00:0A:00:00:00:00;1725754165;08/09/24;00:09:25;1.011;0.013;0.123;-0.019547687843441963;-0.012217304669320583;0.0
01:00:0A:00:00:00:00;1725754166;08/09/24;00:09:26;1.011;0.015;0.123;-0.019547687843441963;-0.012217304669320583;0.0012217304902151227
01:00:0A:00:00:00:00;1725754167;08/09/24;00:09:27;1.011;0.013;0.123;-0.018325956538319588;-0.012217304669320583;0.0012217304902151227
01:00:0A:00:00:00:00;1725754168;08/09/24;00:09:28;1.012;0.013;0.123;-0.018325956538319588;-0.010995574295520782;0.0
01:00:0A:00:00:00:00;1725754169;08/09/24;00:09:29;1.012;0.013;0.124;-0.01710422709584236;-0.012217304669320583;0.0
01:00:0A:00:00:00:00;1725754170;08/09/24;00:09:30;1.011;0.013;0.123;-0.01710422709584236;-0.012217304669320583;0.0
01:00:0A:00:00:00:00;1725754171;08/09/24;00:09:31;1.01;0.012;0.125;-0.01710422709584236;-0.012217304669320583;0.0
01:00:0A:00:00:00:00;1725754172;08/09/24;00:09:32;1.012;0.013;0.124;-0.01710422709584236;-0.012217304669320583;0.0
01:00:0A:00:00:00:00;1725754173;08/09/24;00:09:33;1.012;0.014;0.124;-0.01710422709584236;-0.010995574295520782;0.0
01:00:0A:00:00:00:00;1725754174;08/09/24;00:09:34;1.012;0.012;0.123;-0.015882495790719986;-0.012217304669320583;0.0
01:00:0A:00:00:00:00;1725754175;08/09/24;00:09:35;1.011;0.014;0.123;-0.01710422709584236;-0.012217304669320583;0.0012217304902151227
01:00:0A:00:00:00:00;1725754176;08/09/24;00:09:36;1.012;0.014;0.124;-0.015882495790719986;-0.012217304669320583;0.0
01:00:0A:00:00:00:00;1725754177;08/09/24;00:09:37;1.011;0.014;0.123;-0.01710422709584236;-0.012217304669320583;0.0
01:00:0A:00:00:00:00;1725754178;08/09/24;00:09:38;1.011;0.012;0.123;-0.01710422709584236;-0.010995574295520782;0.0
01:00:0A:00:00:00:00;1725754179;08/09/24;00:09:39;1.012;0.012;0.123;-0.01710422709584236;-0.012217304669320583;0.0012217304902151227
01:00:0A:00:00:00:00;1725754180;08/09/24;00:09:40;1.012;0.014;0.124;-0.01710422709584236;-0.012217304669320583;0.0012217304902151227
01:00:0A:00:00:00:00;1725754181;08/09/24;00:09:41;1.011;0.014;0.124;-0.01710422709584236;-0.012217304669320583;0.0
01:00:0A:00:00:00:00;1725754182;08/09/24;00:09:42;1.012;0.013;0.125;-0.01710422709584236;-0.010995574295520782;0.0
01:00:0A:00:00:00:00;1725754183;08/09/24;00:09:43;1.01;0.013;0.123;-0.01710422709584236;-0.012217304669320583;0.0
01:00:0A:00:00:00:00;1725754184;08/09/24;00:09:44;1.011;0.013;0.123;-0.01710422709584236;-0.013439035043120384;0.0
01:00:0A:00:00:00:00;1725754185;08/09/24;00:09:45;1.012;0.014;0.125;-0.018325956538319588;-0.012217304669320583;0.0012217304902151227
01:00:0A:00:00:00:00;1725754186;08/09/24;00:09:46;1.012;0.012;0.123;-0.01710422709584236;-0.010995574295520782;0.0
01:00:0A:00:00:00:00;1725754187;08/09/24;00:09:47;1.011;0.014;0.124;-0.018325956538319588;-0.010995574295520782;0.0
01:00:0A:00:00:00:00;1725754188;08/09/24;00:09:48;1.012;0.012;0.123;-0.018325956538319588;-0.012217304669320583;0.0
01:00:0A:00:00:00:00;1725754189;08/09/24;00:09:49;1.011;0.014;0.124;-0.01710422709584236;-0.013439035043120384;0.0
01:00:0A:00:00:00:00;1725754190;08/09/24;00:09:50;1.011;0.014;0.124;-0.018325956538319588;-0.012217304669320583;0.0012217304902151227
01:00:0A:00:00:00:00;1725754191;08/09/24;00:09:51;1.012;0.014;0.123;-0.01710422709584236;-0.012217304669320583;0.0
01:00:0A:00:00:00:00;1725754192;08/09/24;00:09:52;1.011;0.013;0.123;-0.018325956538319588;-0.012217304669320583;0.0
01:00:0A:00:00:00:00;1725754193;08/09/24;00:09:53;1.011;0.013;0.123;-0.018325956538319588;-0.013439035043120384;0.0
01:00:0A:00:00:00:00;1725754194;08/09/24;00:09:54;1.012;0.014;0.124;-0.018325956538319588;-0.012217304669320583;0.0
01:00:0A:00:00:00:00;1725754195;08/09/24;00:09:55;1.012;0.013;0.124;-0.018325956538319588;-0.010995574295520782;0.0
01:00:0A:00:00:00:00;1725754196;08/09/24;00:09:56;1.011;0.013;0.123;-0.01710422709584236;-0.010995574295520782;0.0
01:00:0A:00:00:00:00;1725754197;08/09/24;00:09:57;1.012;0.013;0.123;-0.018325956538319588;-0.012217304669320583;0.0012217304902151227
01:00:0A:00:00:00:00;1725754198;08/09/24;00:09:58;1.011;0.012;0.123;-0.01710422709584236;-0.013439035043120384;0.0
01:00:0A:00:00:00:00;1725754199;08/09/24;00:09:59;1.011;0.013;0.124;-0.01710422709584236;-0.012217304669320583;0.0012217304902151227
01:00:0A:00:00:00:00;1725754200;08/09/24;00:10:00;1.011;0.012;0.123;-0.01710422709584236;-0.010995574295520782;0.0
01:00:0A:00:00:00:00;1725754201;08/09/24;00:10:01;1.012;0.014;0.123;-0.01710422709584236;-0.012217304669320583;0.0
01:00:0A:00:00:00:00;1725754202;08/09/24;00:10:02;1.012;0.013;0.123;-0.01710422709584236;-0.012217304669320583;0.0012217304902151227
01:00:0A:00:00:00:00;1725754203;08/09/24;00:10:03;1.011;0.013;0.125;-0.01710422709584236;-0.013439035043120384;0.0
01:00:0A:00:00:00:00;1725754204;08/09/24;00:10:04;1.012;0.013;0.124;-0.018325956538319588;-0.010995574295520782;0.0012217304902151227
01:00:0A:00:00:00:00;1725754205;08/09/24;00:10:05;1.012;0.013;0.123;-0.018325956538319588;-0.012217304669320583;0.0
01:00:0A:00:00:00:00;1725754206;08/09/24;00:10:06;1.011;0.014;0.123;-0.018325956538319588;-0.012217304669320583;0.0
01:00:0A:00:00:00:00;1725754207;08/09/24;00:10:07;1.01;0.012;0.124;-0.019547687843441963;-0.012217304669320583;0.0012217304902151227
01:00:0A:00:00:00:00;1725754208;08/09/24;00:10:08;1.011;0.013;0.123;-0.019547687843441963;-0.012217304669320583;0.0
01:00:0A:00:00:00:00;1725754209;08/09/24;00:10:09;1.011;0.014;0.123;-0.02076941914856434;-0.012217304669320583;0.0012217304902151227
01:00:0A:00:00:00:00;1725754210;08/09/24;00:10:10;1.012;0.013;0.124;-0.02076941914856434;-0.012217304669320583;0.0
01:00:0A:00:00:00:00;1725754211;08/09/24;00:10:11;1.012;0.014;0.123;-0.02076941914856434;-0.012217304669320583;0.0
01:00:0A:00:00:00:00;1725754212;08/09/24;00:10:12;1.012;0.013;0.124;-0.02076941914856434;-0.012217304669320583;0.0
01:00:0A:00:00:00:00;1725754213;08/09/24;00:10:13;1.012;0.013;0.124;-0.02076941914856434;-0.012217304669320583;-0.0012217304902151227
01:00:0A:00:00:00:00;1725754214;08/09/24;00:10:14;1.011;0.013;0.123;-0.02321287989616394;-0.012217304669320583;0.0012217304902151227
01:00:0A:00:00:00:00;1725754215;08/09/24;00:10:15;1.011;0.013;0.122;-0.021991148591041565;-0.012217304669320583;-0.0012217304902151227
01:00:0A:00:00:00:00;1725754216;08/09/24;00:10:16;1.011;0.013;0.124;-0.021991148591041565;-0.012217304669320583;0.0
01:00:0A:00:00:00:00;1725754217;08/09/24;00:10:17;1.011;0.013;0.124;-0.021991148591041565;-0.012217304669320583;0.0
01:00:0A:00:00:00:00;1725754218;08/09/24;00:10:18;1.011;0.012;0.124;-0.021991148591041565;-0.012217304669320583;0.0
01:00:0A:00:00:00:00;1725754219;08/09/24;00:10:19;1.011;0.013;0.124;-0.02321287989616394;-0.012217304669320583;0.0012217304902151227
01:00:0A:00:00:00:00;1725754220;08/09/24;00:10:20;1.012;0.013;0.124;-0.021991148591041565;-0.012217304669320583;-0.0012217304902151227
01:00:0A:00:00:00:00;1725754221;08/09/24;00:10:21;1.011;0.013;0.124;-0.021991148591041565;-0.013439035043120384;0.0
01:00:0A:00:00:00:00;1725754222;08/09/24;00:10:22;1.012;0.014;0.123;-0.021991148591041565;-0.010995574295520782;0.0
01:00:0A:00:00:00:00;1725754223;08/09/24;00:10:23;1.012;0.014;0.124;-0.02321287989616394;-0.012217304669320583;0.0
01:00:0A:00:00:00:00;1725754224;08/09/24;00:10:24;1.012;0.013;0.123;-0.02321287989616394;-0.012217304669320583;0.0
01:00:0A:00:00:00:00;1725754225;08/09/24;00:10:25;1.011;0.014;0.123;-0.021991148591041565;-0.012217304669320583;-0.0012217304902151227
01:00:0A:00:00:00:00;1725754226;08/09/24;00:10:26;1.011;0.014;0.124;-0.02321287989616394;-0.012217304669320583;0.0012217304902151227
01:00:0A:00:00:00:00;1725754227;08/09/24;00:10:27;1.012;0.013;0.123;-0.02321287989616394;-0.010995574295520782;0.0
01:00:0A:00:00:00:00;1725754228;08/09/24;00:10:28;1.012;0.014;0.122;-0.02321287989616394;-0.012217304669320583;0.0
01:00:0A:00:00:00:00;1725754229;08/09/24;00:10:29;1.012;0.013;0.123;-0.021991148591041565;-0.012217304669320583;0.0
01:00:0A:00:00:00:00;1725754230;08/09/24;00:10:30;1.012;0.014;0.123;-0.021991148591041565;-0.012217304669320583;-0.0012217304902151227
01:00:0A:00:00:00:00;1725754231;08/09/24;00:10:31;1.012;0.02;0.137;0.04153883829712868;0.0012217304902151227;0.0012217304902151227
01:00:0A:00:00:00:00;1725754232;08/09/24;00:10:32;1.009;0.018;0.131;0.09407324343919754;-0.01710422709584236;0.02076941914856434
01:00:0A:00:00:00:00;1725754233;08/09/24;00:10:33;1.012;0.01;0.122;0.1111774742603302;-0.018325956538319588;0.018325956538319588
01:00:0A:00:00:00:00;1725754234;08/09/24;00:10:34;1.011;0.012;0.122;0.10751228034496307;0.0;0.006108652334660292
01:00:0A:00:00:00:00;1725754235;08/09/24;00:10:35;1.01;0.017;0.129;0.09651670604944229;-0.0073303827084600925;0.013439035043120384
01:00:0A:00:00:00:00;1725754236;08/09/24;00:10:36;1.012;0.01;0.122;0.09162978082895279;-0.015882495790719986;0.018325956538319588
01:00:0A:00:00:00:00;1725754237;08/09/24;00:10:37;1.011;0.012;0.122;0.09407324343919754;-0.0036651913542300463;0.0036651913542300463
01:00:0A:00:00:00:00;1725754238;08/09/24;00:10:38;1.01;0.016;0.127;0.08552113175392151;-0.0073303827084600925;0.013439035043120384
01:00:0A:00:00:00:00;1725754239;08/09/24;00:10:39;1.011;0.01;0.122;0.08307767659425735;-0.014660765416920185;0.014660765416920185
01:00:0A:00:00:00:00;1725754240;08/09/24;00:10:40;1.012;0.013;0.122;0.08552113175392151;-0.004886921960860491;0.004886921960860491
01:00:0A:00:00:00:00;1725754241;08/09/24;00:10:41;1.01;0.016;0.126;0.07696902006864548;-0.0073303827084600925;0.012217304669320583
01:00:0A:00:00:00:00;1725754242;08/09/24;00:10:42;1.012;0.01;0.124;0.0757472887635231;-0.013439035043120384;0.014660765416920185
01:00:0A:00:00:00:00;1725754243;08/09/24;00:10:43;1.012;0.011;0.122;0.07941248267889023;-0.0073303827084600925;0.004886921960860491
01:00:0A:00:00:00:00;1725754244;08/09/24;00:10:44;1.01;0.016;0.126;0.07330382615327835;-0.0073303827084600925;0.009773843921720982
01:00:0A:00:00:00:00;1725754245;08/09/24;00:10:45;1.011;0.011;0.124;0.0708603635430336;-0.010995574295520782;0.014660765416920185
01:00:0A:00:00:00:00;1725754246;08/09/24;00:10:46;1.011;0.013;0.122;0.07452555745840073;-0.00855211354792118;0.0036651913542300463
01:00:0A:00:00:00:00;1725754247;08/09/24;00:10:47;1.011;0.017;0.124;0.06841690838336945;-0.0073303827084600925;0.009773843921720982
01:00:0A:00:00:00:00;1725754248;08/09/24;00:10:48;1.011;0.012;0.125;0.06719517707824707;-0.010995574295520782;0.013439035043120384
01:00:0A:00:00:00:00;1725754249;08/09/24;00:10:49;1.012;0.012;0.122;0.0708603635430336;-0.010995574295520782;0.0036651913542300463
01:00:0A:00:00:00:00;1725754250;08/09/24;00:10:50;1.01;0.015;0.123;0.06352998316287994;-0.006108652334660292;0.009773843921720982
01:00:0A:00:00:00:00;1725754251;08/09/24;00:10:51;1.012;0.011;0.125;0.06352998316287994;-0.012217304669320583;0.012217304669320583
01:00:0A:00:00:00:00;1725754252;08/09/24;00:10:52;1.01;0.012;0.122;0.06719517707824707;-0.010995574295520782;0.006108652334660292
01:00:0A:00:00:00:00;1725754253;08/09/24;00:10:53;1.013;0.016;0.124;0.06230825558304787;-0.0073303827084600925;0.00855211354792118
01:00:0A:00:00:00:00;1725754254;08/09/24;00:10:54;1.011;0.013;0.124;0.06108652427792549;-0.010995574295520782;0.009773843921720982
01:00:0A:00:00:00:00;1725754255;08/09/24;00:10:55;1.012;0.013;0.123;0.06230825558304787;-0.009773843921720982;0.006108652334660292
01:00:0A:00:00:00:00;1725754256;08/09/24;00:10:56;1.011;0.015;0.124;0.05864306166768074;-0.00855211354792118;0.00855211354792118
01:00:0A:00:00:00:00;1725754257;08/09/24;00:10:57;1.012;0.012;0.125;0.05742133408784866;-0.010995574295520782;0.010995574295520782
01:00:0A:00:00:00:00;1725754258;08/09/24;00:10:58;1.011;0.012;0.123;0.05864306166768074;-0.012217304669320583;0.004886921960860491
01:00:0A:00:00:00:00;1725754259;08/09/24;00:10:59;1.012;0.015;0.123;0.05497787147760391;-0.0073303827084600925;0.00855211354792118
01:00:0A:00:00:00:00;1725754260;08/09/24;00:11:00;1.01;0.012;0.124;0.05375614017248154;-0.009773843921720982;0.009773843921720982
01:00:0A:00:00:00:00;1725754261;08/09/24;00:11:01;1.012;0.013;0.124;0.05497787147760391;-0.012217304669320583;0.006108652334660292
01:00:0A:00:00:00:00;1725754262;08/09/24;00:11:02;1.011;0.014;0.124;0.051312677562236786;-0.0073303827084600925;0.0073303827084600925
01:00:0A:00:00:00:00;1725754263;08/09/24;00:11:03;1.013;0.013;0.125;0.051312677562236786;-0.010995574295520782;0.00855211354792118
01:00:0A:00:00:00:00;1725754264;08/09/24;00:11:04;1.012;0.012;0.122;0.05253440886735916;-0.010995574295520782;0.006108652334660292
01:00:0A:00:00:00:00;1725754265;08/09/24;00:11:05;1.011;0.014;0.123;0.04886921867728233;-0.00855211354792118;0.0073303827084600925
01:00:0A:00:00:00:00;1725754266;08/09/24;00:11:06;1.011;0.014;0.125;0.04886921867728233;-0.012217304669320583;0.00855211354792118
01:00:0A:00:00:00:00;1725754267;08/09/24;00:11:07;1.011;0.013;0.122;0.04886921867728233;-0.010995574295520782;0.006108652334660292
01:00:0A:00:00:00:00;1725754268;08/09/24;00:11:08;1.012;0.013;0.124;0.04764748737215996;-0.009773843921720982;0.0073303827084600925
01:00:0A:00:00:00:00;1725754269;08/09/24;00:11:09;1.011;0.013;0.125;0.04642575979232788;-0.009773843921720982;0.0073303827084600925
01:00:0A:00:00:00:00;1725754270;08/09/24;00:11:10;1.012;0.013;0.124;0.04642575979232788;-0.010995574295520782;0.006108652334660292
01:00:0A:00:00:00:00;1725754271;08/09/24;00:11:11;1.012;0.015;0.123;0.045204028487205505;-0.009773843921720982;0.0073303827084600925
01:00:0A:00:00:00:00;1725754272;08/09/24;00:11:12;1.011;0.014;0.125;0.04398229718208313;-0.009773843921720982;0.0073303827084600925
01:00:0A:00:00:00:00;1725754273;08/09/24;00:11:13;1.011;0.013;0.123;0.04398229718208313;-0.012217304669320583;0.006108652334660292
01:00:0A:00:00:00:00;1725754274;08/09/24;00:11:14;1.011;0.014;0.122;0.042760565876960754;-0.00855211354792118;0.006108652334660292
01:00:0A:00:00:00:00;1725754275;08/09/24;00:11:15;1.01;0.013;0.125;0.04153883829712868;-0.010995574295520782;0.0073303827084600925
01:00:0A:00:00:00:00;1725754276;08/09/24;00:11:16;1.011;0.013;0.124;0.04153883829712868;-0.010995574295520782;0.006108652334660292
01:00:0A:00:00:00:00;1725754277;08/09/24;00:11:17;1.011;0.014;0.123;0.040317103266716;-0.009773843921720982;0.006108652334660292
01:00:0A:00:00:00:00;1725754278;08/09/24;00:11:18;1.011;0.014;0.125;0.039095375686883926;-0.010995574295520782;0.006108652334660292
01:00:0A:00:00:00:00;1725754279;08/09/24;00:11:19;1.011;0.013;0.123;0.03787364438176155;-0.010995574295520782;0.006108652334660292
01:00:0A:00:00:00:00;1725754280;08/09/24;00:11:20;1.011;0.014;0.124;0.036651913076639175;-0.010995574295520782;0.006108652334660292
01:00:0A:00:00:00:00;1725754281;08/09/24;00:11:21;1.011;0.014;0.123;0.0354301817715168;-0.010995574295520782;0.006108652334660292
01:00:0A:00:00:00:00;1725754282;08/09/24;00:11:22;1.012;0.014;0.124;0.03420845419168472;-0.010995574295520782;0.006108652334660292
01:00:0A:00:00:00:00;1725754283;08/09/24;00:11:23;1.011;0.014;0.124;0.03298672288656235;-0.009773843921720982;0.004886921960860491
01:00:0A:00:00:00:00;1725754284;08/09/24;00:11:24;1.011;0.014;0.124;0.03176499158143997;-0.010995574295520782;0.004886921960860491
01:00:0A:00:00:00:00;1725754285;08/09/24;00:11:25;1.011;0.014;0.123;0.030543262138962746;-0.012217304669320583;0.006108652334660292
01:00:0A:00:00:00:00;1725754286;08/09/24;00:11:26;1.01;0.013;0.124;0.02932153083384037;-0.009773843921720982;0.004886921960860491
01:00:0A:00:00:00:00;1725754287;08/09/24;00:11:27;1.011;0.013;0.124;0.02687807008624077;-0.010995574295520782;0.004886921960860491
01:00:0A:00:00:00:00;1725754288;08/09/24;00:11:28;1.011;0.013;0.124;0.02687807008624077;-0.010995574295520782;0.004886921960860491
01:00:0A:00:00:00:00;1725754289;08/09/24;00:11:29;1.012;0.013;0.124;0.025656338781118393;-0.009773843921720982;0.0036651913542300463
01:00:0A:00:00:00:00;1725754290;08/09/24;00:11:30;1.011;0.013;0.124;0.024434609338641167;-0.012217304669320583;0.004886921960860491
01:00:0A:00:00:00:00;1725754291;08/09/24;00:11:31;1.01;0.013;0.124;0.02321287989616394;-0.010995574295520782;0.0036651913542300463
01:00:0A:00:00:00:00;1725754292;08/09/24;00:11:32;1.012;0.013;0.124;0.021991148591041565;-0.010995574295520782;0.004886921960860491
01:00:0A:00:00:00:00;1725754293;08/09/24;00:11:33;1.011;0.014;0.124;0.02076941914856434;-0.010995574295520782;0.004886921960860491
01:00:0A:00:00:00:00;1725754294;08/09/24;00:11:34;1.012;0.014;0.124;0.019547687843441963;-0.010995574295520782;0.0036651913542300463
01:00:0A:00:00:00:00;1725754295;08/09/24;00:11:35;1.012;0.013;0.122;0.018325956538319588;-0.010995574295520782;0.004886921960860491
01:00:0A:00:00:00:00;1725754296;08/09/24;00:11:36;1.011;0.014;0.123;0.01710422709584236;-0.010995574295520782;0.0036651913542300463
01:00:0A:00:00:00:00;1725754297;08/09/24;00:11:37;1.011;0.013;0.123;0.015882495790719986;-0.010995574295520782;0.004886921960860491
01:00:0A:00:00:00:00;1725754298;08/09/24;00:11:38;1.011;0.013;0.123;0.015882495790719986;-0.010995574295520782;0.0036651913542300463
01:00:0A:00:00:00:00;1725754299;08/09/24;00:11:39;1.011;0.013;0.124;0.014660765416920185;-0.010995574295520782;0.0036651913542300463
01:00:0A:00:00:00:00;1725754300;08/09/24;00:11:40;1.012;0.013;0.123;0.013439035043120384;-0.012217304669320583;0.0036651913542300463
01:00:0A:00:00:00:00;1725754301;08/09/24;00:11:41;1.011;0.013;0.123;0.013439035043120384;-0.010995574295520782;0.0036651913542300463
01:00:0A:00:00:00:00;1725754302;08/09/24;00:11:42;1.012;0.014;0.123;0.012217304669320583;-0.012217304669320583;0.0036651913542300463
01:00:0A:00:00:00:00;1725754303;08/09/24;00:11:43;1.011;0.013;0.123;0.012217304669320583;-0.010995574295520782;0.0036651913542300463
01:00:0A:00:00:00:00;1725754304;08/09/24;00:11:44;1.012;0.013;0.125;0.010995574295520782;-0.010995574295520782;0.0036651913542300463
01:00:0A:00:00:00:00;1725754305;08/09/24;00:11:45;1.012;0.012;0.124;0.010995574295520782;-0.010995574295520782;0.0036651913542300463
01:00:0A:00:00:00:00;1725754306;08/09/24;00:11:46;1.012;0.014;0.124;0.010995574295520782;-0.010995574295520782;0.0024434609804302454
01:00:0A:00:00:00:00;1725754307;08/09/24;00:11:47;1.011;0.013;0.123;0.009773843921720982;-0.010995574295520782;0.0036651913542300463
01:00:0A:00:00:00:00;1725754308;08/09/24;00:11:48;1.011;0.013;0.124;0.009773843921720982;-0.010995574295520782;0.0024434609804302454
01:00:0A:00:00:00:00;1725754309;08/09/24;00:11:49;1.01;0.013;0.125;0.009773843921720982;-0.012217304669320583;0.0036651913542300463
01:00:0A:00:00:00:00;1725754310;08/09/24;00:11:50;1.011;0.013;0.123;0.009773843921720982;-0.010995574295520782;0.0024434609804302454
01:00:0A:00:00:00:00;1725754311;08/09/24;00:11:51;1.011;0.014;0.124;0.009773843921720982;-0.012217304669320583;0.0024434609804302454
01:00:0A:00:00:00:00;1725754312;08/09/24;00:11:52;1.011;0.013;0.124;0.009773843921720982;-0.012217304669320583;0.0036651913542300463
01:00:0A:00:00:00:00;1725754313;08/09/24;00:11:53;1.011;0.014;0.124;0.00855211354792118;-0.010995574295520782;0.0024434609804302454
01:00:0A:00:00:00:00;1725754314;08/09/24;00:11:54;1.011;0.014;0.123;0.00855211354792118;-0.012217304669320583;0.0036651913542300463
01:00:0A:00:00:00:00;1725754315;08/09/24;00:11:55;1.011;0.013;0.123;0.00855211354792118;-0.010995574295520782;0.0024434609804302454
01:00:0A:00:00:00:00;1725754316;08/09/24;00:11:56;1.011;0.013;0.124;0.00855211354792118;-0.010995574295520782;0.0036651913542300463
01:00:0A:00:00:00:00;1725754317;08/09/24;00:11:57;1.01;0.014;0.124;0.00855211354792118;-0.010995574295520782;0.0024434609804302454
01:00:0A:00:00:00:00;1725754318;08/09/24;00:11:58;1.011;0.014;0.123;0.00855211354792118;-0.010995574295520782;0.0036651913542300463
01:00:0A:00:00:00:00;1725754319;08/09/24;00:11:59;1.011;0.013;0.123;0.0073303827084600925;-0.010995574295520782;0.0036651913542300463
01:00:0A:00:00:00:00;1725754320;08/09/24;00:12:00;1.011;0.014;0.122;0.00855211354792118;-0.010995574295520782;0.0024434609804302454
01:00:0A:00:00:00:00;1725754321;08/09/24;00:12:01;1.011;0.013;0.124;0.0073303827084600925;-0.012217304669320583;0.0036651913542300463
01:00:0A:00:00:00:00;1725754322;08/09/24;00:12:02;1.013;0.013;0.123;0.0073303827084600925;-0.010995574295520782;0.0024434609804302454
01:00:0A:00:00:00:00;1725754323;08/09/24;00:12:03;1.009;0.013;0.122;0.0073303827084600925;-0.012217304669320583;0.0036651913542300463
01:00:0A:00:00:00:00;1725754324;08/09/24;00:12:04;1.011;0.013;0.123;0.0073303827084600925;-0.010995574295520782;0.0024434609804302454
01:00:0A:00:00:00:00;1725754325;08/09/24;00:12:05;1.012;0.014;0.124;0.0073303827084600925;-0.010995574295520782;0.0024434609804302454
01:00:0A:00:00:00:00;1725754326;08/09/24;00:12:06;1.011;0.014;0.123;0.0073303827084600925;-0.012217304669320583;0.0036651913542300463
01:00:0A:00:00:00:00;1725754327;08/09/24;00:12:07;1.011;0.013;0.124;0.0073303827084600925;-0.010995574295520782;0.0036651913542300463
01:00:0A:00:00:00:00;1725754328;08/09/24;00:12:08;1.012;0.014;0.123;0.006108652334660292;-0.010995574295520782;0.0036651913542300463
01:00:0A:00:00:00:00;1725754329;08/09/24;00:12:09;1.011;0.012;0.124;0.006108652334660292;-0.010995574295520782;0.0036651913542300463
01:00:0A:00:00:00:00;1725754330;08/09/24;00:12:10;1.011;0.014;0.124;0.006108652334660292;-0.010995574295520782;0.0024434609804302454
01:00:0A:00:00:00:00;1725754331;08/09/24;00:12:11;1.011;0.013;0.124;0.006108652334660292;-0.010995574295520782;0.0036651913542300463
01:00:0A:00:00:00:00;1725754332;08/09/24;00:12:12;1.01;0.014;0.124;0.006108652334660292;-0.010995574295520782;0.0024434609804302454
01:00:0A:00:00:00:00;1725754333;08/09/24;00:12:13;1.012;0.013;0.124;0.006108652334660292;-0.012217304669320583;0.0024434609804302454
01:00:0A:00:00:00:00;1725754334;08/09/24;00:12:14;1.012;0.015;0.125;0.004886921960860491;-0.010995574295520782;0.0024434609804302454
01:00:0A:00:00:00:00;1725754335;08/09/24;00:12:15;1.011;0.014;0.124;0.004886921960860491;-0.010995574295520782;0.0024434609804302454
01:00:0A:00:00:00:00;1725754336;08/09/24;00:12:16;1.012;0.014;0.123;0.0036651913542300463;-0.012217304669320583;0.0024434609804302454
01:00:0A:00:00:00:00;1725754337;08/09/24;00:12:17;1.011;0.014;0.124;0.0036651913542300463;-0.010995574295520782;0.0024434609804302454
01:00:0A:00:00:00:00;1725754338;08/09/24;00:12:18;1.011;0.013;0.124;0.0024434609804302454;-0.010995574295520782;0.0024434609804302454
01:00:0A:00:00:00:00;1725754339;08/09/24;00:12:19;1.011;0.013;0.123;0.0024434609804302454;-0.010995574295520782;0.0024434609804302454
01:00:0A:00:00:00:00;1725754340;08/09/24;00:12:20;1.012;0.014;0.124;0.0024434609804302454;-0.012217304669320583;0.0024434609804302454
01:00:0A:00:00:00:00;1725754341;08/09/24;00:12:21;1.011;0.013;0.123;0.0024434609804302454;-0.012217304669320583;0.0024434609804302454
01:00:0A:00:00:00:00;1725754342;08/09/24;00:12:22;1.012;0.013;0.122;0.0012217304902151227;-0.010995574295520782;0.0024434609804302454
01:00:0A:00:00:00:00;1725754343;08/09/24;00:12:23;1.012;0.013;0.124;0.0012217304902151227;-0.010995574295520782;0.0024434609804302454
01:00:0A:00:00:00:00;1725754344;08/09/24;00:12:24;1.011;0.012;0.124;0.0012217304902151227;-0.010995574295520782;0.0024434609804302454
01:00:0A:00:00:00:00;1725754345;08/09/24;00:12:25;1.011;0.012;0.124;0.0;-0.012217304669320583;0.0036651913542300463
01:00:0A:00:00:00:00;1725754346;08/09/24;00:12:26;1.011;0.014;0.123;0.0;-0.010995574295520782;0.0024434609804302454
01:00:0A:00:00:00:00;1725754347;08/09/24;00:12:27;1.011;0.013;0.123;0.0;-0.010995574295520782;0.0024434609804302454
01:00:0A:00:00:00:00;1725754348;08/09/24;00:12:28;1.012;0.013;0.124;0.0;-0.010995574295520782;0.0024434609804302454
01:00:0A:00:00:00:00;1725754349;08/09/24;00:12:29;1.01;0.013;0.123;0.0;-0.012217304669320583;0.0024434609804302454
01:00:0A:00:00:00:00;1725754350;08/09/24;00:12:30;1.012;0.014;0.124;0.0;-0.012217304669320583;0.0024434609804302454
01:00:0A:00:00:00:00;1725754351;08/09/24;00:12:31;1.011;0.013;0.124;0.0;-0.010995574295520782;0.0024434609804302454
01:00:0A:00:00:00:00;1725754352;08/09/24;00:12:32;1.01;0.013;0.124;0.0;-0.010995574295520782;0.0024434609804302454
01:00:0A:00:00:00:00;1725754353;08/09/24;00:12:33;1.011;0.014;0.123;0.0;-0.012217304669320583;0.0024434609804302454
01:00:0A:00:00:00:00;1725754354;08/09/24;00:12:34;1.012;0.013;0.123;-0.0012217304902151227;-0.012217304669320583;0.0024434609804302454
01:00:0A:00:00:00:00;1725754355;08/09/24;00:12:35;1.01;0.014;0.123;-0.0012217304902151227;-0.012217304669320583;0.0024434609804302454
01:00:0A:00:00:00:00;1725754356;08/09/24;00:12:36;1.011;0.013;0.123;-0.0012217304902151227;-0.010995574295520782;0.0012217304902151227
01:00:0A:00:00:00:00;1725754357;08/09/24;00:12:37;1.011;0.014;0.123;-0.0012217304902151227;-0.012217304669320583;0.0024434609804302454
01:00:0A:00:00:00:00;1725754358;08/09/24;00:12:38;1.012;0.014;0.123;-0.0012217304902151227;-0.012217304669320583;0.0024434609804302454
01:00:0A:00:00:00:00;1725754359;08/09/24;00:12:39;1.011;0.013;0.124;-0.0012217304902151227;-0.012217304669320583;0.0024434609804302454
01:00:0A:00:00:00:00;1725754360;08/09/24;00:12:40;1.01;0.013;0.123;-0.0012217304902151227;-0.012217304669320583;0.0024434609804302454
01:00:0A:00:00:00:00;1725754361;08/09/24;00:12:41;1.012;0.014;0.123;-0.0012217304902151227;-0.010995574295520782;0.0012217304902151227
01:00:0A:00:00:00:00;1725754362;08/09/24;00:12:42;1.011;0.014;0.123;-0.0012217304902151227;-0.012217304669320583;0.0024434609804302454
01:00:0A:00:00:00:00;1725754363;08/09/24;00:12:43;1.012;0.013;0.124;-0.0012217304902151227;-0.010995574295520782;0.0024434609804302454
01:00:0A:00:00:00:00;1725754364;08/09/24;00:12:44;1.011;0.013;0.123;0.0;-0.012217304669320583;0.0024434609804302454
01:00:0A:00:00:00:00;1725754365;08/09/24;00:12:45;1.012;0.013;0.124;-0.0012217304902151227;-0.012217304669320583;0.0024434609804302454
01:00:0A:00:00:00:00;1725754366;08/09/24;00:12:46;1.011;0.013;0.124;-0.0012217304902151227;-0.010995574295520782;0.0024434609804302454
01:00:0A:00:00:00:00;1725754367;08/09/24;00:12:47;1.011;0.014;0.124;-0.0012217304902151227;-0.012217304669320583;0.0024434609804302454
01:00:0A:00:00:00:00;1725754368;08/09/24;00:12:48;1.012;0.014;0.123;0.0;-0.012217304669320583;0.0024434609804302454
01:00:0A:00:00:00:00;1725754369;08/09/24;00:12:49;1.012;0.013;0.123;0.0;-0.012217304669320583;0.0024434609804302454
01:00:0A:00:00:00:00;1725754370;08/09/24;00:12:50;1.011;0.012;0.123;0.0;-0.012217304669320583;0.0024434609804302454
01:00:0A:00:00:00:00;1725754371;08/09/24;00:12:51;1.012;0.014;0.124;0.0;-0.010995574295520782;0.0024434609804302454
01:00:0A:00:00:00:00;1725754372;08/09/24;00:12:52;1.011;0.014;0.123;0.0;-0.012217304669320583;0.0024434609804302454
01:00:0A:00:00:00:00;1725754373;08/09/24;00:12:53;1.011;0.013;0.124;0.0;-0.012217304669320583;0.0024434609804302454
01:00:0A:00:00:00:00;1725754374;08/09/24;00:12:54;1.013;0.014;0.123;0.0;-0.010995574295520782;0.0024434609804302454
01:00:0A:00:00:00:00;1725754375;08/09/24;00:12:55;1.011;0.013;0.122;0.0;-0.010995574295520782;0.0012217304902151227
01:00:0A:00:00:00:00;1725754376;08/09/24;00:12:56;1.012;0.014;0.124;0.0;-0.010995574295520782;0.0024434609804302454
01:00:0A:00:00:00:00;1725754377;08/09/24;00:12:57;1.011;0.012;0.123;0.0;-0.012217304669320583;0.0024434609804302454
01:00:0A:00:00:00:00;1725754378;08/09/24;00:12:58;1.012;0.014;0.124;0.0;-0.010995574295520782;0.0024434609804302454
01:00:0A:00:00:00:00;1725754379;08/09/24;00:12:59;1.011;0.013;0.123;0.0;-0.012217304669320583;0.0024434609804302454
01:00:0A:00:00:00:00;1725754380;08/09/24;00:13:00;1.011;0.012;0.124;0.0012217304902151227;-0.010995574295520782;0.0024434609804302454
01:00:0A:00:00:00:00;1725754381;08/09/24;00:13:01;1.012;0.012;0.123;0.0;-0.012217304669320583;0.0024434609804302454
01:00:0A:00:00:00:00;1725754382;08/09/24;00:13:02;1.011;0.014;0.123;0.0012217304902151227;-0.012217304669320583;0.0024434609804302454
01:00:0A:00:00:00:00;1725754383;08/09/24;00:13:03;1.011;0.013;0.124;0.0012217304902151227;-0.010995574295520782;0.0024434609804302454
01:00:0A:00:00:00:00;1725754384;08/09/24;00:13:04;1.012;0.012;0.124;0.0012217304902151227;-0.012217304669320583;0.0024434609804302454
01:00:0A:00:00:00:00;1725754385;08/09/24;00:13:05;1.011;0.013;0.124;0.0012217304902151227;-0.010995574295520782;0.0024434609804302454
01:00:0A:00:00:00:00;1725754386;08/09/24;00:13:06;1.011;0.013;0.123;0.0012217304902151227;-0.012217304669320583;0.0024434609804302454
01:00:0A:00:00:00:00;1725754387;08/09/24;00:13:07;1.011;0.013;0.124;0.0012217304902151227;-0.012217304669320583;0.0024434609804302454
01:00:0A:00:00:00:00;1725754388;08/09/24;00:13:08;1.011;0.013;0.124;0.0012217304902151227;-0.010995574295520782;0.0024434609804302454
01:00:0A:00:00:00:00;1725754389;08/09/24;00:13:09;1.011;0.013;0.123;0.0012217304902151227;-0.012217304669320583;0.0024434609804302454
01:00:0A:00:00:00:00;1725754390;08/09/24;00:13:10;1.011;0.013;0.123;0.0012217304902151227;-0.010995574295520782;0.0024434609804302454
01:00:0A:00:00:00:00;1725754391;08/09/24;00:13:11;1.011;0.013;0.122;0.0024434609804302454;-0.012217304669320583;0.0024434609804302454
01:00:0A:00:00:00:00;1725754392;08/09/24;00:13:12;1.012;0.013;0.123;0.0024434609804302454;-0.010995574295520782;0.0024434609804302454
01:00:0A:00:00:00:00;1725754393;08/09/24;00:13:13;1.012;0.014;0.123;0.0024434609804302454;-0.010995574295520782;0.0024434609804302454
01:00:0A:00:00:00:00;1725754394;08/09/24;00:13:14;1.012;0.013;0.123;0.0024434609804302454;-0.010995574295520782;0.0024434609804302454
01:00:0A:00:00:00:00;1725754395;08/09/24;00:13:15;1.01;0.013;0.124;0.0024434609804302454;-0.010995574295520782;0.0024434609804302454
01:00:0A:00:00:00:00;1725754396;08/09/24;00:13:16;1.012;0.013;0.123;0.0024434609804302454;-0.012217304669320583;0.0036651913542300463
01:00:0A:00:00:00:00;1725754397;08/09/24;00:13:17;1.011;0.013;0.124;0.0036651913542300463;-0.010995574295520782;0.0024434609804302454
01:00:0A:00:00:00:00;1725754398;08/09/24;00:13:18;1.011;0.013;0.124;0.0036651913542300463;-0.010995574295520782;0.0024434609804302454
01:00:0A:00:00:00:00;1725754399;08/09/24;00:13:19;1.013;0.013;0.123;0.0036651913542300463;-0.010995574295520782;0.0024434609804302454
01:00:0A:00:00:00:00;1725754400;08/09/24;00:13:20;1.011;0.013;0.124;0.0036651913542300463;-0.012217304669320583;0.0024434609804302454
01:00:0A:00:00:00:00;1725754401;08/09/24;00:13:21;1.011;0.014;0.124;0.0036651913542300463;-0.012217304669320583;0.0024434609804302454
01:00:0A:00:00:00:00;1725754402;08/09/24;00:13:22;1.011;0.013;0.124;0.0036651913542300463;-0.010995574295520782;0.0024434609804302454
01:00:0A:00:00:00:00;1725754403;08/09/24;00:13:23;1.012;0.013;0.124;0.0036651913542300463;-0.012217304669320583;0.0024434609804302454
01:00:0A:00:00:00:00;1725754404;08/09/24;00:13:24;1.011;0.012;0.123;0.0036651913542300463;-0.010995574295520782;0.0024434609804302454
01:00:0A:00:00:00:00;1725754405;08/09/24;00:13:25;1.011;0.013;0.123;0.0036651913542300463;-0.012217304669320583;0.0024434609804302454
01:00:0A:00:00:00:00;1725754406;08/09/24;00:13:26;1.011;0.014;0.124;0.0036651913542300463;-0.010995574295520782;0.0024434609804302454
01:00:0A:00:00:00:00;1725754407;08/09/24;00:13:27;1.01;0.015;0.123;0.0036651913542300463;-0.010995574295520782;0.0024434609804302454
01:00:0A:00:00:00:00;1725754408;08/09/24;00:13:28;1.011;0.014;0.123;0.0036651913542300463;-0.012217304669320583;0.0024434609804302454
01:00:0A:00:00:00:00;1725754409;08/09/24;00:13:29;1.011;0.013;0.123;0.0036651913542300463;-0.010995574295520782;0.0024434609804302454
01:00:0A:00:00:00:00;1725754410;08/09/24;00:13:30;1.012;0.014;0.123;0.0036651913542300463;-0.012217304669320583;0.0024434609804302454
01:00:0A:00:00:00:00;1725754411;08/09/24;00:13:31;1.011;0.013;0.123;0.0036651913542300463;-0.010995574295520782;0.0024434609804302454
01:00:0A:00:00:00:00;1725754412;08/09/24;00:13:32;1.011;0.014;0.124;0.0036651913542300463;-0.010995574295520782;0.0024434609804302454
01:00:0A:00:00:00:00;1725754413;08/09/24;00:13:33;1.011;0.013;0.123;0.0036651913542300463;-0.012217304669320583;0.0024434609804302454
01:00:0A:00:00:00:00;1725754414;08/09/24;00:13:34;1.011;0.013;0.122;0.0036651913542300463;-0.012217304669320583;0.0024434609804302454
01:00:0A:00:00:00:00;1725754415;08/09/24;00:13:35;1.012;0.014;0.124;0.0036651913542300463;-0.010995574295520782;0.0024434609804302454
01:00:0A:00:00:00:00;1725754416;08/09/24;00:13:36;1.011;0.013;0.123;0.0036651913542300463;-0.010995574295520782;0.0024434609804302454
01:00:0A:00:00:00:00;1725754417;08/09/24;00:13:37;1.012;0.014;0.124;0.0036651913542300463;-0.010995574295520782;0.0024434609804302454
01:00:0A:00:00:00:00;1725754418;08/09/24;00:13:38;1.012;0.012;0.124;0.0036651913542300463;-0.012217304669320583;0.0024434609804302454
01:00:0A:00:00:00:00;1725754419;08/09/24;00:13:39;1.011;0.014;0.124;0.0036651913542300463;-0.010995574295520782;0.0024434609804302454
01:00:0A:00:00:00:00;1725754420;08/09/24;00:13:40;1.012;0.013;0.123;0.0036651913542300463;-0.012217304669320583;0.0024434609804302454
01:00:0A:00:00:00:00;1725754421;08/09/24;00:13:41;1.012;0.013;0.124;0.0036651913542300463;-0.010995574295520782;0.0024434609804302454
01:00:0A:00:00:00:00;1725754422;08/09/24;00:13:42;1.011;0.013;0.124;0.0036651913542300463;-0.012217304669320583;0.0024434609804302454
01:00:0A:00:00:00:00;1725754423;08/09/24;00:13:43;1.011;0.014;0.123;0.0036651913542300463;-0.012217304669320583;0.0024434609804302454
01:00:0A:00:00:00:00;1725754424;08/09/24;00:13:44;1.011;0.013;0.123;0.0036651913542300463;-0.010995574295520782;0.0024434609804302454
01:00:0A:00:00:00:00;1725754425;08/09/24;00:13:45;1.01;0.013;0.123;0.0036651913542300463;-0.010995574295520782;0.0024434609804302454
01:00:0A:00:00:00:00;1725754426;08/09/24;00:13:46;1.011;0.013;0.124;0.0036651913542300463;-0.010995574295520782;0.0024434609804302454
01:00:0A:00:00:00:00;1725754427;08/09/24;00:13:47;1.012;0.013;0.124;0.0036651913542300463;-0.012217304669320583;0.0024434609804302454
01:00:0A:00:00:00:00;1725754428;08/09/24;00:13:48;1.011;0.012;0.123;0.0036651913542300463;-0.010995574295520782;0.0024434609804302454
01:00:0A:00:00:00:00;1725754429;08/09/24;00:13:49;1.01;0.013;0.124;0.0036651913542300463;-0.012217304669320583;0.0024434609804302454
01:00:0A:00:00:00:00;1725754430;08/09/24;00:13:50;1.01;0.013;0.124;0.0036651913542300463;-0.010995574295520782;0.0024434609804302454
01:00:0A:00:00:00:00;1725754431;08/09/24;00:13:51;1.011;0.013;0.124;0.0036651913542300463;-0.010995574295520782;0.0024434609804302454
01:00:0A:00:00:00:00;1725754432;08/09/24;00:13:52;1.012;0.013;0.123;0.0036651913542300463;-0.012217304669320583;0.0024434609804302454
01:00:0A:00:00:00:00;1725754433;08/09/24;00:13:53;1.011;0.014;0.124;0.0036651913542300463;-0.010995574295520782;0.0024434609804302454
01:00:0A:00:00:00:00;1725754434;08/09/24;00:13:54;1.011;0.013;0.123;0.0036651913542300463;-0.010995574295520782;0.0024434609804302454
01:00:0A:00:00:00:00;1725754435;08/09/24;00:13:55;1.012;0.013;0.124;0.0036651913542300463;-0.010995574295520782;0.0024434609804302454
01:00:0A:00:00:00:00;1725754436;08/09/24;00:13:56;1.012;0.012;0.123;0.0036651913542300463;-0.012217304669320583;0.0024434609804302454
01:00:0A:00:00:00:00;1725754437;08/09/24;00:13:57;1.011;0.012;0.124;0.0024434609804302454;-0.012217304669320583;0.0024434609804302454
01:00:0A:00:00:00:00;1725754438;08/09/24;00:13:58;1.011;0.014;0.123;0.0036651913542300463;-0.010995574295520782;0.0024434609804302454
01:00:0A:00:00:00:00;1725754439;08/09/24;00:13:59;1.012;0.013;0.124;0.0024434609804302454;-0.012217304669320583;0.0024434609804302454
01:00:0A:00:00:00:00;1725754440;08/09/24;00:14:00;1.012;0.013;0.123;0.0024434609804302454;-0.010995574295520782;0.0024434609804302454
01:00:0A:00:00:00:00;1725754441;08/09/24;00:14:01;1.012;0.013;0.123;0.0024434609804302454;-0.012217304669320583;0.0024434609804302454
01:00:0A:00:00:00:00;1725754442;08/09/24;00:14:02;1.011;0.013;0.124;0.0024434609804302454;-0.012217304669320583;0.0024434609804302454
01:00:0A:00:00:00:00;1725754443;08/09/24;00:14:03;1.011;0.014;0.124;0.0024434609804302454;-0.010995574295520782;0.0024434609804302454
01:00:0A:00:00:00:00;1725754444;08/09/24;00:14:04;1.011;0.013;0.123;0.0024434609804302454;-0.012217304669320583;0.0024434609804302454
01:00:0A:00:00:00:00;1725754445;08/09/24;00:14:05;1.011;0.014;0.122;0.0024434609804302454;-0.010995574295520782;0.0024434609804302454
01:00:0A:00:00:00:00;1725754446;08/09/24;00:14:06;1.012;0.013;0.124;0.0036651913542300463;-0.012217304669320583;0.0024434609804302454
01:00:0A:00:00:00:00;1725754447;08/09/24;00:14:07;1.011;0.013;0.124;0.0036651913542300463;-0.010995574295520782;0.0024434609804302454
01:00:0A:00:00:00:00;1725754448;08/09/24;00:14:08;1.011;0.013;0.124;0.0036651913542300463;-0.010995574295520782;0.0024434609804302454
01:00:0A:00:00:00:00;1725754449;08/09/24;00:14:09;1.012;0.013;0.124;0.0036651913542300463;-0.010995574295520782;0.0024434609804302454
01:00:0A:00:00:00:00;1725754450;08/09/24;00:14:10;1.012;0.013;0.123;0.0036651913542300463;-0.010995574295520782;0.0024434609804302454
01:00:0A:00:00:00:00;1725754451;08/09/24;00:14:11;1.012;0.013;0.123;0.0036651913542300463;-0.012217304669320583;0.0024434609804302454
01:00:0A:00:00:00:00;1725754452;08/09/24;00:14:12;1.01;0.013;0.125;0.0036651913542300463;-0.010995574295520782;0.0024434609804302454
01:00:0A:00:00:00:00;1725754453;08/09/24;00:14:13;1.012;0.013;0.124;0.0036651913542300463;-0.010995574295520782;0.0024434609804302454
01:00:0A:00:00:00:00;1725754454;08/09/24;00:14:14;1.012;0.013;0.124;0.0036651913542300463;-0.012217304669320583;0.0024434609804302454
01:00:0A:00:00:00:00;1725754455;08/09/24;00:14:15;1.011;0.013;0.123;0.0036651913542300463;-0.010995574295520782;0.0024434609804302454
01:00:0A:00:00:00:00;1725754456;08/09/24;00:14:16;1.011;0.013;0.123;0.0036651913542300463;-0.010995574295520782;0.0024434609804302454
01:00:0A:00:00:00:00;1725754457;08/09/24;00:14:17;1.011;0.012;0.124;0.0036651913542300463;-0.010995574295520782;0.0024434609804302454
01:00:0A:00:00:00:00;1725754458;08/09/24;00:14:18;1.011;0.014;0.124;0.0024434609804302454;-0.012217304669320583;0.0024434609804302454
01:00:0A:00:00:00:00;1725754459;08/09/24;00:14:19;1.012;0.014;0.123;0.0024434609804302454;-0.010995574295520782;0.0024434609804302454
01:00:0A:00:00:00:00;1725754460;08/09/24;00:14:20;1.011;0.014;0.123;0.0024434609804302454;-0.010995574295520782;0.0024434609804302454
01:00:0A:00:00:00:00;1725754461;08/09/24;00:14:21;1.012;0.012;0.123;0.0024434609804302454;-0.012217304669320583;0.0024434609804302454
01:00:0A:00:00:00:00;1725754462;08/09/24;00:14:22;1.012;0.013;0.124;0.0012217304902151227;-0.010995574295520782;0.0024434609804302454
01:00:0A:00:00:00:00;1725754463;08/09/24;00:14:23;1.011;0.013;0.124;0.0012217304902151227;-0.010995574295520782;0.0024434609804302454
01:00:0A:00:00:00:00;1725754464;08/09/24;00:14:24;1.011;0.014;0.123;0.0012217304902151227;-0.012217304669320583;0.0024434609804302454
01:00:0A:00:00:00:00;1725754465;08/09/24;00:14:25;1.011;0.012;0.123;0.0012217304902151227;-0.010995574295520782;0.0024434609804302454
01:00:0A:00:00:00:00;1725754466;08/09/24;00:14:26;1.012;0.013;0.123;0.0012217304902151227;-0.012217304669320583;0.0024434609804302454
01:00:0A:00:00:00:00;1725754467;08/09/24;00:14:27;1.012;0.014;0.124;0.0012217304902151227;-0.010995574295520782;0.0024434609804302454
01:00:0A:00:00:00:00;1725754468;08/09/24;00:14:28;1.01;0.013;0.124;0.0;-0.012217304669320583;0.0024434609804302454
01:00:0A:00:00:00:00;1725754469;08/09/24;00:14:29;1.011;0.013;0.123;0.0;-0.010995574295520782;0.0024434609804302454
01:00:0A:00:00:00:00;1725754470;08/09/24;00:14:30;1.012;0.013;0.123;0.0;-0.010995574295520782;0.0024434609804302454
01:00:0A:00:00:00:00;1725754471;08/09/24;00:14:31;1.01;0.014;0.123;0.0;-0.010995574295520782;0.0024434609804302454
01:00:0A:00:00:00:00;1725754472;08/09/24;00:14:32;1.011;0.013;0.123;0.0;-0.010995574295520782;0.0024434609804302454
01:00:0A:00:00:00:00;1725754473;08/09/24;00:14:33;1.01;0.012;0.123;0.0;-0.012217304669320583;0.0024434609804302454
01:00:0A:00:00:00:00;1725754474;08/09/24;00:14:34;1.012;0.014;0.123;-0.0012217304902151227;-0.010995574295520782;0.0024434609804302454
01:00:0A:00:00:00:00;1725754475;08/09/24;00:14:35;1.011;0.013;0.123;-0.0012217304902151227;-0.012217304669320583;0.0024434609804302454
01:00:0A:00:00:00:00;1725754476;08/09/24;00:14:36;1.012;0.012;0.124;-0.0012217304902151227;-0.010995574295520782;0.0024434609804302454
01:00:0A:00:00:00:00;1725754477;08/09/24;00:14:37;1.011;0.013;0.123;-0.0012217304902151227;-0.010995574295520782;0.0024434609804302454
01:00:0A:00:00:00:00;1725754478;08/09/24;00:14:38;1.011;0.013;0.124;-0.0012217304902151227;-0.012217304669320583;0.0024434609804302454
01:00:0A:00:00:00:00;1725754479;08/09/24;00:14:39;1.012;0.013;0.125;-0.0012217304902151227;-0.010995574295520782;0.0024434609804302454
01:00:0A:00:00:00:00;1725754480;08/09/24;00:14:40;1.01;0.014;0.124;-0.0012217304902151227;-0.012217304669320583;0.0012217304902151227
01:00:0A:00:00:00:00;1725754481;08/09/24;00:14:41;1.012;0.014;0.123;-0.0012217304902151227;-0.010995574295520782;0.0024434609804302454
01:00:0A:00:00:00:00;1725754482;08/09/24;00:14:42;1.012;0.014;0.123;-0.0012217304902151227;-0.012217304669320583;0.0024434609804302454
01:00:0A:00:00:00:00;1725754483;08/09/24;00:14:43;1.011;0.014;0.124;-0.0012217304902151227;-0.012217304669320583;0.0024434609804302454
01:00:0A:00:00:00:00;1725754484;08/09/24;00:14:44;1.012;0.014;0.123;-0.0012217304902151227;-0.010995574295520782;0.0024434609804302454
01:00:0A:00:00:00:00;1725754485;08/09/24;00:14:45;1.011;0.013;0.123;-0.0012217304902151227;-0.012217304669320583;0.0024434609804302454
01:00:0A:00:00:00:00;1725754486;08/09/24;00:14:46;1.013;0.013;0.123;-0.0012217304902151227;-0.010995574295520782;0.0024434609804302454
01:00:0A:00:00:00:00;1725754487;08/09/24;00:14:47;1.012;0.012;0.124;-0.0012217304902151227;-0.012217304669320583;0.0024434609804302454
01:00:0A:00:00:00:00;1725754488;08/09/24;00:14:48;1.012;0.013;0.124;-0.0012217304902151227;-0.012217304669320583;0.0024434609804302454
01:00:0A:00:00:00:00;1725754489;08/09/24;00:14:49;1.013;0.014;0.124;-0.0012217304902151227;-0.010995574295520782;0.0012217304902151227
01:00:0A:00:00:00:00;1725754490;08/09/24;00:14:50;1.012;0.014;0.124;-0.0012217304902151227;-0.012217304669320583;0.0024434609804302454
01:00:0A:00:00:00:00;1725754491;08/09/24;00:14:51;1.011;0.013;0.123;-0.0012217304902151227;-0.012217304669320583;0.0024434609804302454
01:00:0A:00:00:00:00;1725754492;08/09/24;00:14:52;1.011;0.013;0.123;-0.0012217304902151227;-0.012217304669320583;0.0024434609804302454
01:00:0A:00:00:00:00;1725754493;08/09/24;00:14:53;1.013;0.013;0.123;-0.0012217304902151227;-0.010995574295520782;0.0024434609804302454
01:00:0A:00:00:00:00;1725754494;08/09/24;00:14:54;1.012;0.014;0.124;0.0;-0.012217304669320583;0.0024434609804302454
01:00:0A:00:00:00:00;1725754495;08/09/24;00:14:55;1.012;0.013;0.123;-0.0012217304902151227;-0.012217304669320583;0.0024434609804302454
01:00:0A:00:00:00:00;1725754496;08/09/24;00:14:56;1.011;0.013;0.123;-0.0012217304902151227;-0.010995574295520782;0.0024434609804302454
01:00:0A:00:00:00:00;1725754497;08/09/24;00:14:57;1.012;0.013;0.123;0.0;-0.012217304669320583;0.0024434609804302454
01:00:0A:00:00:00:00;1725754498;08/09/24;00:14:58;1.012;0.012;0.124;0.0;-0.010995574295520782;0.0024434609804302454
01:00:0A:00:00:00:00;1725754499;08/09/24;00:14:59;1.012;0.013;0.123;-0.0012217304902151227;-0.010995574295520782;0.0024434609804302454
01:00:0A:00:00:00:00;1725754500;08/09/24;00:15:00;1.011;0.013;0.123;0.0;-0.012217304669320583;0.0024434609804302454
01:00:0A:00:00:00:00;1725754501;08/09/24;00:15:01;1.011;0.014;0.122;0.0;-0.010995574295520782;0.0024434609804302454
01:00:0A:00:00:00:00;1725754502;08/09/24;00:15:02;1.012;0.013;0.123;0.0;-0.012217304669320583;0.0024434609804302454
01:00:0A:00:00:00:00;1725754503;08/09/24;00:15:03;1.011;0.014;0.123;0.0;-0.012217304669320583;0.0024434609804302454
01:00:0A:00:00:00:00;1725754504;08/09/24;00:15:04;1.011;0.013;0.124;0.0;-0.010995574295520782;0.0024434609804302454
01:00:0A:00:00:00:00;1725754505;08/09/24;00:15:05;1.01;0.013;0.125;0.0;-0.010995574295520782;0.0024434609804302454
01:00:0A:00:00:00:00;1725754506;08/09/24;00:15:06;1.011;0.012;0.123;0.0;-0.012217304669320583;0.0024434609804302454
01:00:0A:00:00:00:00;1725754507;08/09/24;00:15:07;1.011;0.014;0.124;0.0;-0.010995574295520782;0.0024434609804302454
01:00:0A:00:00:00:00;1725754508;08/09/24;00:15:08;1.012;0.013;0.123;0.0;-0.010995574295520782;0.0024434609804302454
01:00:0A:00:00:00:00;1725754509;08/09/24;00:15:09;1.01;0.013;0.124;0.0;-0.012217304669320583;0.0024434609804302454
01:00:0A:00:00:00:00;1725754510;08/09/24;00:15:10;1.011;0.014;0.124;0.0;-0.010995574295520782;0.0024434609804302454
01:00:0A:00:00:00:00;1725754511;08/09/24;00:15:11;1.011;0.013;0.124;0.0;-0.012217304669320583;0.0024434609804302454
01:00:0A:00:00:00:00;1725754512;08/09/24;00:15:12;1.012;0.013;0.124;0.0;-0.010995574295520782;0.0024434609804302454
01:00:0A:00:00:00:00;1725754513;08/09/24;00:15:13;1.011;0.013;0.124;0.0;-0.010995574295520782;0.0024434609804302454
01:00:0A:00:00:00:00;1725754514;08/09/24;00:15:14;1.011;0.013;0.124;0.0;-0.012217304669320583;0.0024434609804302454
01:00:0A:00:00:00:00;1725754515;08/09/24;00:15:15;1.011;0.014;0.123;0.0;-0.012217304669320583;0.0024434609804302454
01:00:0A:00:00:00:00;1725754516;08/09/24;00:15:16;1.01;0.013;0.124;0.0;-0.012217304669320583;0.0024434609804302454
01:00:0A:00:00:00:00;1725754517;08/09/24;00:15:17;1.011;0.014;0.124;0.0;-0.010995574295520782;0.0024434609804302454
01:00:0A:00:00:00:00;1725754518;08/09/24;00:15:18;1.011;0.012;0.124;0.0;-0.012217304669320583;0.0024434609804302454
01:00:0A:00:00:00:00;1725754519;08/09/24;00:15:19;1.011;0.012;0.123;0.0;-0.010995574295520782;0.0024434609804302454
01:00:0A:00:00:00:00;1725754520;08/09/24;00:15:20;1.011;0.012;0.124;0.0;-0.010995574295520782;0.0024434609804302454
01:00:0A:00:00:00:00;1725754521;08/09/24;00:15:21;1.012;0.013;0.123;0.0;-0.012217304669320583;0.0024434609804302454
01:00:0A:00:00:00:00;1725754522;08/09/24;00:15:22;1.01;0.014;0.124;0.0;-0.010995574295520782;0.0024434609804302454
01:00:0A:00:00:00:00;1725754523;08/09/24;00:15:23;1.012;0.013;0.124;0.0;-0.010995574295520782;0.0024434609804302454
01:00:0A:00:00:00:00;1725754524;08/09/24;00:15:24;1.012;0.013;0.124;-0.0012217304902151227;-0.012217304669320583;0.0024434609804302454
01:00:0A:00:00:00:00;1725754525;08/09/24;00:15:25;1.012;0.013;0.124;-0.0012217304902151227;-0.012217304669320583;0.0024434609804302454
01:00:0A:00:00:00:00;1725754526;08/09/24;00:15:26;1.011;0.015;0.125;0.0;-0.010995574295520782;0.0024434609804302454
01:00:0A:00:00:00:00;1725754527;08/09/24;00:15:27;1.012;0.014;0.125;-0.0012217304902151227;-0.010995574295520782;0.0024434609804302454
01:00:0A:00:00:00:00;1725754528;08/09/24;00:15:28;1.011;0.014;0.124;0.0;-0.012217304669320583;0.0024434609804302454
01:00:0A:00:00:00:00;1725754529;08/09/24;00:15:29;1.011;0.013;0.124;-0.0012217304902151227;-0.012217304669320583;0.0024434609804302454
01:00:0A:00:00:00:00;1725754530;08/09/24;00:15:30;1.011;0.013;0.124;0.0;-0.012217304669320583;0.0024434609804302454
01:00:0A:00:00:00:00;1725754531;08/09/24;00:15:31;1.012;0.013;0.124;-0.0012217304902151227;-0.010995574295520782;0.0024434609804302454
01:00:0A:00:00:00:00;1725754532;08/09/24;00:15:32;1.011;0.014;0.124;-0.0012217304902151227;-0.010995574295520782;0.0024434609804302454
01:00:0A:00:00:00:00;1725754533;08/09/24;00:15:33;1.011;0.013;0.124;0.0;-0.012217304669320583;0.0024434609804302454
01:00:0A:00:00:00:00;1725754534;08/09/24;00:15:34;1.01;0.014;0.123;-0.0012217304902151227;-0.010995574295520782;0.0024434609804302454
01:00:0A:00:00:00:00;1725754535;08/09/24;00:15:35;1.011;0.015;0.125;-0.0012217304902151227;-0.012217304669320583;0.0024434609804302454
01:00:0A:00:00:00:00;1725754536;08/09/24;00:15:36;1.011;0.013;0.124;-0.0012217304902151227;-0.012217304669320583;0.0024434609804302454
01:00:0A:00:00:00:00;1725754537;08/09/24;00:15:37;1.012;0.013;0.124;-0.0012217304902151227;-0.012217304669320583;0.0024434609804302454
01:00:0A:00:00:00:00;1725754538;08/09/24;00:15:38;1.011;0.014;0.124;-0.0012217304902151227;-0.012217304669320583;0.0024434609804302454
01:00:0A:00:00:00:00;1725754539;08/09/24;00:15:39;1.012;0.013;0.124;-0.0012217304902151227;-0.012217304669320583;0.0024434609804302454
01:00:0A:00:00:00:00;1725754540;08/09/24;00:15:40;1.012;0.013;0.124;-0.0012217304902151227;-0.012217304669320583;0.0024434609804302454
