Source;Epoch timestamp (UTC);Date;Time (UTC);Accel X (G);Accel Y (G);Accel Z (G);Gyro X (rad/s);Gyro Y (rad/s);Gyro Z (rad/s)
01:00:0A:00:00:00:00;1722988798;06/08/24;23:59:58;1.005;-0.021;0.11;-0.02932153083384037;-0.00855211354792118;0.01710422709584236
01:00:0A:00:00:00:00;1722988799;06/08/24;23:59:59;1.01;-0.018;0.111;-0.01710422709584236;-0.02321287989616394;-0.015882495790719986
01:00:0A:00:00:00:00;1722988800;07/08/24;00:00:00;1.013;-0.007;0.115;-0.02932153083384037;-0.012217304669320583;0.01710422709584236
01:00:0A:00:00:00:00;1722988801;07/08/24;00:00:01;1.014;-0.02;0.114;-0.021991148591041565;-0.0024434609804302454;-0.0012217304902151227
01:00:0A:00:00:00:00;1722988802;07/08/24;00:00:02;1.012;-0.006;0.108;-0.02321287989616394;-0.006108652334660292;-0.0036651913542300463
01:00:0A:00:00:00:00;1722988803;07/08/24;00:00:03;1.014;-0.02;0.108;-0.024434609338641167;-0.024434609338641167;-0.004886921960860491
01:00:0A:00:00:00:00;1722988804;07/08/24;00:00:04;1.017;-0.01;0.117;-0.021991148591041565;-0.01710422709584236;-0.0073303827084600925
01:00:0A:00:00:00:00;1722988805;07/08/24;00:00:05;1.017;-0.021;0.118;-0.02932153083384037;-0.006108652334660292;0.013439035043120384
01:00:0A:00:00:00:00;1722988806;07/08/24;00:00:06;1.011;-0.012;0.113;-0.021991148591041565;0.0036651913542300463;-0.006108652334660292
01:00:0A:00:00:00:00;1722988807;07/08/24;00:00:07;1.005;-0.011;0.11;-0.03420845419168472;-0.00855211354792118;0.02321287989616394
01:00:0A:00:00:00:00;1722988808;07/08/24;00:00:08;1.006;-0.016;0.106;-0.021991148591041565;-0.018325956538319588;-0.015882495790719986
01:00:0A:00:00:00:00;1722988809;07/08/24;00:00:09;1.01;-0.005;0.116;-0.03176499158143997;-0.021991148591041565;0.0024434609804302454
01:00:0A:00:00:00:00;1722988810;07/08/24;00:00:10;1.013;-0.024;0.113;-0.030543262138962746;-0.012217304669320583;0.0024434609804302454
01:00:0A:00:00:00:00;1722988811;07/08/24;00:00:11;1.012;-0.01;0.115;-0.024434609338641167;-0.0073303827084600925;-0.0073303827084600925
01:00:0A:00:00:00:00;1722988812;07/08/24;00:00:12;1.015;-0.016;0.109;-0.036651913076639175;-0.02321287989616394;0.021991148591041565
01:00:0A:00:00:00:00;1722988813;07/08/24;00:00:13;1.016;-0.016;0.115;-0.02321287989616394;-0.006108652334660292;-0.012217304669320583
01:00:0A:00:00:00:00;1722988814;07/08/24;00:00:14;1.016;-0.005;0.119;-0.03176499158143997;-0.015882495790719986;0.00855211354792118
01:00:0A:00:00:00:00;1722988815;07/08/24;00:00:15;1.013;-0.021;0.111;-0.02932153083384037;-0.006108652334660292;0.004886921960860491
01:00:0A:00:00:00:00;1722988816;07/08/24;00:00:16;1.011;-0.01;0.114;-0.024434609338641167;-0.0024434609804302454;-0.0073303827084600925
01:00:0A:00:00:00:00;1722988817;07/08/24;00:00:17;1.01;-0.02;0.109;-0.02932153083384037;-0.012217304669320583;0.0073303827084600925
01:00:0A:00:00:00:00;1722988818;07/08/24;00:00:18;1.009;-0.013;0.114;-0.02321287989616394;-0.010995574295520782;-0.006108652334660292
01:00:0A:00:00:00:00;1722988819;07/08/24;00:00:19;1.009;-0.015;0.113;-0.03176499158143997;-0.015882495790719986;0.019547687843441963
01:00:0A:00:00:00:00;1722988820;07/08/24;00:00:20;1.009;-0.012;0.112;-0.02076941914856434;-0.0036651913542300463;-0.009773843921720982
01:00:0A:00:00:00:00;1722988821;07/08/24;00:00:21;1.011;-0.01;0.114;-0.02687807008624077;-0.019547687843441963;0.004886921960860491
01:00:0A:00:00:00:00;1722988822;07/08/24;00:00:22;1.017;-0.023;0.111;-0.02076941914856434;-0.010995574295520782;-0.006108652334660292
01:00:0A:00:00:00:00;1722988823;07/08/24;00:00:23;1.017;-0.009;0.119;-0.02321287989616394;-0.006108652334660292;0.0012217304902151227
01:00:0A:00:00:00:00;1722988824;07/08/24;00:00:24;1.016;-0.021;0.111;-0.028099799528717995;-0.013439035043120384;0.01710422709584236
01:00:0A:00:00:00:00;1722988825;07/08/24;00:00:25;1.011;-0.012;0.115;-0.01710422709584236;0.0036651913542300463;-0.0024434609804302454
01:00:0A:00:00:00:00;1722988826;07/08/24;00:00:26;1.008;-0.013;0.113;-0.024434609338641167;-0.019547687843441963;0.009773843921720982
01:00:0A:00:00:00:00;1722988827;07/08/24;00:00:27;1.01;-0.016;0.111;-0.014660765416920185;-0.0036651913542300463;-0.00855211354792118
01:00:0A:00:00:00:00;1722988828;07/08/24;00:00:28;1.012;-0.012;0.119;-0.019547687843441963;-0.015882495790719986;0.0036651913542300463
01:00:0A:00:00:00:00;1722988829;07/08/24;00:00:29;1.012;-0.019;0.107;-0.018325956538319588;-0.012217304669320583;0.006108652334660292
01:00:0A:00:00:00:00;1722988830;07/08/24;00:00:30;1.012;-0.013;0.116;-0.014660765416920185;-0.009773843921720982;-0.0012217304902151227
01:00:0A:00:00:00:00;1722988831;07/08/24;00:00:31;1.012;-0.016;0.112;-0.019547687843441963;-0.021991148591041565;0.00855211354792118
01:00:0A:00:00:00:00;1722988832;07/08/24;00:00:32;1.011;-0.013;0.114;-0.013439035043120384;-0.004886921960860491;-0.0024434609804302454
01:00:0A:00:00:00:00;1722988833;07/08/24;00:00:33;1.013;-0.015;0.114;-0.018325956538319588;-0.02076941914856434;0.006108652334660292
01:00:0A:00:00:00:00;1722988834;07/08/24;00:00:34;1.016;-0.018;0.11;-0.012217304669320583;-0.0024434609804302454;-0.0036651913542300463
01:00:0A:00:00:00:00;1722988835;07/08/24;00:00:35;1.014;-0.01;0.116;-0.014660765416920185;-0.010995574295520782;0.0024434609804302454
01:00:0A:00:00:00:00;1722988836;07/08/24;00:00:36;1.014;-0.02;0.106;-0.014660765416920185;-0.009773843921720982;0.006108652334660292
01:00:0A:00:00:00:00;1722988837;07/08/24;00:00:37;1.008;-0.012;0.116;-0.012217304669320583;-0.006108652334660292;0.0
01:00:0A:00:00:00:00;1722988838;07/08/24;00:00:38;1.009;-0.014;0.109;-0.019547687843441963;-0.02321287989616394;0.00855211354792118
01:00:0A:00:00:00:00;1722988839;07/08/24;00:00:39;1.012;-0.015;0.113;-0.009773843921720982;-0.0012217304902151227;-0.00855211354792118
01:00:0A:00:00:00:00;1722988840;07/08/24;00:00:40;1.015;-0.013;0.116;-0.01710422709584236;-0.014660765416920185;0.006108652334660292
01:00:0A:00:00:00:00;1722988841;07/08/24;00:00:41;1.015;-0.017;0.108;-0.013439035043120384;-0.004886921960860491;0.0012217304902151227
01:00:0A:00:00:00:00;1722988842;07/08/24;00:00:42;1.01;-0.01;0.118;-0.014660765416920185;-0.013439035043120384;0.0024434609804302454
01:00:0A:00:00:00:00;1722988843;07/08/24;00:00:43;1.012;-0.018;0.109;-0.015882495790719986;-0.01710422709584236;0.004886921960860491
01:00:0A:00:00:00:00;1722988844;07/08/24;00:00:44;1.012;-0.012;0.117;-0.012217304669320583;-0.0012217304902151227;-0.0024434609804302454
01:00:0A:00:00:00:00;1722988845;07/08/24;00:00:45;1.014;-0.015;0.113;-0.015882495790719986;-0.01710422709584236;0.0036651913542300463
01:00:0A:00:00:00:00;1722988846;07/08/24;00:00:46;1.012;-0.014;0.111;-0.013439035043120384;-0.0024434609804302454;0.0
01:00:0A:00:00:00:00;1722988847;07/08/24;00:00:47;1.012;-0.015;0.114;-0.018325956538319588;-0.018325956538319588;0.006108652334660292
01:00:0A:00:00:00:00;1722988848;07/08/24;00:00:48;1.012;-0.017;0.108;-0.013439035043120384;-0.00855211354792118;-0.0012217304902151227
01:00:0A:00:00:00:00;1722988849;07/08/24;00:00:49;1.011;-0.013;0.12;-0.01710422709584236;-0.010995574295520782;0.004886921960860491
01:00:0A:00:00:00:00;1722988850;07/08/24;00:00:50;1.011;-0.015;0.108;-0.018325956538319588;-0.018325956538319588;0.0036651913542300463
01:00:0A:00:00:00:00;1722988851;07/08/24;00:00:51;1.01;-0.013;0.114;-0.015882495790719986;-0.0024434609804302454;-0.0012217304902151227
01:00:0A:00:00:00:00;1722988852;07/08/24;00:00:52;1.013;-0.014;0.11;-0.02076941914856434;-0.025656338781118393;0.0012217304902151227
01:00:0A:00:00:00:00;1722988853;07/08/24;00:00:53;1.016;-0.015;0.109;-0.018325956538319588;-0.004886921960860491;0.0024434609804302454
01:00:0A:00:00:00:00;1722988854;07/08/24;00:00:54;1.014;-0.012;0.119;-0.02076941914856434;-0.014660765416920185;0.0
01:00:0A:00:00:00:00;1722988855;07/08/24;00:00:55;1.012;-0.016;0.107;-0.02321287989616394;-0.010995574295520782;0.004886921960860491
01:00:0A:00:00:00:00;1722988856;07/08/24;00:00:56;1.008;-0.012;0.116;-0.02076941914856434;-0.00855211354792118;-0.0024434609804302454
01:00:0A:00:00:00:00;1722988857;07/08/24;00:00:57;1.012;-0.014;0.11;-0.024434609338641167;-0.018325956538319588;0.0012217304902151227
01:00:0A:00:00:00:00;1722988858;07/08/24;00:00:58;1.016;-0.015;0.115;-0.021991148591041565;0.0;0.0
01:00:0A:00:00:00:00;1722988859;07/08/24;00:00:59;1.014;-0.014;0.114;-0.025656338781118393;-0.01710422709584236;0.0036651913542300463
01:00:0A:00:00:00:00;1722988860;07/08/24;00:01:00;1.01;-0.014;0.109;-0.024434609338641167;-0.006108652334660292;0.0012217304902151227
01:00:0A:00:00:00:00;1722988861;07/08/24;00:01:01;1.007;-0.015;0.116;-0.025656338781118393;-0.01710422709584236;0.0024434609804302454
01:00:0A:00:00:00:00;1722988862;07/08/24;00:01:02;1.013;-0.014;0.11;-0.024434609338641167;-0.009773843921720982;0.0
01:00:0A:00:00:00:00;1722988863;07/08/24;00:01:03;1.013;-0.014;0.12;-0.025656338781118393;-0.010995574295520782;0.0012217304902151227
01:00:0A:00:00:00:00;1722988864;07/08/24;00:01:04;1.015;-0.014;0.109;-0.025656338781118393;-0.018325956538319588;0.0012217304902151227
01:00:0A:00:00:00:00;1722988865;07/08/24;00:01:05;1.011;-0.013;0.113;-0.025656338781118393;0.0012217304902151227;0.0036651913542300463
01:00:0A:00:00:00:00;1722988866;07/08/24;00:01:06;1.012;-0.014;0.114;-0.025656338781118393;-0.02321287989616394;-0.0024434609804302454
01:00:0A:00:00:00:00;1722988867;07/08/24;00:01:07;1.014;-0.014;0.109;-0.025656338781118393;-0.00855211354792118;0.0024434609804302454
01:00:0A:00:00:00:00;1722988868;07/08/24;00:01:08;1.012;-0.016;0.12;-0.025656338781118393;-0.012217304669320583;0.0024434609804302454
01:00:0A:00:00:00:00;1722988869;07/08/24;00:01:09;1.012;-0.012;0.109;-0.025656338781118393;-0.014660765416920185;-0.0012217304902151227
01:00:0A:00:00:00:00;1722988870;07/08/24;00:01:10;1.011;-0.015;0.114;-0.025656338781118393;-0.006108652334660292;0.0036651913542300463
01:00:0A:00:00:00:00;1722988871;07/08/24;00:01:11;1.014;-0.013;0.112;-0.024434609338641167;-0.02076941914856434;-0.004886921960860491
01:00:0A:00:00:00:00;1722988872;07/08/24;00:01:12;1.014;-0.015;0.114;-0.025656338781118393;-0.006108652334660292;0.004886921960860491
01:00:0A:00:00:00:00;1722988873;07/08/24;00:01:13;1.013;-0.017;0.115;-0.02321287989616394;-0.01710422709584236;-0.0024434609804302454
01:00:0A:00:00:00:00;1722988874;07/08/24;00:01:14;1.011;-0.01;0.109;-0.024434609338641167;-0.009773843921720982;0.0036651913542300463
01:00:0A:00:00:00:00;1722988875;07/08/24;00:01:15;1.011;-0.016;0.115;-0.02321287989616394;-0.010995574295520782;-0.0012217304902151227
01:00:0A:00:00:00:00;1722988876;07/08/24;00:01:16;1.015;-0.013;0.11;-0.024434609338641167;-0.014660765416920185;0.0012217304902151227
01:00:0A:00:00:00:00;1722988877;07/08/24;00:01:17;1.015;-0.017;0.117;-0.02321287989616394;-0.006108652334660292;0.0036651913542300463
01:00:0A:00:00:00:00;1722988878;07/08/24;00:01:18;1.012;-0.013;0.112;-0.021991148591041565;-0.018325956538319588;-0.0036651913542300463
01:00:0A:00:00:00:00;1722988879;07/08/24;00:01:19;1.01;-0.014;0.111;-0.024434609338641167;-0.0012217304902151227;0.009773843921720982
01:00:0A:00:00:00:00;1722988880;07/08/24;00:01:20;1.011;-0.016;0.117;-0.02076941914856434;-0.015882495790719986;-0.0024434609804302454
01:00:0A:00:00:00:00;1722988881;07/08/24;00:01:21;1.014;-0.011;0.109;-0.02321287989616394;-0.009773843921720982;0.0036651913542300463
01:00:0A:00:00:00:00;1722988882;07/08/24;00:01:22;1.013;-0.018;0.118;-0.021991148591041565;-0.009773843921720982;0.004886921960860491
01:00:0A:00:00:00:00;1722988883;07/08/24;00:01:23;1.012;-0.011;0.111;-0.019547687843441963;-0.015882495790719986;-0.0024434609804302454
01:00:0A:00:00:00:00;1722988884;07/08/24;00:01:24;1.011;-0.015;0.114;-0.02321287989616394;-0.004886921960860491;0.0073303827084600925
01:00:0A:00:00:00:00;1722988885;07/08/24;00:01:25;1.012;-0.016;0.113;-0.019547687843441963;-0.018325956538319588;-0.0024434609804302454
01:00:0A:00:00:00:00;1722988886;07/08/24;00:01:26;1.012;-0.013;0.114;-0.021991148591041565;-0.00855211354792118;0.006108652334660292
01:00:0A:00:00:00:00;1722988887;07/08/24;00:01:27;1.013;-0.018;0.115;-0.018325956538319588;-0.014660765416920185;-0.0012217304902151227
01:00:0A:00:00:00:00;1722988888;07/08/24;00:01:28;1.013;-0.01;0.109;-0.019547687843441963;-0.009773843921720982;0.0036651913542300463
01:00:0A:00:00:00:00;1722988889;07/08/24;00:01:29;1.012;-0.018;0.115;-0.02076941914856434;-0.009773843921720982;0.006108652334660292
01:00:0A:00:00:00:00;1722988890;07/08/24;00:01:30;1.012;-0.013;0.112;-0.015882495790719986;-0.014660765416920185;-0.006108652334660292
01:00:0A:00:00:00:00;1722988891;07/08/24;00:01:31;1.01;-0.016;0.114;-0.019547687843441963;-0.009773843921720982;0.0073303827084600925
01:00:0A:00:00:00:00;1722988892;07/08/24;00:01:32;1.011;-0.015;0.113;-0.014660765416920185;-0.014660765416920185;-0.004886921960860491
01:00:0A:00:00:00:00;1722988893;07/08/24;00:01:33;1.012;-0.012;0.112;-0.02076941914856434;-0.0073303827084600925;0.010995574295520782
01:00:0A:00:00:00:00;1722988894;07/08/24;00:01:34;1.014;-0.018;0.115;-0.015882495790719986;-0.012217304669320583;0.0
01:00:0A:00:00:00:00;1722988895;07/08/24;00:01:35;1.014;-0.01;0.112;-0.015882495790719986;-0.013439035043120384;0.0012217304902151227
01:00:0A:00:00:00:00;1722988896;07/08/24;00:01:36;1.012;-0.017;0.114;-0.01710422709584236;-0.00855211354792118;0.004886921960860491
01:00:0A:00:00:00:00;1722988897;07/08/24;00:01:37;1.012;-0.012;0.112;-0.013439035043120384;-0.014660765416920185;-0.0036651913542300463
01:00:0A:00:00:00:00;1722988898;07/08/24;00:01:38;1.011;-0.015;0.113;-0.018325956538319588;-0.00855211354792118;0.012217304669320583
01:00:0A:00:00:00:00;1722988899;07/08/24;00:01:39;1.012;-0.016;0.114;-0.013439035043120384;-0.013439035043120384;-0.0012217304902151227
01:00:0A:00:00:00:00;1722988900;07/08/24;00:01:40;1.014;-0.011;0.112;-0.015882495790719986;-0.010995574295520782;0.006108652334660292
01:00:0A:00:00:00:00;1722988901;07/08/24;00:01:41;1.013;-0.018;0.115;-0.013439035043120384;-0.012217304669320583;0.0
01:00:0A:00:00:00:00;1722988902;07/08/24;00:01:42;1.014;-0.012;0.112;-0.014660765416920185;-0.012217304669320583;0.0012217304902151227
01:00:0A:00:00:00:00;1722988903;07/08/24;00:01:43;1.011;-0.02;0.114;-0.015882495790719986;-0.009773843921720982;0.009773843921720982
01:00:0A:00:00:00:00;1722988904;07/08/24;00:01:44;1.012;-0.014;0.112;-0.010995574295520782;-0.014660765416920185;-0.0036651913542300463
01:00:0A:00:00:00:00;1722988905;07/08/24;00:01:45;1.013;-0.015;0.113;-0.015882495790719986;-0.009773843921720982;0.00855211354792118
01:00:0A:00:00:00:00;1722988906;07/08/24;00:01:46;1.012;-0.015;0.113;-0.010995574295520782;-0.014660765416920185;-0.0024434609804302454
01:00:0A:00:00:00:00;1722988907;07/08/24;00:01:47;1.014;-0.012;0.113;-0.014660765416920185;-0.009773843921720982;0.0073303827084600925
01:00:0A:00:00:00:00;1722988908;07/08/24;00:01:48;1.012;-0.02;0.113;-0.013439035043120384;-0.012217304669320583;0.0024434609804302454
01:00:0A:00:00:00:00;1722988909;07/08/24;00:01:49;1.011;-0.012;0.112;-0.010995574295520782;-0.012217304669320583;-0.0036651913542300463
01:00:0A:00:00:00:00;1722988910;07/08/24;00:01:50;1.011;-0.016;0.112;-0.014660765416920185;-0.013439035043120384;0.009773843921720982
01:00:0A:00:00:00:00;1722988911;07/08/24;00:01:51;1.012;-0.015;0.112;-0.010995574295520782;-0.012217304669320583;-0.0036651913542300463
01:00:0A:00:00:00:00;1722988912;07/08/24;00:01:52;1.015;-0.012;0.113;-0.014660765416920185;-0.012217304669320583;0.00855211354792118
01:00:0A:00:00:00:00;1722988913;07/08/24;00:01:53;1.012;-0.017;0.113;-0.009773843921720982;-0.009773843921720982;-0.0024434609804302454
01:00:0A:00:00:00:00;1722988914;07/08/24;00:01:54;1.011;-0.012;0.113;-0.012217304669320583;-0.010995574295520782;0.0024434609804302454
01:00:0A:00:00:00:00;1722988915;07/08/24;00:01:55;1.011;-0.018;0.112;-0.010995574295520782;-0.012217304669320583;0.0024434609804302454
01:00:0A:00:00:00:00;1722988916;07/08/24;00:01:56;1.013;-0.011;0.114;-0.010995574295520782;-0.013439035043120384;0.0
01:00:0A:00:00:00:00;1722988917;07/08/24;00:01:57;1.014;-0.016;0.112;-0.013439035043120384;-0.009773843921720982;0.010995574295520782
01:00:0A:00:00:00:00;1722988918;07/08/24;00:01:58;1.012;-0.013;0.114;-0.0073303827084600925;-0.010995574295520782;-0.004886921960860491
01:00:0A:00:00:00:00;1722988919;07/08/24;00:01:59;1.011;-0.012;0.111;-0.012217304669320583;-0.012217304669320583;0.0073303827084600925
01:00:0A:00:00:00:00;1722988920;07/08/24;00:02:00;1.011;-0.018;0.112;-0.00855211354792118;-0.010995574295520782;-0.0012217304902151227
01:00:0A:00:00:00:00;1722988921;07/08/24;00:02:01;1.013;-0.012;0.112;-0.010995574295520782;-0.012217304669320583;0.004886921960860491
01:00:0A:00:00:00:00;1722988922;07/08/24;00:02:02;1.013;-0.02;0.113;-0.009773843921720982;-0.010995574295520782;0.004886921960860491
01:00:0A:00:00:00:00;1722988923;07/08/24;00:02:03;1.011;-0.011;0.112;-0.006108652334660292;-0.012217304669320583;-0.0024434609804302454
01:00:0A:00:00:00:00;1722988924;07/08/24;00:02:04;1.012;-0.016;0.112;-0.012217304669320583;-0.012217304669320583;0.009773843921720982
01:00:0A:00:00:00:00;1722988925;07/08/24;00:02:05;1.012;-0.018;0.113;-0.006108652334660292;-0.012217304669320583;-0.004886921960860491
01:00:0A:00:00:00:00;1722988926;07/08/24;00:02:06;1.012;-0.013;0.113;-0.009773843921720982;-0.009773843921720982;0.006108652334660292
01:00:0A:00:00:00:00;1722988927;07/08/24;00:02:07;1.012;-0.018;0.111;-0.006108652334660292;-0.010995574295520782;0.0
01:00:0A:00:00:00:00;1722988928;07/08/24;00:02:08;1.01;-0.012;0.113;-0.0073303827084600925;-0.012217304669320583;0.0012217304902151227
01:00:0A:00:00:00:00;1722988929;07/08/24;00:02:09;1.012;-0.018;0.112;-0.00855211354792118;-0.014660765416920185;0.006108652334660292
01:00:0A:00:00:00:00;1722988930;07/08/24;00:02:10;1.015;-0.013;0.114;-0.004886921960860491;-0.009773843921720982;-0.0024434609804302454
01:00:0A:00:00:00:00;1722988931;07/08/24;00:02:11;1.013;-0.015;0.114;-0.00855211354792118;-0.010995574295520782;0.00855211354792118
01:00:0A:00:00:00:00;1722988932;07/08/24;00:02:12;1.011;-0.015;0.115;0.0036651913542300463;0.0073303827084600925;-0.004886921960860491
01:00:0A:00:00:00:00;1722988933;07/08/24;00:02:13;1.01;-0.007;0.129;0.009773843921720982;-0.009773843921720982;0.0073303827084600925
01:00:0A:00:00:00:00;1722988934;07/08/24;00:02:14;1.013;-0.012;0.124;0.025656338781118393;-0.02076941914856434;0.006108652334660292
01:00:0A:00:00:00:00;1722988935;07/08/24;00:02:15;1.013;-0.01;0.117;0.012217304669320583;-0.02321287989616394;0.013439035043120384
01:00:0A:00:00:00:00;1722988936;07/08/24;00:02:16;1.013;-0.022;0.106;0.015882495790719986;-0.00855211354792118;0.0073303827084600925
01:00:0A:00:00:00:00;1722988937;07/08/24;00:02:17;1.011;-0.009;0.117;0.02076941914856434;0.0;-0.00855211354792118
01:00:0A:00:00:00:00;1722988938;07/08/24;00:02:18;1.01;-0.014;0.114;0.0036651913542300463;-0.025656338781118393;0.019547687843441963
01:00:0A:00:00:00:00;1722988939;07/08/24;00:02:19;1.014;-0.021;0.109;0.014660765416920185;-0.00855211354792118;-0.0036651913542300463
01:00:0A:00:00:00:00;1722988940;07/08/24;00:02:20;1.012;-0.009;0.118;0.010995574295520782;-0.006108652334660292;0.004886921960860491
01:00:0A:00:00:00:00;1722988941;07/08/24;00:02:21;1.013;-0.018;0.114;0.0036651913542300463;-0.019547687843441963;0.012217304669320583
01:00:0A:00:00:00:00;1722988942;07/08/24;00:02:22;1.013;-0.014;0.109;0.009773843921720982;-0.009773843921720982;-0.0024434609804302454
01:00:0A:00:00:00:00;1722988943;07/08/24;00:02:23;1.012;-0.013;0.118;0.006108652334660292;-0.006108652334660292;0.006108652334660292
01:00:0A:00:00:00:00;1722988944;07/08/24;00:02:24;1.012;-0.016;0.114;0.0036651913542300463;-0.018325956538319588;0.0036651913542300463
01:00:0A:00:00:00:00;1722988945;07/08/24;00:02:25;1.013;-0.017;0.109;0.004886921960860491;-0.00855211354792118;0.006108652334660292
01:00:0A:00:00:00:00;1722988946;07/08/24;00:02:26;1.011;-0.014;0.116;0.006108652334660292;-0.0073303827084600925;-0.0024434609804302454
01:00:0A:00:00:00:00;1722988947;07/08/24;00:02:27;1.013;-0.012;0.113;-0.0024434609804302454;-0.018325956538319588;0.012217304669320583
01:00:0A:00:00:00:00;1722988948;07/08/24;00:02:28;1.012;-0.02;0.11;0.0036651913542300463;-0.010995574295520782;0.0024434609804302454
01:00:0A:00:00:00:00;1722988949;07/08/24;00:02:29;1.013;-0.01;0.116;0.0024434609804302454;-0.006108652334660292;-0.0012217304902151227
01:00:0A:00:00:00:00;1722988950;07/08/24;00:02:30;1.011;-0.016;0.114;-0.0036651913542300463;-0.01710422709584236;0.010995574295520782
01:00:0A:00:00:00:00;1722988951;07/08/24;00:02:31;1.011;-0.014;0.109;0.0036651913542300463;-0.00855211354792118;-0.0036651913542300463
01:00:0A:00:00:00:00;1722988952;07/08/24;00:02:32;1.011;-0.012;0.116;-0.0036651913542300463;-0.010995574295520782;0.009773843921720982
01:00:0A:00:00:00:00;1722988953;07/08/24;00:02:33;1.013;-0.019;0.113;-0.0024434609804302454;-0.014660765416920185;0.0024434609804302454
01:00:0A:00:00:00:00;1722988954;07/08/24;00:02:34;1.014;-0.011;0.113;-0.0012217304902151227;-0.009773843921720982;0.0012217304902151227
01:00:0A:00:00:00:00;1722988955;07/08/24;00:02:35;1.013;-0.016;0.114;-0.0036651913542300463;-0.009773843921720982;0.006108652334660292
01:00:0A:00:00:00:00;1722988956;07/08/24;00:02:36;1.012;-0.013;0.112;-0.0036651913542300463;-0.013439035043120384;0.0012217304902151227
01:00:0A:00:00:00:00;1722988957;07/08/24;00:02:37;1.012;-0.015;0.111;-0.004886921960860491;-0.010995574295520782;0.0073303827084600925
01:00:0A:00:00:00:00;1722988958;07/08/24;00:02:38;1.012;-0.015;0.114;-0.0024434609804302454;-0.00855211354792118;-0.0012217304902151227
01:00:0A:00:00:00:00;1722988959;07/08/24;00:02:39;1.013;-0.012;0.114;-0.0073303827084600925;-0.015882495790719986;0.00855211354792118
01:00:0A:00:00:00:00;1722988960;07/08/24;00:02:40;1.012;-0.017;0.111;-0.0036651913542300463;-0.009773843921720982;0.0
01:00:0A:00:00:00:00;1722988961;07/08/24;00:02:41;1.011;-0.01;0.115;-0.006108652334660292;-0.010995574295520782;0.0036651913542300463
01:00:0A:00:00:00:00;1722988962;07/08/24;00:02:42;1.011;-0.018;0.113;-0.0073303827084600925;-0.013439035043120384;0.0073303827084600925
01:00:0A:00:00:00:00;1722988963;07/08/24;00:02:43;1.012;-0.013;0.113;-0.0024434609804302454;-0.009773843921720982;-0.004886921960860491
01:00:0A:00:00:00:00;1722988964;07/08/24;00:02:44;1.013;-0.012;0.114;-0.00855211354792118;-0.013439035043120384;0.00855211354792118
01:00:0A:00:00:00:00;1722988965;07/08/24;00:02:45;1.013;-0.015;0.113;-0.006108652334660292;-0.012217304669320583;0.0
01:00:0A:00:00:00:00;1722988966;07/08/24;00:02:46;1.013;-0.012;0.113;-0.0073303827084600925;-0.010995574295520782;0.006108652334660292
01:00:0A:00:00:00:00;1722988967;07/08/24;00:02:47;1.012;-0.018;0.114;-0.006108652334660292;-0.009773843921720982;0.0
01:00:0A:00:00:00:00;1722988968;07/08/24;00:02:48;1.012;-0.012;0.113;-0.0073303827084600925;-0.012217304669320583;0.0012217304902151227
01:00:0A:00:00:00:00;1722988969;07/08/24;00:02:49;1.012;-0.016;0.112;-0.00855211354792118;-0.013439035043120384;0.006108652334660292
01:00:0A:00:00:00:00;1722988970;07/08/24;00:02:50;1.012;-0.014;0.114;-0.006108652334660292;-0.009773843921720982;0.0
01:00:0A:00:00:00:00;1722988971;07/08/24;00:02:51;1.012;-0.013;0.114;-0.009773843921720982;-0.014660765416920185;0.00855211354792118
01:00:0A:00:00:00:00;1722988972;07/08/24;00:02:52;1.013;-0.015;0.113;-0.004886921960860491;-0.00855211354792118;-0.0024434609804302454
01:00:0A:00:00:00:00;1722988973;07/08/24;00:02:53;1.012;-0.012;0.115;-0.009773843921720982;-0.012217304669320583;0.006108652334660292
01:00:0A:00:00:00:00;1722988974;07/08/24;00:02:54;1.012;-0.018;0.113;-0.0073303827084600925;-0.012217304669320583;0.0024434609804302454
01:00:0A:00:00:00:00;1722988975;07/08/24;00:02:55;1.013;-0.012;0.115;-0.0073303827084600925;-0.009773843921720982;0.0012217304902151227
01:00:0A:00:00:00:00;1722988976;07/08/24;00:02:56;1.013;-0.017;0.113;-0.009773843921720982;-0.014660765416920185;0.0073303827084600925
01:00:0A:00:00:00:00;1722988977;07/08/24;00:02:57;1.012;-0.014;0.113;-0.006108652334660292;-0.009773843921720982;-0.0012217304902151227
01:00:0A:00:00:00:00;1722988978;07/08/24;00:02:58;1.012;-0.013;0.113;-0.009773843921720982;-0.013439035043120384;0.0073303827084600925
01:00:0A:00:00:00:00;1722988979;07/08/24;00:02:59;1.013;-0.017;0.113;-0.0073303827084600925;-0.009773843921720982;0.0012217304902151227
01:00:0A:00:00:00:00;1722988980;07/08/24;00:03:00;1.012;-0.014;0.114;-0.00855211354792118;-0.012217304669320583;0.0036651913542300463
01:00:0A:00:00:00:00;1722988981;07/08/24;00:03:01;1.011;-0.016;0.111;-0.0073303827084600925;-0.010995574295520782;0.0024434609804302454
01:00:0A:00:00:00:00;1722988982;07/08/24;00:03:02;1.012;-0.013;0.114;-0.0073303827084600925;-0.010995574295520782;0.0
01:00:0A:00:00:00:00;1722988983;07/08/24;00:03:03;1.013;-0.016;0.112;-0.010995574295520782;-0.014660765416920185;0.0073303827084600925
01:00:0A:00:00:00:00;1722988984;07/08/24;00:03:04;1.014;-0.016;0.118;-0.0024434609804302454;-0.0012217304902151227;-0.0012217304902151227
01:00:0A:00:00:00:00;1722988985;07/08/24;00:03:05;1.012;-0.016;0.121;-0.009773843921720982;-0.01710422709584236;0.010995574295520782
01:00:0A:00:00:00:00;1722988986;07/08/24;00:03:06;1.012;-0.023;0.111;-0.004886921960860491;-0.012217304669320583;-0.0036651913542300463
01:00:0A:00:00:00:00;1722988987;07/08/24;00:03:07;1.011;-0.009;0.116;-0.0024434609804302454;-0.009773843921720982;-0.006108652334660292
01:00:0A:00:00:00:00;1722988988;07/08/24;00:03:08;1.014;-0.016;0.111;-0.012217304669320583;-0.015882495790719986;0.013439035043120384
01:00:0A:00:00:00:00;1722988989;07/08/24;00:03:09;1.013;-0.019;0.112;-0.0036651913542300463;-0.0073303827084600925;-0.0012217304902151227
01:00:0A:00:00:00:00;1722988990;07/08/24;00:03:10;1.012;-0.011;0.114;-0.004886921960860491;-0.012217304669320583;0.0012217304902151227
01:00:0A:00:00:00:00;1722988991;07/08/24;00:03:11;1.012;-0.013;0.112;-0.009773843921720982;-0.010995574295520782;0.006108652334660292
01:00:0A:00:00:00:00;1722988992;07/08/24;00:03:12;1.012;-0.017;0.112;-0.0073303827084600925;-0.013439035043120384;0.0036651913542300463
01:00:0A:00:00:00:00;1722988993;07/08/24;00:03:13;1.013;-0.013;0.113;-0.0036651913542300463;-0.009773843921720982;-0.0024434609804302454
01:00:0A:00:00:00:00;1722988994;07/08/24;00:03:14;1.012;-0.013;0.115;-0.009773843921720982;-0.012217304669320583;0.00855211354792118
01:00:0A:00:00:00:00;1722988995;07/08/24;00:03:15;1.012;-0.019;0.111;-0.0073303827084600925;-0.012217304669320583;0.0024434609804302454
01:00:0A:00:00:00:00;1722988996;07/08/24;00:03:16;1.012;-0.011;0.114;-0.004886921960860491;-0.0073303827084600925;-0.0036651913542300463
01:00:0A:00:00:00:00;1722988997;07/08/24;00:03:17;1.013;-0.017;0.113;-0.012217304669320583;-0.01710422709584236;0.010995574295520782
01:00:0A:00:00:00:00;1722988998;07/08/24;00:03:18;1.013;-0.018;0.111;-0.004886921960860491;-0.006108652334660292;-0.0024434609804302454
01:00:0A:00:00:00:00;1722988999;07/08/24;00:03:19;1.013;-0.012;0.116;-0.0073303827084600925;-0.012217304669320583;0.0036651913542300463
01:00:0A:00:00:00:00;1722989000;07/08/24;00:03:20;1.012;-0.017;0.11;-0.009773843921720982;-0.013439035043120384;0.0073303827084600925
01:00:0A:00:00:00:00;1722989001;07/08/24;00:03:21;1.012;-0.015;0.119;-0.0036651913542300463;-0.0073303827084600925;0.0012217304902151227
01:00:0A:00:00:00:00;1722989002;07/08/24;00:03:22;1.012;-0.017;0.115;-0.0073303827084600925;-0.019547687843441963;0.006108652334660292
01:00:0A:00:00:00:00;1722989003;07/08/24;00:03:23;1.012;-0.017;0.114;-0.0024434609804302454;-0.00855211354792118;-0.0012217304902151227
01:00:0A:00:00:00:00;1722989004;07/08/24;00:03:24;1.012;-0.012;0.113;-0.004886921960860491;-0.012217304669320583;0.0036651913542300463
01:00:0A:00:00:00:00;1722989005;07/08/24;00:03:25;1.012;-0.015;0.112;-0.006108652334660292;-0.009773843921720982;0.0036651913542300463
01:00:0A:00:00:00:00;1722989006;07/08/24;00:03:26;1.013;-0.015;0.114;-0.006108652334660292;-0.015882495790719986;0.0036651913542300463
01:00:0A:00:00:00:00;1722989007;07/08/24;00:03:27;1.012;-0.016;0.11;-0.004886921960860491;-0.009773843921720982;0.0012217304902151227
01:00:0A:00:00:00:00;1722989008;07/08/24;00:03:28;1.012;-0.013;0.115;-0.006108652334660292;-0.009773843921720982;0.0036651913542300463
01:00:0A:00:00:00:00;1722989009;07/08/24;00:03:29;1.012;-0.017;0.113;-0.0073303827084600925;-0.014660765416920185;0.004886921960860491
01:00:0A:00:00:00:00;1722989010;07/08/24;00:03:30;1.012;-0.013;0.113;-0.004886921960860491;-0.0073303827084600925;-0.0012217304902151227
01:00:0A:00:00:00:00;1722989011;07/08/24;00:03:31;1.011;-0.016;0.113;-0.00855211354792118;-0.015882495790719986;0.0073303827084600925
01:00:0A:00:00:00:00;1722989012;07/08/24;00:03:32;1.013;-0.018;0.111;-0.004886921960860491;-0.009773843921720982;0.0
01:00:0A:00:00:00:00;1722989013;07/08/24;00:03:33;1.012;-0.012;0.116;-0.006108652334660292;-0.010995574295520782;0.0024434609804302454
01:00:0A:00:00:00:00;1722989014;07/08/24;00:03:34;1.013;-0.015;0.112;-0.00855211354792118;-0.013439035043120384;0.006108652334660292
01:00:0A:00:00:00:00;1722989015;07/08/24;00:03:35;1.012;-0.016;0.118;0.0012217304902151227;-0.0024434609804302454;0.004886921960860491
01:00:0A:00:00:00:00;1722989016;07/08/24;00:03:36;1.013;-0.018;0.114;0.0;-0.02076941914856434;0.004886921960860491
01:00:0A:00:00:00:00;1722989017;07/08/24;00:03:37;1.013;-0.016;0.11;0.006108652334660292;-0.0073303827084600925;0.0012217304902151227
01:00:0A:00:00:00:00;1722989018;07/08/24;00:03:38;1.012;-0.013;0.116;0.0036651913542300463;-0.010995574295520782;0.0036651913542300463
01:00:0A:00:00:00:00;1722989019;07/08/24;00:03:39;1.014;-0.015;0.112;0.0;-0.014660765416920185;0.006108652334660292
01:00:0A:00:00:00:00;1722989020;07/08/24;00:03:40;1.013;-0.016;0.114;0.0036651913542300463;-0.009773843921720982;0.004886921960860491
01:00:0A:00:00:00:00;1722989021;07/08/24;00:03:41;1.012;-0.015;0.113;0.0036651913542300463;-0.010995574295520782;0.0012217304902151227
01:00:0A:00:00:00:00;1722989022;07/08/24;00:03:42;1.012;-0.013;0.114;0.0012217304902151227;-0.010995574295520782;0.004886921960860491
01:00:0A:00:00:00:00;1722989023;07/08/24;00:03:43;1.011;-0.017;0.111;0.0;-0.013439035043120384;0.006108652334660292
01:00:0A:00:00:00:00;1722989024;07/08/24;00:03:44;1.012;-0.015;0.115;0.006108652334660292;-0.0036651913542300463;0.0024434609804302454
01:00:0A:00:00:00:00;1722989025;07/08/24;00:03:45;1.012;-0.014;0.116;0.0024434609804302454;-0.019547687843441963;0.006108652334660292
01:00:0A:00:00:00:00;1722989026;07/08/24;00:03:46;1.013;-0.017;0.109;0.004886921960860491;-0.00855211354792118;0.0012217304902151227
01:00:0A:00:00:00:00;1722989027;07/08/24;00:03:47;1.013;-0.013;0.116;0.0036651913542300463;-0.0073303827084600925;0.0024434609804302454
01:00:0A:00:00:00:00;1722989028;07/08/24;00:03:48;1.012;-0.017;0.114;0.0024434609804302454;-0.015882495790719986;0.00855211354792118
01:00:0A:00:00:00:00;1722989029;07/08/24;00:03:49;1.014;-0.016;0.114;0.012217304669320583;-0.00855211354792118;0.0012217304902151227
01:00:0A:00:00:00:00;1722989030;07/08/24;00:03:50;1.013;-0.015;0.114;0.009773843921720982;-0.01710422709584236;0.0024434609804302454
01:00:0A:00:00:00:00;1722989031;07/08/24;00:03:51;1.013;-0.014;0.111;0.00855211354792118;-0.0073303827084600925;0.0036651913542300463
01:00:0A:00:00:00:00;1722989032;07/08/24;00:03:52;1.013;-0.015;0.116;0.006108652334660292;-0.012217304669320583;0.0073303827084600925
01:00:0A:00:00:00:00;1722989033;07/08/24;00:03:53;1.012;-0.015;0.11;0.0073303827084600925;-0.012217304669320583;0.0012217304902151227
01:00:0A:00:00:00:00;1722989034;07/08/24;00:03:54;1.011;-0.014;0.114;0.0073303827084600925;-0.00855211354792118;0.006108652334660292
01:00:0A:00:00:00:00;1722989035;07/08/24;00:03:55;1.012;-0.018;0.112;0.006108652334660292;-0.013439035043120384;0.0036651913542300463
01:00:0A:00:00:00:00;1722989036;07/08/24;00:03:56;1.011;-0.013;0.113;0.0073303827084600925;-0.009773843921720982;0.0012217304902151227
01:00:0A:00:00:00:00;1722989037;07/08/24;00:03:57;1.012;-0.017;0.116;0.006108652334660292;-0.014660765416920185;0.00855211354792118
01:00:0A:00:00:00:00;1722989038;07/08/24;00:03:58;1.014;-0.016;0.112;0.010995574295520782;-0.00855211354792118;0.0036651913542300463
01:00:0A:00:00:00:00;1722989039;07/08/24;00:03:59;1.012;-0.014;0.115;0.010995574295520782;-0.012217304669320583;0.0036651913542300463
01:00:0A:00:00:00:00;1722989040;07/08/24;00:04:00;1.012;-0.014;0.111;0.009773843921720982;-0.010995574295520782;0.0036651913542300463
01:00:0A:00:00:00:00;1722989041;07/08/24;00:04:01;1.012;-0.014;0.115;0.00855211354792118;-0.009773843921720982;0.006108652334660292
01:00:0A:00:00:00:00;1722989042;07/08/24;00:04:02;1.013;-0.015;0.112;0.0073303827084600925;-0.014660765416920185;0.006108652334660292
01:00:0A:00:00:00:00;1722989043;07/08/24;00:04:03;1.012;-0.017;0.115;0.010995574295520782;-0.0073303827084600925;0.0024434609804302454
01:00:0A:00:00:00:00;1722989044;07/08/24;00:04:04;1.013;-0.014;0.113;0.00855211354792118;-0.015882495790719986;0.0024434609804302454
01:00:0A:00:00:00:00;1722989045;07/08/24;00:04:05;1.013;-0.015;0.111;0.00855211354792118;-0.0073303827084600925;0.006108652334660292
01:00:0A:00:00:00:00;1722989046;07/08/24;00:04:06;1.011;-0.016;0.115;0.0073303827084600925;-0.012217304669320583;0.0036651913542300463
01:00:0A:00:00:00:00;1722989047;07/08/24;00:04:07;1.012;-0.016;0.111;0.009773843921720982;-0.013439035043120384;0.004886921960860491
01:00:0A:00:00:00:00;1722989048;07/08/24;00:04:08;1.012;-0.013;0.115;0.010995574295520782;-0.009773843921720982;0.0012217304902151227
01:00:0A:00:00:00:00;1722989049;07/08/24;00:04:09;1.013;-0.015;0.112;0.0073303827084600925;-0.013439035043120384;0.006108652334660292
01:00:0A:00:00:00:00;1722989050;07/08/24;00:04:10;1.013;-0.015;0.113;0.00855211354792118;-0.009773843921720982;0.0024434609804302454
01:00:0A:00:00:00:00;1722989051;07/08/24;00:04:11;1.013;-0.015;0.114;0.00855211354792118;-0.012217304669320583;0.0073303827084600925
01:00:0A:00:00:00:00;1722989052;07/08/24;00:04:12;1.013;-0.016;0.112;0.009773843921720982;-0.012217304669320583;0.0012217304902151227
01:00:0A:00:00:00:00;1722989053;07/08/24;00:04:13;1.012;-0.015;0.114;0.00855211354792118;-0.009773843921720982;0.006108652334660292
01:00:0A:00:00:00:00;1722989054;07/08/24;00:04:14;1.012;-0.015;0.112;0.00855211354792118;-0.012217304669320583;0.0024434609804302454
01:00:0A:00:00:00:00;1722989055;07/08/24;00:04:15;1.012;-0.014;0.115;0.010995574295520782;-0.006108652334660292;0.006108652334660292
01:00:0A:00:00:00:00;1722989055;07/08/24;00:04:15;1.012;-0.018;0.113;0.009773843921720982;-0.01710422709584236;0.006108652334660292
01:00:0A:00:00:00:00;1722989056;07/08/24;00:04:16;1.012;-0.014;0.11;0.010995574295520782;-0.0073303827084600925;0.0024434609804302454
01:00:0A:00:00:00:00;1722989057;07/08/24;00:04:17;1.011;-0.016;0.115;0.009773843921720982;-0.012217304669320583;0.006108652334660292
01:00:0A:00:00:00:00;1722989058;07/08/24;00:04:18;1.013;-0.015;0.112;0.009773843921720982;-0.014660765416920185;0.0024434609804302454
01:00:0A:00:00:00:00;1722989059;07/08/24;00:04:19;1.013;-0.014;0.113;0.009773843921720982;-0.00855211354792118;0.0073303827084600925
01:00:0A:00:00:00:00;1722989060;07/08/24;00:04:20;1.012;-0.017;0.113;0.009773843921720982;-0.013439035043120384;0.004886921960860491
01:00:0A:00:00:00:00;1722989061;07/08/24;00:04:21;1.012;-0.013;0.113;0.009773843921720982;-0.009773843921720982;0.0012217304902151227
01:00:0A:00:00:00:00;1722989062;07/08/24;00:04:22;1.012;-0.015;0.112;0.0073303827084600925;-0.012217304669320583;0.0073303827084600925
01:00:0A:00:00:00:00;1722989063;07/08/24;00:04:23;1.012;-0.016;0.112;0.009773843921720982;-0.010995574295520782;0.0012217304902151227
01:00:0A:00:00:00:00;1722989064;07/08/24;00:04:24;1.012;-0.014;0.115;0.009773843921720982;-0.012217304669320583;0.006108652334660292
01:00:0A:00:00:00:00;1722989065;07/08/24;00:04:25;1.012;-0.016;0.111;0.010995574295520782;-0.012217304669320583;0.0036651913542300463
01:00:0A:00:00:00:00;1722989066;07/08/24;00:04:26;1.012;-0.013;0.114;0.009773843921720982;-0.009773843921720982;0.0036651913542300463
01:00:0A:00:00:00:00;1722989067;07/08/24;00:04:27;1.012;-0.016;0.114;0.00855211354792118;-0.013439035043120384;0.0073303827084600925
01:00:0A:00:00:00:00;1722989068;07/08/24;00:04:28;1.011;-0.014;0.113;0.010995574295520782;-0.009773843921720982;0.0024434609804302454
01:00:0A:00:00:00:00;1722989069;07/08/24;00:04:29;1.013;-0.015;0.113;0.009773843921720982;-0.013439035043120384;0.0073303827084600925
01:00:0A:00:00:00:00;1722989070;07/08/24;00:04:30;1.013;-0.015;0.112;0.012217304669320583;-0.009773843921720982;0.0012217304902151227
01:00:0A:00:00:00:00;1722989071;07/08/24;00:04:31;1.014;-0.013;0.114;0.009773843921720982;-0.012217304669320583;0.0073303827084600925
01:00:0A:00:00:00:00;1722989072;07/08/24;00:04:32;1.012;-0.017;0.111;0.009773843921720982;-0.013439035043120384;0.004886921960860491
01:00:0A:00:00:00:00;1722989073;07/08/24;00:04:33;1.012;-0.013;0.113;0.010995574295520782;-0.009773843921720982;0.0036651913542300463
01:00:0A:00:00:00:00;1722989074;07/08/24;00:04:34;1.011;-0.017;0.112;0.010995574295520782;-0.012217304669320583;0.006108652334660292
01:00:0A:00:00:00:00;1722989075;07/08/24;00:04:35;1.012;-0.014;0.113;0.012217304669320583;-0.009773843921720982;0.0012217304902151227
01:00:0A:00:00:00:00;1722989076;07/08/24;00:04:36;1.013;-0.014;0.113;0.00855211354792118;-0.013439035043120384;0.0073303827084600925
01:00:0A:00:00:00:00;1722989077;07/08/24;00:04:37;1.013;-0.016;0.112;0.010995574295520782;-0.009773843921720982;0.0036651913542300463
01:00:0A:00:00:00:00;1722989078;07/08/24;00:04:38;1.011;-0.014;0.114;0.009773843921720982;-0.010995574295520782;0.004886921960860491
01:00:0A:00:00:00:00;1722989079;07/08/24;00:04:39;1.013;-0.016;0.111;0.009773843921720982;-0.010995574295520782;0.0036651913542300463
01:00:0A:00:00:00:00;1722989080;07/08/24;00:04:40;1.011;-0.015;0.114;0.009773843921720982;-0.009773843921720982;0.0036651913542300463
01:00:0A:00:00:00:00;1722989081;07/08/24;00:04:41;1.013;-0.015;0.113;0.00855211354792118;-0.014660765416920185;0.006108652334660292
01:00:0A:00:00:00:00;1722989082;07/08/24;00:04:42;1.013;-0.015;0.113;0.010995574295520782;-0.00855211354792118;0.004886921960860491
01:00:0A:00:00:00:00;1722989083;07/08/24;00:04:43;1.013;-0.015;0.114;0.010995574295520782;-0.014660765416920185;0.0036651913542300463
01:00:0A:00:00:00:00;1722989084;07/08/24;00:04:44;1.011;-0.015;0.111;0.010995574295520782;-0.009773843921720982;0.0036651913542300463
01:00:0A:00:00:00:00;1722989085;07/08/24;00:04:45;1.012;-0.013;0.115;0.009773843921720982;-0.010995574295520782;0.0073303827084600925
01:00:0A:00:00:00:00;1722989086;07/08/24;00:04:46;1.012;-0.016;0.112;0.009773843921720982;-0.013439035043120384;0.0036651913542300463
01:00:0A:00:00:00:00;1722989087;07/08/24;00:04:47;1.011;-0.014;0.113;0.010995574295520782;-0.00855211354792118;0.0036651913542300463
01:00:0A:00:00:00:00;1722989088;07/08/24;00:04:48;1.013;-0.016;0.112;0.009773843921720982;-0.013439035043120384;0.006108652334660292
01:00:0A:00:00:00:00;1722989089;07/08/24;00:04:49;1.012;-0.014;0.111;0.010995574295520782;-0.009773843921720982;0.0024434609804302454
01:00:0A:00:00:00:00;1722989090;07/08/24;00:04:50;1.012;-0.013;0.114;0.00855211354792118;-0.013439035043120384;0.006108652334660292
01:00:0A:00:00:00:00;1722989091;07/08/24;00:04:51;1.013;-0.017;0.112;0.009773843921720982;-0.010995574295520782;0.0036651913542300463
01:00:0A:00:00:00:00;1722989092;07/08/24;00:04:52;1.012;-0.014;0.113;0.009773843921720982;-0.010995574295520782;0.0024434609804302454
01:00:0A:00:00:00:00;1722989093;07/08/24;00:04:53;1.012;-0.013;0.112;0.00855211354792118;-0.012217304669320583;0.006108652334660292
01:00:0A:00:00:00:00;1722989094;07/08/24;00:04:54;1.012;-0.014;0.113;0.009773843921720982;-0.009773843921720982;0.0036651913542300463
01:00:0A:00:00:00:00;1722989095;07/08/24;00:04:55;1.013;-0.016;0.113;0.0073303827084600925;-0.013439035043120384;0.006108652334660292
01:00:0A:00:00:00:00;1722989096;07/08/24;00:04:56;1.011;-0.015;0.112;0.009773843921720982;-0.00855211354792118;0.0036651913542300463
01:00:0A:00:00:00:00;1722989097;07/08/24;00:04:57;1.011;-0.015;0.114;0.00855211354792118;-0.012217304669320583;0.004886921960860491
01:00:0A:00:00:00:00;1722989098;07/08/24;00:04:58;1.012;-0.015;0.112;0.00855211354792118;-0.010995574295520782;0.0036651913542300463
01:00:0A:00:00:00:00;1722989099;07/08/24;00:04:59;1.012;-0.014;0.114;0.0073303827084600925;-0.010995574295520782;0.004886921960860491
01:00:0A:00:00:00:00;1722989100;07/08/24;00:05:00;1.012;-0.015;0.112;0.0073303827084600925;-0.013439035043120384;0.004886921960860491
01:00:0A:00:00:00:00;1722989101;07/08/24;00:05:01;1.012;-0.015;0.113;0.00855211354792118;-0.00855211354792118;0.0024434609804302454
01:00:0A:00:00:00:00;1722989102;07/08/24;00:05:02;1.012;-0.015;0.113;0.006108652334660292;-0.013439035043120384;0.006108652334660292
01:00:0A:00:00:00:00;1722989103;07/08/24;00:05:03;1.013;-0.016;0.112;0.0073303827084600925;-0.009773843921720982;0.0036651913542300463
01:00:0A:00:00:00:00;1722989104;07/08/24;00:05:04;1.013;-0.014;0.113;0.006108652334660292;-0.012217304669320583;0.004886921960860491
01:00:0A:00:00:00:00;1722989105;07/08/24;00:05:05;1.013;-0.016;0.111;0.006108652334660292;-0.010995574295520782;0.004886921960860491
01:00:0A:00:00:00:00;1722989106;07/08/24;00:05:06;1.012;-0.014;0.113;0.0073303827084600925;-0.010995574295520782;0.0024434609804302454
01:00:0A:00:00:00:00;1722989107;07/08/24;00:05:07;1.012;-0.015;0.111;0.004886921960860491;-0.013439035043120384;0.006108652334660292
01:00:0A:00:00:00:00;1722989108;07/08/24;00:05:08;1.012;-0.015;0.113;0.006108652334660292;-0.009773843921720982;0.0024434609804302454
01:00:0A:00:00:00:00;1722989109;07/08/24;00:05:09;1.013;-0.014;0.113;0.004886921960860491;-0.013439035043120384;0.006108652334660292
01:00:0A:00:00:00:00;1722989110;07/08/24;00:05:10;1.013;-0.015;0.111;0.006108652334660292;-0.009773843921720982;0.0024434609804302454
01:00:0A:00:00:00:00;1722989111;07/08/24;00:05:11;1.013;-0.013;0.113;0.004886921960860491;-0.012217304669320583;0.004886921960860491
01:00:0A:00:00:00:00;1722989112;07/08/24;00:05:12;1.012;-0.016;0.112;0.0036651913542300463;-0.012217304669320583;0.004886921960860491
01:00:0A:00:00:00:00;1722989113;07/08/24;00:05:13;1.013;-0.013;0.112;0.004886921960860491;-0.010995574295520782;0.0036651913542300463
01:00:0A:00:00:00:00;1722989114;07/08/24;00:05:14;1.013;-0.016;0.112;0.0036651913542300463;-0.012217304669320583;0.004886921960860491
01:00:0A:00:00:00:00;1722989115;07/08/24;00:05:15;1.014;-0.014;0.112;0.004886921960860491;-0.009773843921720982;0.0024434609804302454
01:00:0A:00:00:00:00;1722989116;07/08/24;00:05:16;1.012;-0.015;0.113;0.0024434609804302454;-0.013439035043120384;0.006108652334660292
01:00:0A:00:00:00:00;1722989117;07/08/24;00:05:17;1.013;-0.014;0.112;0.0036651913542300463;-0.010995574295520782;0.0036651913542300463
01:00:0A:00:00:00:00;1722989118;07/08/24;00:05:18;1.012;-0.013;0.113;0.0036651913542300463;-0.010995574295520782;0.0036651913542300463
01:00:0A:00:00:00:00;1722989119;07/08/24;00:05:19;1.013;-0.015;0.111;0.0036651913542300463;-0.012217304669320583;0.0036651913542300463
01:00:0A:00:00:00:00;1722989120;07/08/24;00:05:20;1.013;-0.015;0.114;0.0036651913542300463;-0.009773843921720982;0.0036651913542300463
01:00:0A:00:00:00:00;1722989121;07/08/24;00:05:21;1.013;-0.015;0.113;0.0024434609804302454;-0.013439035043120384;0.004886921960860491
01:00:0A:00:00:00:00;1722989122;07/08/24;00:05:22;1.012;-0.015;0.112;0.0036651913542300463;-0.009773843921720982;0.0024434609804302454
01:00:0A:00:00:00:00;1722989123;07/08/24;00:05:23;1.012;-0.015;0.113;0.0024434609804302454;-0.012217304669320583;0.006108652334660292
01:00:0A:00:00:00:00;1722989124;07/08/24;00:05:24;1.012;-0.015;0.112;0.0036651913542300463;-0.009773843921720982;0.004886921960860491
01:00:0A:00:00:00:00;1722989125;07/08/24;00:05:25;1.012;-0.018;0.116;0.006108652334660292;-0.010995574295520782;0.004886921960860491
01:00:0A:00:00:00:00;1722989126;07/08/24;00:05:26;1.012;-0.018;0.112;0.00855211354792118;-0.013439035043120384;0.004886921960860491
01:00:0A:00:00:00:00;1722989127;07/08/24;00:05:27;1.012;-0.016;0.114;0.013439035043120384;-0.009773843921720982;0.0
01:00:0A:00:00:00:00;1722989128;07/08/24;00:05:28;1.012;-0.013;0.113;0.009773843921720982;-0.013439035043120384;0.004886921960860491
01:00:0A:00:00:00:00;1722989129;07/08/24;00:05:29;1.013;-0.015;0.112;0.009773843921720982;-0.00855211354792118;0.006108652334660292
01:00:0A:00:00:00:00;1722989130;07/08/24;00:05:30;1.012;-0.015;0.113;0.009773843921720982;-0.013439035043120384;0.0024434609804302454
01:00:0A:00:00:00:00;1722989131;07/08/24;00:05:31;1.012;-0.014;0.112;0.00855211354792118;-0.010995574295520782;0.004886921960860491
01:00:0A:00:00:00:00;1722989132;07/08/24;00:05:32;1.012;-0.014;0.115;0.00855211354792118;-0.009773843921720982;0.006108652334660292
01:00:0A:00:00:00:00;1722989133;07/08/24;00:05:33;1.012;-0.015;0.112;0.00855211354792118;-0.012217304669320583;0.0036651913542300463
01:00:0A:00:00:00:00;1722989134;07/08/24;00:05:34;1.012;-0.013;0.113;0.00855211354792118;-0.009773843921720982;0.0036651913542300463
01:00:0A:00:00:00:00;1722989135;07/08/24;00:05:35;1.012;-0.017;0.114;0.006108652334660292;-0.012217304669320583;0.00855211354792118
01:00:0A:00:00:00:00;1722989136;07/08/24;00:05:36;1.012;-0.019;0.114;0.010995574295520782;-0.009773843921720982;0.0036651913542300463
01:00:0A:00:00:00:00;1722989137;07/08/24;00:05:37;1.012;-0.016;0.114;0.013439035043120384;-0.012217304669320583;0.0036651913542300463
01:00:0A:00:00:00:00;1722989138;07/08/24;00:05:38;1.014;-0.015;0.112;0.013439035043120384;-0.012217304669320583;0.0036651913542300463
01:00:0A:00:00:00:00;1722989139;07/08/24;00:05:39;1.013;-0.014;0.114;0.012217304669320583;-0.009773843921720982;0.006108652334660292
01:00:0A:00:00:00:00;1722989140;07/08/24;00:05:40;1.013;-0.015;0.113;0.012217304669320583;-0.013439035043120384;0.0036651913542300463
01:00:0A:00:00:00:00;1722989141;07/08/24;00:05:41;1.013;-0.013;0.114;0.013439035043120384;-0.00855211354792118;0.0036651913542300463
01:00:0A:00:00:00:00;1722989142;07/08/24;00:05:42;1.012;-0.015;0.112;0.010995574295520782;-0.013439035043120384;0.006108652334660292
01:00:0A:00:00:00:00;1722989143;07/08/24;00:05:43;1.013;-0.016;0.112;0.009773843921720982;-0.009773843921720982;0.006108652334660292
01:00:0A:00:00:00:00;1722989144;07/08/24;00:05:44;1.012;-0.017;0.114;0.0073303827084600925;-0.012217304669320583;0.006108652334660292
01:00:0A:00:00:00:00;1722989145;07/08/24;00:05:45;1.013;-0.017;0.113;0.0073303827084600925;-0.012217304669320583;0.0024434609804302454
01:00:0A:00:00:00:00;1722989146;07/08/24;00:05:46;1.012;-0.014;0.114;0.0073303827084600925;-0.010995574295520782;0.0012217304902151227
01:00:0A:00:00:00:00;1722989147;07/08/24;00:05:47;1.012;-0.015;0.113;0.0036651913542300463;-0.012217304669320583;0.0073303827084600925
01:00:0A:00:00:00:00;1722989148;07/08/24;00:05:48;1.012;-0.016;0.113;0.004886921960860491;-0.009773843921720982;0.0036651913542300463
01:00:0A:00:00:00:00;1722989149;07/08/24;00:05:49;1.012;-0.015;0.114;0.0036651913542300463;-0.012217304669320583;0.006108652334660292
01:00:0A:00:00:00:00;1722989150;07/08/24;00:05:50;1.012;-0.016;0.113;0.004886921960860491;-0.010995574295520782;0.0024434609804302454
01:00:0A:00:00:00:00;1722989151;07/08/24;00:05:51;1.012;-0.014;0.114;0.004886921960860491;-0.010995574295520782;0.0036651913542300463
01:00:0A:00:00:00:00;1722989152;07/08/24;00:05:52;1.013;-0.016;0.113;0.004886921960860491;-0.010995574295520782;0.006108652334660292
01:00:0A:00:00:00:00;1722989153;07/08/24;00:05:53;1.012;-0.017;0.115;0.00855211354792118;-0.009773843921720982;0.0036651913542300463
01:00:0A:00:00:00:00;1722989154;07/08/24;00:05:54;1.013;-0.016;0.113;0.00855211354792118;-0.014660765416920185;0.0036651913542300463
01:00:0A:00:00:00:00;1722989155;07/08/24;00:05:55;1.013;-0.014;0.112;0.009773843921720982;-0.009773843921720982;0.0024434609804302454
01:00:0A:00:00:00:00;1722989156;07/08/24;00:05:56;1.012;-0.014;0.115;0.006108652334660292;-0.010995574295520782;0.0073303827084600925
01:00:0A:00:00:00:00;1722989157;07/08/24;00:05:57;1.012;-0.017;0.112;0.006108652334660292;-0.013439035043120384;0.0036651913542300463
01:00:0A:00:00:00:00;1722989158;07/08/24;00:05:58;1.012;-0.014;0.114;0.006108652334660292;-0.009773843921720982;0.0036651913542300463
01:00:0A:00:00:00:00;1722989159;07/08/24;00:05:59;1.013;-0.016;0.112;0.006108652334660292;-0.012217304669320583;0.004886921960860491
01:00:0A:00:00:00:00;1722989160;07/08/24;00:06:00;1.012;-0.015;0.113;0.006108652334660292;-0.010995574295520782;0.0024434609804302454
01:00:0A:00:00:00:00;1722989161;07/08/24;00:06:01;1.013;-0.016;0.113;0.004886921960860491;-0.012217304669320583;0.006108652334660292
01:00:0A:00:00:00:00;1722989162;07/08/24;00:06:02;1.012;-0.016;0.114;0.00855211354792118;-0.00855211354792118;0.0036651913542300463
01:00:0A:00:00:00:00;1722989163;07/08/24;00:06:03;1.013;-0.016;0.114;0.00855211354792118;-0.015882495790719986;0.004886921960860491
01:00:0A:00:00:00:00;1722989164;07/08/24;00:06:04;1.013;-0.015;0.112;0.009773843921720982;-0.010995574295520782;0.0024434609804302454
01:00:0A:00:00:00:00;1722989165;07/08/24;00:06:05;1.012;-0.013;0.115;0.006108652334660292;-0.00855211354792118;0.006108652334660292
01:00:0A:00:00:00:00;1722989166;07/08/24;00:06:06;1.013;-0.016;0.113;0.004886921960860491;-0.015882495790719986;0.004886921960860491
01:00:0A:00:00:00:00;1722989167;07/08/24;00:06:07;1.012;-0.015;0.113;0.00855211354792118;-0.0073303827084600925;0.0036651913542300463
01:00:0A:00:00:00:00;1722989168;07/08/24;00:06:08;1.013;-0.015;0.115;0.006108652334660292;-0.012217304669320583;0.004886921960860491
01:00:0A:00:00:00:00;1722989169;07/08/24;00:06:09;1.012;-0.015;0.112;0.004886921960860491;-0.012217304669320583;0.0036651913542300463
01:00:0A:00:00:00:00;1722989170;07/08/24;00:06:10;1.013;-0.015;0.114;0.004886921960860491;-0.009773843921720982;0.004886921960860491
01:00:0A:00:00:00:00;1722989171;07/08/24;00:06:11;1.012;-0.017;0.115;0.006108652334660292;-0.010995574295520782;0.006108652334660292
01:00:0A:00:00:00:00;1722989172;07/08/24;00:06:12;1.012;-0.016;0.114;0.00855211354792118;-0.013439035043120384;0.0036651913542300463
01:00:0A:00:00:00:00;1722989173;07/08/24;00:06:13;1.012;-0.016;0.112;0.00855211354792118;-0.013439035043120384;0.0036651913542300463
01:00:0A:00:00:00:00;1722989174;07/08/24;00:06:14;1.012;-0.014;0.114;0.0073303827084600925;-0.00855211354792118;0.0036651913542300463
01:00:0A:00:00:00:00;1722989175;07/08/24;00:06:15;1.011;-0.016;0.114;0.004886921960860491;-0.014660765416920185;0.006108652334660292
01:00:0A:00:00:00:00;1722989176;07/08/24;00:06:16;1.013;-0.017;0.111;0.0073303827084600925;-0.009773843921720982;0.0036651913542300463
01:00:0A:00:00:00:00;1722989177;07/08/24;00:06:17;1.012;-0.014;0.114;0.006108652334660292;-0.010995574295520782;0.0036651913542300463
01:00:0A:00:00:00:00;1722989178;07/08/24;00:06:18;1.012;-0.015;0.113;0.0036651913542300463;-0.013439035043120384;0.0036651913542300463
01:00:0A:00:00:00:00;1722989179;07/08/24;00:06:19;1.013;-0.015;0.114;0.006108652334660292;-0.0073303827084600925;0.004886921960860491
01:00:0A:00:00:00:00;1722989180;07/08/24;00:06:20;1.013;-0.016;0.114;0.006108652334660292;-0.013439035043120384;0.004886921960860491
01:00:0A:00:00:00:00;1722989181;07/08/24;00:06:21;1.011;-0.016;0.113;0.00855211354792118;-0.012217304669320583;0.0036651913542300463
01:00:0A:00:00:00:00;1722989182;07/08/24;00:06:22;1.012;-0.015;0.113;0.00855211354792118;-0.010995574295520782;0.0024434609804302454
01:00:0A:00:00:00:00;1722989183;07/08/24;00:06:23;1.013;-0.014;0.113;0.006108652334660292;-0.009773843921720982;0.004886921960860491
01:00:0A:00:00:00:00;1722989184;07/08/24;00:06:24;1.012;-0.015;0.114;0.004886921960860491;-0.013439035043120384;0.004886921960860491
01:00:0A:00:00:00:00;1722989185;07/08/24;00:06:25;1.012;-0.015;0.112;0.004886921960860491;-0.010995574295520782;0.0024434609804302454
01:00:0A:00:00:00:00;1722989186;07/08/24;00:06:26;1.013;-0.014;0.115;0.0024434609804302454;-0.009773843921720982;0.004886921960860491
01:00:0A:00:00:00:00;1722989187;07/08/24;00:06:27;1.012;-0.015;0.112;0.0024434609804302454;-0.013439035043120384;0.004886921960860491
01:00:0A:00:00:00:00;1722989188;07/08/24;00:06:28;1.012;-0.016;0.112;0.0036651913542300463;-0.00855211354792118;0.0024434609804302454
01:00:0A:00:00:00:00;1722989189;07/08/24;00:06:29;1.012;-0.015;0.116;0.0024434609804302454;-0.013439035043120384;0.004886921960860491
01:00:0A:00:00:00:00;1722989190;07/08/24;00:06:30;1.013;-0.018;0.112;0.004886921960860491;-0.013439035043120384;0.0036651913542300463
01:00:0A:00:00:00:00;1722989191;07/08/24;00:06:31;1.013;-0.014;0.114;0.006108652334660292;-0.009773843921720982;0.0012217304902151227
01:00:0A:00:00:00:00;1722989192;07/08/24;00:06:32;1.013;-0.015;0.114;0.0012217304902151227;-0.012217304669320583;0.006108652334660292
01:00:0A:00:00:00:00;1722989193;07/08/24;00:06:33;1.011;-0.016;0.113;0.0012217304902151227;-0.012217304669320583;0.0036651913542300463
01:00:0A:00:00:00:00;1722989194;07/08/24;00:06:34;1.012;-0.015;0.112;0.0024434609804302454;-0.010995574295520782;0.0036651913542300463
01:00:0A:00:00:00:00;1722989195;07/08/24;00:06:35;1.012;-0.016;0.114;0.0012217304902151227;-0.010995574295520782;0.0036651913542300463
01:00:0A:00:00:00:00;1722989196;07/08/24;00:06:36;1.012;-0.015;0.113;-0.0012217304902151227;-0.013439035043120384;0.004886921960860491
01:00:0A:00:00:00:00;1722989197;07/08/24;00:06:37;1.012;-0.016;0.112;-0.0012217304902151227;-0.009773843921720982;0.0024434609804302454
01:00:0A:00:00:00:00;1722989198;07/08/24;00:06:38;1.012;-0.015;0.115;-0.0024434609804302454;-0.012217304669320583;0.0036651913542300463
01:00:0A:00:00:00:00;1722989199;07/08/24;00:06:39;1.011;-0.016;0.113;-0.0024434609804302454;-0.013439035043120384;0.0036651913542300463
01:00:0A:00:00:00:00;1722989200;07/08/24;00:06:40;1.012;-0.015;0.113;-0.0012217304902151227;-0.009773843921720982;0.0012217304902151227
01:00:0A:00:00:00:00;1722989201;07/08/24;00:06:41;1.012;-0.014;0.113;-0.0036651913542300463;-0.012217304669320583;0.004886921960860491
01:00:0A:00:00:00:00;1722989202;07/08/24;00:06:42;1.011;-0.016;0.115;-0.0024434609804302454;-0.00855211354792118;0.004886921960860491
01:00:0A:00:00:00:00;1722989203;07/08/24;00:06:43;1.012;-0.016;0.115;-0.0024434609804302454;-0.013439035043120384;0.0036651913542300463
01:00:0A:00:00:00:00;1722989204;07/08/24;00:06:44;1.012;-0.015;0.11;-0.0024434609804302454;-0.013439035043120384;0.0012217304902151227
01:00:0A:00:00:00:00;1722989205;07/08/24;00:06:45;1.012;-0.015;0.114;-0.0036651913542300463;-0.0073303827084600925;0.0036651913542300463
01:00:0A:00:00:00:00;1722989206;07/08/24;00:06:46;1.012;-0.016;0.114;-0.006108652334660292;-0.014660765416920185;0.004886921960860491
01:00:0A:00:00:00:00;1722989207;07/08/24;00:06:47;1.012;-0.015;0.112;-0.0036651913542300463;-0.012217304669320583;0.0012217304902151227
01:00:0A:00:00:00:00;1722989208;07/08/24;00:06:48;1.012;-0.013;0.114;-0.006108652334660292;-0.009773843921720982;0.004886921960860491
01:00:0A:00:00:00:00;1722989209;07/08/24;00:06:49;1.013;-0.016;0.113;-0.006108652334660292;-0.010995574295520782;0.0036651913542300463
01:00:0A:00:00:00:00;1722989210;07/08/24;00:06:50;1.012;-0.014;0.114;-0.006108652334660292;-0.013439035043120384;0.0024434609804302454
01:00:0A:00:00:00:00;1722989211;07/08/24;00:06:51;1.012;-0.015;0.113;-0.0073303827084600925;-0.009773843921720982;0.0036651913542300463
01:00:0A:00:00:00:00;1722989212;07/08/24;00:06:52;1.012;-0.017;0.114;-0.0073303827084600925;-0.012217304669320583;0.0024434609804302454
01:00:0A:00:00:00:00;1722989213;07/08/24;00:06:53;1.012;-0.015;0.112;-0.0073303827084600925;-0.013439035043120384;0.0024434609804302454
01:00:0A:00:00:00:00;1722989214;07/08/24;00:06:54;1.012;-0.015;0.113;-0.00855211354792118;-0.00855211354792118;0.0024434609804302454
01:00:0A:00:00:00:00;1722989215;07/08/24;00:06:55;1.012;-0.016;0.114;-0.009773843921720982;-0.013439035043120384;0.0036651913542300463
01:00:0A:00:00:00:00;1722989216;07/08/24;00:06:56;1.012;-0.015;0.111;-0.00855211354792118;-0.010995574295520782;0.0012217304902151227
01:00:0A:00:00:00:00;1722989217;07/08/24;00:06:57;1.013;-0.015;0.113;-0.009773843921720982;-0.009773843921720982;0.0036651913542300463
01:00:0A:00:00:00:00;1722989218;07/08/24;00:06:58;1.012;-0.017;0.112;-0.009773843921720982;-0.012217304669320583;0.0024434609804302454
01:00:0A:00:00:00:00;1722989219;07/08/24;00:06:59;1.012;-0.014;0.113;-0.009773843921720982;-0.010995574295520782;0.0012217304902151227
01:00:0A:00:00:00:00;1722989220;07/08/24;00:07:00;1.013;-0.014;0.113;-0.010995574295520782;-0.012217304669320583;0.0036651913542300463
01:00:0A:00:00:00:00;1722989221;07/08/24;00:07:01;1.012;-0.015;0.113;-0.009773843921720982;-0.010995574295520782;0.0024434609804302454
01:00:0A:00:00:00:00;1722989222;07/08/24;00:07:02;1.012;-0.014;0.113;-0.010995574295520782;-0.012217304669320583;0.0024434609804302454
01:00:0A:00:00:00:00;1722989223;07/08/24;00:07:03;1.012;-0.014;0.112;-0.010995574295520782;-0.009773843921720982;0.0036651913542300463
01:00:0A:00:00:00:00;1722989224;07/08/24;00:07:04;1.013;-0.015;0.113;-0.010995574295520782;-0.012217304669320583;0.0024434609804302454
01:00:0A:00:00:00:00;1722989225;07/08/24;00:07:05;1.012;-0.015;0.112;-0.010995574295520782;-0.012217304669320583;0.0024434609804302454
01:00:0A:00:00:00:00;1722989226;07/08/24;00:07:06;1.012;-0.014;0.113;-0.010995574295520782;-0.009773843921720982;0.0036651913542300463
01:00:0A:00:00:00:00;1722989227;07/08/24;00:07:07;1.012;-0.016;0.113;-0.010995574295520782;-0.013439035043120384;0.0024434609804302454
01:00:0A:00:00:00:00;1722989228;07/08/24;00:07:08;1.012;-0.015;0.113;-0.010995574295520782;-0.010995574295520782;0.0024434609804302454
01:00:0A:00:00:00:00;1722989229;07/08/24;00:07:09;1.012;-0.015;0.113;-0.012217304669320583;-0.012217304669320583;0.0036651913542300463
01:00:0A:00:00:00:00;1722989230;07/08/24;00:07:10;1.011;-0.016;0.112;-0.010995574295520782;-0.012217304669320583;0.0024434609804302454
01:00:0A:00:00:00:00;1722989231;07/08/24;00:07:11;1.013;-0.015;0.114;-0.010995574295520782;-0.010995574295520782;0.0024434609804302454
01:00:0A:00:00:00:00;1722989232;07/08/24;00:07:12;1.013;-0.015;0.112;-0.010995574295520782;-0.012217304669320583;0.0024434609804302454
01:00:0A:00:00:00:00;1722989233;07/08/24;00:07:13;1.013;-0.016;0.114;-0.010995574295520782;-0.010995574295520782;0.0024434609804302454
01:00:0A:00:00:00:00;1722989234;07/08/24;00:07:14;1.011;-0.015;0.113;-0.010995574295520782;-0.013439035043120384;0.0024434609804302454
01:00:0A:00:00:00:00;1722989235;07/08/24;00:07:15;1.012;-0.014;0.113;-0.010995574295520782;-0.009773843921720982;0.0024434609804302454
01:00:0A:00:00:00:00;1722989236;07/08/24;00:07:16;1.012;-0.015;0.113;-0.010995574295520782;-0.012217304669320583;0.0024434609804302454
01:00:0A:00:00:00:00;1722989237;07/08/24;00:07:17;1.013;-0.014;0.112;-0.010995574295520782;-0.010995574295520782;0.0024434609804302454
01:00:0A:00:00:00:00;1722989238;07/08/24;00:07:18;1.013;-0.014;0.114;-0.012217304669320583;-0.010995574295520782;0.0024434609804302454
01:00:0A:00:00:00:00;1722989239;07/08/24;00:07:19;1.012;-0.015;0.112;-0.010995574295520782;-0.012217304669320583;0.0024434609804302454
01:00:0A:00:00:00:00;1722989240;07/08/24;00:07:20;1.012;-0.016;0.113;-0.010995574295520782;-0.009773843921720982;0.0024434609804302454
01:00:0A:00:00:00:00;1722989241;07/08/24;00:07:21;1.014;-0.013;0.113;-0.010995574295520782;-0.012217304669320583;0.0036651913542300463
01:00:0A:00:00:00:00;1722989242;07/08/24;00:07:22;1.013;-0.015;0.113;-0.010995574295520782;-0.010995574295520782;0.0024434609804302454
01:00:0A:00:00:00:00;1722989243;07/08/24;00:07:23;1.013;-0.014;0.113;-0.010995574295520782;-0.012217304669320583;0.0024434609804302454
01:00:0A:00:00:00:00;1722989244;07/08/24;00:07:24;1.012;-0.014;0.113;-0.010995574295520782;-0.010995574295520782;0.0024434609804302454
01:00:0A:00:00:00:00;1722989245;07/08/24;00:07:25;1.012;-0.015;0.113;-0.010995574295520782;-0.010995574295520782;0.0024434609804302454
01:00:0A:00:00:00:00;1722989246;07/08/24;00:07:26;1.012;-0.014;0.113;-0.010995574295520782;-0.012217304669320583;0.0024434609804302454
01:00:0A:00:00:00:00;1722989247;07/08/24;00:07:27;1.012;-0.014;0.112;-0.010995574295520782;-0.010995574295520782;0.0036651913542300463
01:00:0A:00:00:00:00;1722989248;07/08/24;00:07:28;1.013;-0.015;0.113;-0.010995574295520782;-0.012217304669320583;0.0024434609804302454
01:00:0A:00:00:00:00;1722989249;07/08/24;00:07:29;1.012;-0.014;0.113;-0.010995574295520782;-0.010995574295520782;0.0024434609804302454
01:00:0A:00:00:00:00;1722989250;07/08/24;00:07:30;1.013;-0.016;0.114;-0.009773843921720982;-0.010995574295520782;0.0024434609804302454
01:00:0A:00:00:00:00;1722989251;07/08/24;00:07:31;1.013;-0.014;0.113;-0.009773843921720982;-0.012217304669320583;0.0024434609804302454
01:00:0A:00:00:00:00;1722989252;07/08/24;00:07:32;1.012;-0.015;0.113;-0.009773843921720982;-0.010995574295520782;0.0024434609804302454
01:00:0A:00:00:00:00;1722989253;07/08/24;00:07:33;1.013;-0.015;0.112;-0.009773843921720982;-0.012217304669320583;0.0024434609804302454
01:00:0A:00:00:00:00;1722989254;07/08/24;00:07:34;1.011;-0.014;0.112;-0.009773843921720982;-0.010995574295520782;0.0036651913542300463
01:00:0A:00:00:00:00;1722989255;07/08/24;00:07:35;1.012;-0.015;0.113;-0.009773843921720982;-0.012217304669320583;0.0024434609804302454
01:00:0A:00:00:00:00;1722989256;07/08/24;00:07:36;1.011;-0.013;0.112;-0.009773843921720982;-0.010995574295520782;0.0024434609804302454
01:00:0A:00:00:00:00;1722989257;07/08/24;00:07:37;1.011;-0.014;0.112;-0.009773843921720982;-0.010995574295520782;0.0024434609804302454
01:00:0A:00:00:00:00;1722989258;07/08/24;00:07:38;1.011;-0.014;0.112;-0.009773843921720982;-0.010995574295520782;0.0024434609804302454
01:00:0A:00:00:00:00;1722989259;07/08/24;00:07:39;1.011;-0.015;0.114;-0.009773843921720982;-0.010995574295520782;0.0036651913542300463
01:00:0A:00:00:00:00;1722989260;07/08/24;00:07:40;1.012;-0.015;0.113;-0.009773843921720982;-0.012217304669320583;0.0024434609804302454
01:00:0A:00:00:00:00;1722989261;07/08/24;00:07:41;1.012;-0.016;0.111;-0.009773843921720982;-0.010995574295520782;0.0024434609804302454
01:00:0A:00:00:00:00;1722989262;07/08/24;00:07:42;1.012;-0.015;0.113;-0.009773843921720982;-0.012217304669320583;0.0024434609804302454
01:00:0A:00:00:00:00;1722989263;07/08/24;00:07:43;1.013;-0.015;0.112;-0.009773843921720982;-0.010995574295520782;0.0024434609804302454
01:00:0A:00:00:00:00;1722989264;07/08/24;00:07:44;1.012;-0.015;0.113;-0.009773843921720982;-0.010995574295520782;0.0024434609804302454
01:00:0A:00:00:00:00;1722989265;07/08/24;00:07:45;1.013;-0.014;0.112;-0.009773843921720982;-0.012217304669320583;0.0024434609804302454
01:00:0A:00:00:00:00;1722989266;07/08/24;00:07:46;1.013;-0.014;0.112;-0.009773843921720982;-0.010995574295520782;0.0024434609804302454
01:00:0A:00:00:00:00;1722989267;07/08/24;00:07:47;1.012;-0.015;0.113;-0.009773843921720982;-0.012217304669320583;0.0024434609804302454
01:00:0A:00:00:00:00;1722989268;07/08/24;00:07:48;1.012;-0.015;0.113;-0.009773843921720982;-0.010995574295520782;0.0036651913542300463
01:00:0A:00:00:00:00;1722989269;07/08/24;00:07:49;1.012;-0.015;0.113;-0.00855211354792118;-0.012217304669320583;0.0024434609804302454
01:00:0A:00:00:00:00;1722989270;07/08/24;00:07:50;1.012;-0.015;0.113;-0.009773843921720982;-0.012217304669320583;0.0024434609804302454
01:00:0A:00:00:00:00;1722989271;07/08/24;00:07:51;1.013;-0.015;0.113;-0.009773843921720982;-0.010995574295520782;0.0036651913542300463
01:00:0A:00:00:00:00;1722989272;07/08/24;00:07:52;1.012;-0.013;0.112;-0.009773843921720982;-0.012217304669320583;0.0024434609804302454
01:00:0A:00:00:00:00;1722989273;07/08/24;00:07:53;1.011;-0.015;0.113;-0.009773843921720982;-0.010995574295520782;0.0036651913542300463
01:00:0A:00:00:00:00;1722989274;07/08/24;00:07:54;1.013;-0.015;0.113;-0.009773843921720982;-0.012217304669320583;0.0012217304902151227
01:00:0A:00:00:00:00;1722989275;07/08/24;00:07:55;1.012;-0.014;0.113;-0.009773843921720982;-0.010995574295520782;0.0036651913542300463
01:00:0A:00:00:00:00;1722989276;07/08/24;00:07:56;1.012;-0.015;0.113;-0.009773843921720982;-0.010995574295520782;0.0024434609804302454
01:00:0A:00:00:00:00;1722989277;07/08/24;00:07:57;1.013;-0.014;0.113;-0.009773843921720982;-0.010995574295520782;0.0024434609804302454
01:00:0A:00:00:00:00;1722989278;07/08/24;00:07:58;1.012;-0.015;0.113;-0.009773843921720982;-0.010995574295520782;0.0024434609804302454
01:00:0A:00:00:00:00;1722989279;07/08/24;00:07:59;1.013;-0.015;0.112;-0.009773843921720982;-0.012217304669320583;0.0024434609804302454
01:00:0A:00:00:00:00;1722989280;07/08/24;00:08:00;1.013;-0.014;0.112;-0.009773843921720982;-0.010995574295520782;0.0036651913542300463
01:00:0A:00:00:00:00;1722989281;07/08/24;00:08:01;1.012;-0.015;0.113;-0.009773843921720982;-0.012217304669320583;0.0024434609804302454
01:00:0A:00:00:00:00;1722989282;07/08/24;00:08:02;1.013;-0.014;0.113;-0.009773843921720982;-0.010995574295520782;0.0024434609804302454
01:00:0A:00:00:00:00;1722989283;07/08/24;00:08:03;1.012;-0.015;0.113;-0.009773843921720982;-0.012217304669320583;0.0024434609804302454
01:00:0A:00:00:00:00;1722989284;07/08/24;00:08:04;1.013;-0.014;0.113;-0.00855211354792118;-0.010995574295520782;0.0024434609804302454
01:00:0A:00:00:00:00;1722989285;07/08/24;00:08:05;1.013;-0.015;0.113;-0.009773843921720982;-0.010995574295520782;0.0036651913542300463
01:00:0A:00:00:00:00;1722989286;07/08/24;00:08:06;1.013;-0.015;0.113;-0.00855211354792118;-0.012217304669320583;0.0012217304902151227
01:00:0A:00:00:00:00;1722989287;07/08/24;00:08:07;1.012;-0.015;0.113;-0.00855211354792118;-0.010995574295520782;0.0036651913542300463
01:00:0A:00:00:00:00;1722989288;07/08/24;00:08:08;1.012;-0.015;0.113;-0.00855211354792118;-0.012217304669320583;0.0024434609804302454
01:00:0A:00:00:00:00;1722989289;07/08/24;00:08:09;1.014;-0.014;0.113;-0.009773843921720982;-0.010995574295520782;0.0036651913542300463
01:00:0A:00:00:00:00;1722989290;07/08/24;00:08:10;1.014;-0.015;0.114;-0.00855211354792118;-0.010995574295520782;0.0036651913542300463
01:00:0A:00:00:00:00;1722989291;07/08/24;00:08:11;1.012;-0.014;0.113;-0.00855211354792118;-0.012217304669320583;0.0024434609804302454
01:00:0A:00:00:00:00;1722989292;07/08/24;00:08:12;1.01;-0.015;0.112;-0.00855211354792118;-0.010995574295520782;0.0036651913542300463
01:00:0A:00:00:00:00;1722989293;07/08/24;00:08:13;1.012;-0.015;0.113;-0.00855211354792118;-0.012217304669320583;0.0024434609804302454
01:00:0A:00:00:00:00;1722989294;07/08/24;00:08:14;1.013;-0.014;0.112;-0.00855211354792118;-0.010995574295520782;0.0036651913542300463
01:00:0A:00:00:00:00;1722989295;07/08/24;00:08:15;1.012;-0.015;0.113;-0.00855211354792118;-0.012217304669320583;0.0024434609804302454
01:00:0A:00:00:00:00;1722989296;07/08/24;00:08:16;1.012;-0.014;0.112;-0.00855211354792118;-0.010995574295520782;0.0036651913542300463
01:00:0A:00:00:00:00;1722989297;07/08/24;00:08:17;1.012;-0.015;0.114;-0.00855211354792118;-0.010995574295520782;0.0024434609804302454
01:00:0A:00:00:00:00;1722989298;07/08/24;00:08:18;1.012;-0.015;0.113;-0.00855211354792118;-0.010995574295520782;0.0024434609804302454
01:00:0A:00:00:00:00;1722989299;07/08/24;00:08:19;1.012;-0.015;0.113;-0.00855211354792118;-0.010995574295520782;0.0036651913542300463
01:00:0A:00:00:00:00;1722989300;07/08/24;00:08:20;1.012;-0.016;0.112;-0.00855211354792118;-0.012217304669320583;0.0012217304902151227
01:00:0A:00:00:00:00;1722989301;07/08/24;00:08:21;1.012;-0.015;0.113;-0.00855211354792118;-0.010995574295520782;0.0036651913542300463
01:00:0A:00:00:00:00;1722989302;07/08/24;00:08:22;1.011;-0.014;0.113;-0.00855211354792118;-0.012217304669320583;0.0024434609804302454
01:00:0A:00:00:00:00;1722989303;07/08/24;00:08:23;1.013;-0.013;0.113;-0.00855211354792118;-0.010995574295520782;0.0024434609804302454
01:00:0A:00:00:00:00;1722989304;07/08/24;00:08:24;1.012;-0.015;0.114;-0.00855211354792118;-0.010995574295520782;0.0036651913542300463
01:00:0A:00:00:00:00;1722989305;07/08/24;00:08:25;1.012;-0.014;0.114;-0.00855211354792118;-0.010995574295520782;0.0024434609804302454
01:00:0A:00:00:00:00;1722989306;07/08/24;00:08:26;1.012;-0.015;0.113;-0.00855211354792118;-0.010995574295520782;0.0036651913542300463
01:00:0A:00:00:00:00;1722989307;07/08/24;00:08:27;1.013;-0.013;0.112;-0.00855211354792118;-0.012217304669320583;0.0024434609804302454
01:00:0A:00:00:00:00;1722989308;07/08/24;00:08:28;1.012;-0.015;0.113;-0.00855211354792118;-0.010995574295520782;0.0036651913542300463
01:00:0A:00:00:00:00;1722989309;07/08/24;00:08:29;1.012;-0.015;0.113;-0.00855211354792118;-0.010995574295520782;0.0024434609804302454
01:00:0A:00:00:00:00;1722989310;07/08/24;00:08:30;1.013;-0.013;0.112;-0.00855211354792118;-0.010995574295520782;0.0024434609804302454
01:00:0A:00:00:00:00;1722989311;07/08/24;00:08:31;1.014;-0.016;0.113;-0.00855211354792118;-0.010995574295520782;0.0036651913542300463
01:00:0A:00:00:00:00;1722989312;07/08/24;00:08:32;1.013;-0.014;0.112;-0.00855211354792118;-0.010995574295520782;0.0024434609804302454
01:00:0A:00:00:00:00;1722989313;07/08/24;00:08:33;1.012;-0.015;0.112;-0.00855211354792118;-0.010995574295520782;0.0036651913542300463
01:00:0A:00:00:00:00;1722989314;07/08/24;00:08:34;1.013;-0.015;0.113;-0.0073303827084600925;-0.012217304669320583;0.0024434609804302454
01:00:0A:00:00:00:00;1722989315;07/08/24;00:08:35;1.012;-0.015;0.113;-0.00855211354792118;-0.010995574295520782;0.0036651913542300463
01:00:0A:00:00:00:00;1722989316;07/08/24;00:08:36;1.013;-0.016;0.113;-0.00855211354792118;-0.010995574295520782;0.0036651913542300463
01:00:0A:00:00:00:00;1722989317;07/08/24;00:08:37;1.012;-0.016;0.113;-0.00855211354792118;-0.012217304669320583;0.0024434609804302454
01:00:0A:00:00:00:00;1722989318;07/08/24;00:08:38;1.012;-0.015;0.113;-0.00855211354792118;-0.010995574295520782;0.0036651913542300463
01:00:0A:00:00:00:00;1722989319;07/08/24;00:08:39;1.013;-0.014;0.113;-0.0073303827084600925;-0.012217304669320583;0.0024434609804302454
01:00:0A:00:00:00:00;1722989320;07/08/24;00:08:40;1.012;-0.014;0.112;-0.00855211354792118;-0.010995574295520782;0.0036651913542300463
01:00:0A:00:00:00:00;1722989321;07/08/24;00:08:41;1.012;-0.015;0.114;-0.0073303827084600925;-0.012217304669320583;0.0024434609804302454
01:00:0A:00:00:00:00;1722989322;07/08/24;00:08:42;1.012;-0.015;0.112;-0.00855211354792118;-0.010995574295520782;0.0036651913542300463
01:00:0A:00:00:00:00;1722989323;07/08/24;00:08:43;1.012;-0.015;0.112;-0.0073303827084600925;-0.010995574295520782;0.0024434609804302454
01:00:0A:00:00:00:00;1722989324;07/08/24;00:08:44;1.012;-0.014;0.113;-0.0073303827084600925;-0.010995574295520782;0.0024434609804302454
01:00:0A:00:00:00:00;1722989325;07/08/24;00:08:45;1.013;-0.015;0.112;-0.00855211354792118;-0.010995574295520782;0.0036651913542300463
01:00:0A:00:00:00:00;1722989326;07/08/24;00:08:46;1.013;-0.014;0.113;-0.0073303827084600925;-0.010995574295520782;0.0024434609804302454
01:00:0A:00:00:00:00;1722989327;07/08/24;00:08:47;1.013;-0.014;0.113;-0.00855211354792118;-0.010995574295520782;0.0036651913542300463
01:00:0A:00:00:00:00;1722989328;07/08/24;00:08:48;1.012;-0.014;0.112;-0.0073303827084600925;-0.010995574295520782;0.0024434609804302454
01:00:0A:00:00:00:00;1722989329;07/08/24;00:08:49;1.012;-0.013;0.113;-0.0073303827084600925;-0.010995574295520782;0.0036651913542300463
01:00:0A:00:00:00:00;1722989330;07/08/24;00:08:50;1.012;-0.015;0.113;-0.0073303827084600925;-0.010995574295520782;0.0036651913542300463
01:00:0A:00:00:00:00;1722989331;07/08/24;00:08:51;1.012;-0.014;0.112;-0.0073303827084600925;-0.010995574295520782;0.0024434609804302454
01:00:0A:00:00:00:00;1722989332;07/08/24;00:08:52;1.012;-0.015;0.113;-0.0073303827084600925;-0.010995574295520782;0.0036651913542300463
01:00:0A:00:00:00:00;1722989333;07/08/24;00:08:53;1.013;-0.014;0.113;-0.0073303827084600925;-0.010995574295520782;0.0024434609804302454
01:00:0A:00:00:00:00;1722989334;07/08/24;00:08:54;1.013;-0.014;0.112;-0.0073303827084600925;-0.010995574295520782;0.0036651913542300463
01:00:0A:00:00:00:00;1722989335;07/08/24;00:08:55;1.013;-0.014;0.113;-0.0073303827084600925;-0.010995574295520782;0.0024434609804302454
01:00:0A:00:00:00:00;1722989336;07/08/24;00:08:56;1.012;-0.015;0.112;-0.0073303827084600925;-0.010995574295520782;0.0024434609804302454
01:00:0A:00:00:00:00;1722989337;07/08/24;00:08:57;1.013;-0.014;0.113;-0.0073303827084600925;-0.010995574295520782;0.0024434609804302454
01:00:0A:00:00:00:00;1722989338;07/08/24;00:08:58;1.011;-0.015;0.113;-0.0073303827084600925;-0.012217304669320583;0.0024434609804302454
01:00:0A:00:00:00:00;1722989339;07/08/24;00:08:59;1.012;-0.015;0.114;-0.0073303827084600925;-0.010995574295520782;0.0036651913542300463
01:00:0A:00:00:00:00;1722989340;07/08/24;00:09:00;1.012;-0.016;0.113;-0.0073303827084600925;-0.010995574295520782;0.0024434609804302454
01:00:0A:00:00:00:00;1722989341;07/08/24;00:09:01;1.012;-0.014;0.112;-0.0073303827084600925;-0.010995574295520782;0.0036651913542300463
01:00:0A:00:00:00:00;1722989342;07/08/24;00:09:02;1.013;-0.015;0.113;-0.0073303827084600925;-0.010995574295520782;0.0024434609804302454
01:00:0A:00:00:00:00;1722989343;07/08/24;00:09:03;1.013;-0.013;0.113;-0.0073303827084600925;-0.010995574295520782;0.0036651913542300463
01:00:0A:00:00:00:00;1722989344;07/08/24;00:09:04;1.012;-0.015;0.112;-0.0073303827084600925;-0.010995574295520782;0.0036651913542300463
01:00:0A:00:00:00:00;1722989345;07/08/24;00:09:05;1.012;-0.013;0.112;-0.0073303827084600925;-0.010995574295520782;0.0024434609804302454
01:00:0A:00:00:00:00;1722989346;07/08/24;00:09:06;1.013;-0.016;0.113;-0.0073303827084600925;-0.010995574295520782;0.0036651913542300463
01:00:0A:00:00:00:00;1722989347;07/08/24;00:09:07;1.012;-0.014;0.112;-0.0073303827084600925;-0.010995574295520782;0.0024434609804302454
01:00:0A:00:00:00:00;1722989348;07/08/24;00:09:08;1.012;-0.014;0.113;-0.0073303827084600925;-0.012217304669320583;0.0036651913542300463
01:00:0A:00:00:00:00;1722989349;07/08/24;00:09:09;1.011;-0.015;0.113;-0.0073303827084600925;-0.010995574295520782;0.0024434609804302454
01:00:0A:00:00:00:00;1722989350;07/08/24;00:09:10;1.012;-0.014;0.113;-0.006108652334660292;-0.010995574295520782;0.0024434609804302454
01:00:0A:00:00:00:00;1722989351;07/08/24;00:09:11;1.012;-0.015;0.112;-0.0073303827084600925;-0.010995574295520782;0.0036651913542300463
01:00:0A:00:00:00:00;1722989352;07/08/24;00:09:12;1.011;-0.015;0.114;-0.0073303827084600925;-0.010995574295520782;0.0024434609804302454
01:00:0A:00:00:00:00;1722989353;07/08/24;00:09:13;1.012;-0.015;0.113;-0.0073303827084600925;-0.012217304669320583;0.0036651913542300463
01:00:0A:00:00:00:00;1722989354;07/08/24;00:09:14;1.012;-0.015;0.112;-0.006108652334660292;-0.010995574295520782;0.0024434609804302454
01:00:0A:00:00:00:00;1722989355;07/08/24;00:09:15;1.012;-0.014;0.113;-0.0073303827084600925;-0.010995574295520782;0.0036651913542300463
01:00:0A:00:00:00:00;1722989356;07/08/24;00:09:16;1.012;-0.015;0.113;-0.0073303827084600925;-0.010995574295520782;0.0036651913542300463
01:00:0A:00:00:00:00;1722989357;07/08/24;00:09:17;1.012;-0.014;0.114;-0.0073303827084600925;-0.010995574295520782;0.0024434609804302454
01:00:0A:00:00:00:00;1722989358;07/08/24;00:09:18;1.013;-0.015;0.112;-0.0073303827084600925;-0.012217304669320583;0.0036651913542300463
01:00:0A:00:00:00:00;1722989359;07/08/24;00:09:19;1.012;-0.015;0.113;-0.006108652334660292;-0.010995574295520782;0.0024434609804302454
01:00:0A:00:00:00:00;1722989360;07/08/24;00:09:20;1.012;-0.014;0.113;-0.0073303827084600925;-0.012217304669320583;0.0036651913542300463
01:00:0A:00:00:00:00;1722989361;07/08/24;00:09:21;1.012;-0.015;0.113;-0.0073303827084600925;-0.010995574295520782;0.0024434609804302454
01:00:0A:00:00:00:00;1722989362;07/08/24;00:09:22;1.011;-0.014;0.114;-0.0073303827084600925;-0.010995574295520782;0.0036651913542300463
01:00:0A:00:00:00:00;1722989363;07/08/24;00:09:23;1.012;-0.015;0.112;-0.0073303827084600925;-0.010995574295520782;0.0024434609804302454
01:00:0A:00:00:00:00;1722989364;07/08/24;00:09:24;1.012;-0.014;0.112;-0.006108652334660292;-0.010995574295520782;0.0024434609804302454
01:00:0A:00:00:00:00;1722989365;07/08/24;00:09:25;1.012;-0.015;0.112;-0.0073303827084600925;-0.012217304669320583;0.0036651913542300463
01:00:0A:00:00:00:00;1722989366;07/08/24;00:09:26;1.014;-0.015;0.112;-0.006108652334660292;-0.010995574295520782;0.0024434609804302454
01:00:0A:00:00:00:00;1722989367;07/08/24;00:09:27;1.012;-0.015;0.113;-0.0073303827084600925;-0.010995574295520782;0.0036651913542300463
01:00:0A:00:00:00:00;1722989368;07/08/24;00:09:28;1.012;-0.015;0.113;-0.006108652334660292;-0.010995574295520782;0.0024434609804302454
01:00:0A:00:00:00:00;1722989369;07/08/24;00:09:29;1.013;-0.014;0.113;-0.006108652334660292;-0.010995574295520782;0.0036651913542300463
01:00:0A:00:00:00:00;1722989370;07/08/24;00:09:30;1.013;-0.015;0.113;-0.006108652334660292;-0.012217304669320583;0.0036651913542300463
01:00:0A:00:00:00:00;1722989371;07/08/24;00:09:31;1.012;-0.015;0.113;-0.006108652334660292;-0.010995574295520782;0.0024434609804302454
01:00:0A:00:00:00:00;1722989372;07/08/24;00:09:32;1.012;-0.014;0.113;-0.006108652334660292;-0.010995574295520782;0.0036651913542300463
01:00:0A:00:00:00:00;1722989373;07/08/24;00:09:33;1.012;-0.015;0.113;-0.006108652334660292;-0.010995574295520782;0.0024434609804302454
01:00:0A:00:00:00:00;1722989374;07/08/24;00:09:34;1.012;-0.015;0.113;-0.006108652334660292;-0.010995574295520782;0.0036651913542300463
01:00:0A:00:00:00:00;1722989375;07/08/24;00:09:35;1.013;-0.015;0.113;-0.006108652334660292;-0.010995574295520782;0.0036651913542300463
01:00:0A:00:00:00:00;1722989376;07/08/24;00:09:36;1.012;-0.014;0.114;-0.004886921960860491;-0.010995574295520782;0.0036651913542300463
01:00:0A:00:00:00:00;1722989377;07/08/24;00:09:37;1.013;-0.014;0.113;-0.006108652334660292;-0.010995574295520782;0.0036651913542300463
01:00:0A:00:00:00:00;1722989378;07/08/24;00:09:38;1.012;-0.014;0.113;-0.004886921960860491;-0.010995574295520782;0.0024434609804302454
01:00:0A:00:00:00:00;1722989379;07/08/24;00:09:39;1.011;-0.015;0.114;-0.006108652334660292;-0.012217304669320583;0.0036651913542300463
01:00:0A:00:00:00:00;1722989380;07/08/24;00:09:40;1.013;-0.015;0.113;-0.004886921960860491;-0.010995574295520782;0.0024434609804302454
01:00:0A:00:00:00:00;1722989381;07/08/24;00:09:41;1.012;-0.015;0.112;-0.004886921960860491;-0.010995574295520782;0.0036651913542300463
01:00:0A:00:00:00:00;1722989382;07/08/24;00:09:42;1.012;-0.015;0.113;-0.004886921960860491;-0.010995574295520782;0.0024434609804302454
01:00:0A:00:00:00:00;1722989383;07/08/24;00:09:43;1.012;-0.015;0.114;-0.004886921960860491;-0.010995574295520782;0.0036651913542300463
01:00:0A:00:00:00:00;1722989384;07/08/24;00:09:44;1.012;-0.015;0.114;-0.004886921960860491;-0.012217304669320583;0.0036651913542300463
01:00:0A:00:00:00:00;1722989385;07/08/24;00:09:45;1.012;-0.015;0.113;-0.004886921960860491;-0.010995574295520782;0.0024434609804302454
01:00:0A:00:00:00:00;1722989386;07/08/24;00:09:46;1.013;-0.015;0.113;-0.004886921960860491;-0.010995574295520782;0.0036651913542300463
01:00:0A:00:00:00:00;1722989387;07/08/24;00:09:47;1.011;-0.015;0.114;-0.004886921960860491;-0.010995574295520782;0.0036651913542300463
01:00:0A:00:00:00:00;1722989388;07/08/24;00:09:48;1.012;-0.014;0.113;-0.004886921960860491;-0.012217304669320583;0.0036651913542300463
01:00:0A:00:00:00:00;1722989389;07/08/24;00:09:49;1.011;-0.015;0.113;-0.004886921960860491;-0.010995574295520782;0.0036651913542300463
01:00:0A:00:00:00:00;1722989390;07/08/24;00:09:50;1.013;-0.014;0.113;-0.0036651913542300463;-0.010995574295520782;0.0036651913542300463
01:00:0A:00:00:00:00;1722989391;07/08/24;00:09:51;1.012;-0.015;0.113;-0.0036651913542300463;-0.010995574295520782;0.0036651913542300463
01:00:0A:00:00:00:00;1722989392;07/08/24;00:09:52;1.012;-0.014;0.113;-0.004886921960860491;-0.010995574295520782;0.0024434609804302454
01:00:0A:00:00:00:00;1722989393;07/08/24;00:09:53;1.013;-0.014;0.113;-0.004886921960860491;-0.012217304669320583;0.0036651913542300463
01:00:0A:00:00:00:00;1722989394;07/08/24;00:09:54;1.012;-0.015;0.113;-0.0036651913542300463;-0.010995574295520782;0.0036651913542300463
01:00:0A:00:00:00:00;1722989395;07/08/24;00:09:55;1.012;-0.015;0.112;-0.0036651913542300463;-0.010995574295520782;0.0036651913542300463
01:00:0A:00:00:00:00;1722989396;07/08/24;00:09:56;1.012;-0.015;0.113;-0.0036651913542300463;-0.010995574295520782;0.0036651913542300463
01:00:0A:00:00:00:00;1722989397;07/08/24;00:09:57;1.013;-0.014;0.112;-0.0036651913542300463;-0.010995574295520782;0.0024434609804302454
01:00:0A:00:00:00:00;1722989398;07/08/24;00:09:58;1.012;-0.015;0.113;-0.0036651913542300463;-0.012217304669320583;0.0036651913542300463
01:00:0A:00:00:00:00;1722989399;07/08/24;00:09:59;1.012;-0.015;0.112;-0.0036651913542300463;-0.010995574295520782;0.0024434609804302454
01:00:0A:00:00:00:00;1722989400;07/08/24;00:10:00;1.011;-0.014;0.114;-0.0036651913542300463;-0.012217304669320583;0.0036651913542300463
01:00:0A:00:00:00:00;1722989401;07/08/24;00:10:01;1.012;-0.015;0.113;-0.0036651913542300463;-0.010995574295520782;0.0036651913542300463
01:00:0A:00:00:00:00;1722989402;07/08/24;00:10:02;1.012;-0.015;0.114;-0.0036651913542300463;-0.010995574295520782;0.0036651913542300463
01:00:0A:00:00:00:00;1722989403;07/08/24;00:10:03;1.012;-0.015;0.112;-0.0036651913542300463;-0.010995574295520782;0.0036651913542300463
01:00:0A:00:00:00:00;1722989404;07/08/24;00:10:04;1.012;-0.015;0.112;-0.0036651913542300463;-0.010995574295520782;0.0024434609804302454
01:00:0A:00:00:00:00;1722989405;07/08/24;00:10:05;1.013;-0.015;0.113;-0.0036651913542300463;-0.012217304669320583;0.0036651913542300463
01:00:0A:00:00:00:00;1722989406;07/08/24;00:10:06;1.012;-0.015;0.112;-0.0024434609804302454;-0.010995574295520782;0.0036651913542300463
01:00:0A:00:00:00:00;1722989407;07/08/24;00:10:07;1.013;-0.015;0.113;-0.0036651913542300463;-0.012217304669320583;0.0036651913542300463
01:00:0A:00:00:00:00;1722989408;07/08/24;00:10:08;1.011;-0.015;0.113;-0.0036651913542300463;-0.010995574295520782;0.0036651913542300463
01:00:0A:00:00:00:00;1722989409;07/08/24;00:10:09;1.012;-0.015;0.113;-0.0036651913542300463;-0.010995574295520782;0.0036651913542300463
01:00:0A:00:00:00:00;1722989410;07/08/24;00:10:10;1.013;-0.015;0.112;-0.0036651913542300463;-0.012217304669320583;0.0036651913542300463
01:00:0A:00:00:00:00;1722989411;07/08/24;00:10:11;0.833;0.089;0.284;0.05864306166768074;1.6505578756332397;-0.891863226890564
01:00:0A:00:00:00:00;1722989412;07/08/24;00:10:12;1.048;-0.066;-0.027;-0.6181955933570862;-0.740368664264679;0.836885392665863
01:00:0A:00:00:00:00;1722989413;07/08/24;00:10:13;1.008;-0.161;0.091;-0.07208210229873657;1.5845844745635986;-0.5815436840057373
01:00:0A:00:00:00:00;1722989414;07/08/24;00:10:14;0.931;0.22;0.22;-0.7061601877212524;-1.1911872625350952;0.13072516024112701
01:00:0A:00:00:00:00;1722989415;07/08/24;00:10:15;0.912;-0.134;0.028;-1.0726792812347412;0.11239919811487198;-0.10262535512447357
01:00:0A:00:00:00:00;1722989416;07/08/24;00:10:16;0.832;0.122;0.669;-0.9737191796302795;0.7159340977668762;-0.7037167549133301
01:00:0A:00:00:00:00;1722989417;07/08/24;00:10:17;1.03;-0.019;-0.206;-0.9834930300712585;-0.5546656250953674;-0.1258382350206375
01:00:0A:00:00:00:00;1722989418;07/08/24;00:10:18;1.033;-0.036;0.474;-0.959058403968811;0.43249258399009705;-0.0073303827084600925
01:00:0A:00:00:00:00;1722989419;07/08/24;00:10:19;0.976;0.155;-0.154;-0.8417722582817078;-0.5681046843528748;-0.47769662737846375
01:00:0A:00:00:00:00;1722989420;07/08/24;00:10:20;0.927;0.062;0.248;-0.8197811245918274;-1.6713272333145142;-0.10751228034496307
01:00:0A:00:00:00:00;1722989421;07/08/24;00:10:21;0.871;0.365;-0.265;-1.0238101482391357;0.12461651116609573;0.28466320037841797
01:00:0A:00:00:00:00;1722989422;07/08/24;00:10:22;0.927;-0.05;0.439;-1.320690631866455;0.4092797040939331;-1.4208725690841675
01:00:0A:00:00:00:00;1722989423;07/08/24;00:10:23;0.964;0.27;0.081;-2.00730299949646;-1.1410963535308838;-0.06475171446800232
01:00:0A:00:00:00:00;1722989424;07/08/24;00:10:24;0.975;0.129;-0.026;-2.1649065017700195;-0.3799581527709961;0.23335053026676178
01:00:0A:00:00:00:00;1722989425;07/08/24;00:10:25;0.88;-0.345;0.489;-2.1893410682678223;-0.6389650106430054;-0.004886921960860491
01:00:0A:00:00:00:00;1722989426;07/08/24;00:10:26;0.957;-0.154;0.065;-1.3060299158096313;1.4257594347000122;-0.03298672288656235
01:00:0A:00:00:00:00;1722989427;07/08/24;00:10:27;0.963;-0.089;0.102;-0.7024949789047241;-0.20036379992961884;-0.4153883755207062
01:00:0A:00:00:00:00;1722989428;07/08/24;00:10:28;0.774;0.76;0.285;-0.36529743671417236;-0.31154125928878784;-0.5925393104553223
01:00:0A:00:00:00:00;1722989429;07/08/24;00:10:29;0.876;-0.562;-0.337;-0.39828410744667053;-0.004886921960860491;0.34208452701568604
01:00:0A:00:00:00:00;1722989430;07/08/24;00:10:30;1.05;-0.027;0.065;0.34208452701568604;0.0354301817715168;-1.2840386629104614
01:00:0A:00:00:00:00;1722989431;07/08/24;00:10:31;0.87;0.302;-0.292;-0.22357667982578278;-0.5558874011039734;0.20402899384498596
01:00:0A:00:00:00:00;1722989432;07/08/24;00:10:32;0.941;-0.434;0.064;-0.1673770695924759;0.6084217429161072;0.6792821884155273
01:00:0A:00:00:00:00;1722989433;07/08/24;00:10:33;1.05;-0.16;0.065;0.3494149148464203;-0.1160643920302391;-0.7061601877212524
01:00:0A:00:00:00:00;1722989434;07/08/24;00:10:34;1.041;0.204;-0.017;-1.2620476484298706;-0.7269296050071716;0.3933972120285034
01:00:0A:00:00:00:00;1722989435;07/08/24;00:10:35;1.022;-0.178;0.039;-1.1227703094482422;0.09040805697441101;0.26633724570274353
01:00:0A:00:00:00:00;1722989436;07/08/24;00:10:36;0.979;0.077;0.202;-1.0958921909332275;0.02932153083384037;-0.20036379992961884
01:00:0A:00:00:00:00;1722989437;07/08/24;00:10:37;0.971;-0.152;0.106;-1.0653489828109741;-0.44715335965156555;-0.15515977144241333
01:00:0A:00:00:00:00;1722989438;07/08/24;00:10:38;0.915;0.176;0.063;-0.8002334833145142;-0.0073303827084600925;0.8332201242446899
01:00:0A:00:00:00:00;1722989439;07/08/24;00:10:39;0.966;0.096;0.172;0.30543261766433716;-0.3494149148464203;-1.2877038717269897
01:00:0A:00:00:00:00;1722989440;07/08/24;00:10:40;0.951;0.096;0.187;-0.24678954482078552;0.11362093687057495;0.7281513810157776
01:00:0A:00:00:00:00;1722989441;07/08/24;00:10:41;0.751;0.502;0.356;-0.8735373020172119;-0.21135938167572021;0.6670648455619812
01:00:0A:00:00:00:00;1722989442;07/08/24;00:10:42;0.946;-0.217;0.297;-0.875980794429779;-1.0714576244354248;-0.7147123217582703
01:00:0A:00:00:00:00;1722989443;07/08/24;00:10:43;0.813;0.573;-0.292;-1.4611897468566895;-0.17470745742321014;0.8100073337554932
01:00:0A:00:00:00:00;1722989444;07/08/24;00:10:44;1.048;-0.25;0.004;-1.281595230102539;0.22968533635139465;0.16249015927314758
01:00:0A:00:00:00:00;1722989445;07/08/24;00:10:45;0.899;0.619;-0.174;-0.6658430695533752;-0.4703662395477295;-0.6291911602020264
01:00:0A:00:00:00:00;1722989446;07/08/24;00:10:46;0.939;-0.237;0.566;-0.9358454942703247;0.1258382350206375;0.0036651913542300463
01:00:0A:00:00:00:00;1722989447;07/08/24;00:10:47;0.974;0.319;0.389;-0.6878342032432556;0.14416420459747314;-0.49724429845809937
01:00:0A:00:00:00:00;1722989448;07/08/24;00:10:48;1.029;-0.056;0.207;-0.7086036801338196;-0.080634206533432;0.009773843921720982
01:00:0A:00:00:00:00;1722989449;07/08/24;00:10:49;0.985;0.033;-0.009;-0.5326744914054871;-0.1417207270860672;-0.12828169763088226
01:00:0A:00:00:00:00;1722989450;07/08/24;00:10:50;0.899;0.217;0.212;-1.470963478088379;-0.09773843735456467;1.282817006111145
01:00:0A:00:00:00:00;1722989451;07/08/24;00:10:51;0.967;0.018;-0.003;-0.8881980776786804;0.2272418737411499;-0.7831292152404785
01:00:0A:00:00:00:00;1722989452;07/08/24;00:10:52;0.943;-0.12;0.3;0.10384709388017654;-0.13927726447582245;0.5375614166259766
01:00:0A:00:00:00:00;1722989453;07/08/24;00:10:53;0.845;0.385;-0.072;-0.10018189996480942;-0.051312677562236786;-0.5375614166259766
01:00:0A:00:00:00:00;1722989454;07/08/24;00:10:54;0.952;0.072;-0.034;-0.7819074988365173;-0.485027015209198;1.2547171115875244
01:00:0A:00:00:00:00;1722989455;07/08/24;00:10:55;0.946;-0.173;0.013;-0.49846604466438293;0.33597588539123535;-0.13316862285137177
01:00:0A:00:00:00:00;1722989456;07/08/24;00:10:56;1.018;0.069;-0.162;-0.588874101638794;-0.251676470041275;0.21868975460529327
01:00:0A:00:00:00:00;1722989457;07/08/24;00:10:57;0.932;-0.434;0.182;-0.1417207270860672;1.0506882667541504;-0.8417722582817078
01:00:0A:00:00:00:00;1722989458;07/08/24;00:10:58;0.717;-0.089;0.715;-0.14294245839118958;0.18814648687839508;-0.14416420459747314
01:00:0A:00:00:00:00;1722989459;07/08/24;00:10:59;0.951;0.111;0.269;-0.2675589621067047;-1.1496483087539673;-0.5143485069274902
01:00:0A:00:00:00:00;1722989460;07/08/24;00:11:00;0.956;0.082;-0.283;-0.5277875661849976;-0.24190263450145721;0.5473352670669556
01:00:0A:00:00:00:00;1722989461;07/08/24;00:11:01;0.934;-0.371;0.203;-0.1563815027475357;0.39584067463874817;0.11972958594560623
01:00:0A:00:00:00:00;1722989462;07/08/24;00:11:02;0.943;-0.094;0.431;0.036651913076639175;-0.46303585171699524;-0.7098253965377808
01:00:0A:00:00:00:00;1722989463;07/08/24;00:11:03;0.826;0.424;0.544;-0.33719760179519653;0.006108652334660292;-0.00855211354792118
01:00:0A:00:00:00:00;1722989464;07/08/24;00:11:04;0.994;-0.265;0.366;-0.4789183437824249;-0.38240164518356323;-0.5778785347938538
01:00:0A:00:00:00:00;1722989465;07/08/24;00:11:05;1.005;0.444;0.115;-0.6475171446800232;-0.3433062732219696;-0.10506881773471832
01:00:0A:00:00:00:00;1722989466;07/08/24;00:11:06;1.051;0.152;0.009;-1.0103710889816284;-0.5839871764183044;-0.13316862285137177
01:00:0A:00:00:00:00;1722989467;07/08/24;00:11:07;0.992;0.148;-0.132;-1.197295904159546;-0.485027015209198;0.6756169199943542
01:00:0A:00:00:00:00;1722989468;07/08/24;00:11:08;0.909;-0.432;0.228;-1.1203267574310303;1.2363911867141724;0.251676470041275
01:00:0A:00:00:00:00;1722989469;07/08/24;00:11:09;1.047;-0.027;0.141;-0.8564330339431763;-0.5192354917526245;-0.5375614166259766
01:00:0A:00:00:00:00;1722989470;07/08/24;00:11:10;0.994;0.126;-0.248;-0.8234463334083557;0.039095375686883926;-0.03787364438176155
01:00:0A:00:00:00:00;1722989471;07/08/24;00:11:11;0.976;0.123;0.322;-1.0091493129730225;0.3078760802745819;0.09529497474431992
01:00:0A:00:00:00:00;1722989472;07/08/24;00:11:12;0.893;0.203;-0.406;-0.7550294399261475;-0.33964109420776367;0.2834414541721344
01:00:0A:00:00:00:00;1722989473;07/08/24;00:11:13;0.986;0.101;0.61;-0.9053022265434265;-0.15882496535778046;0.24068090319633484
01:00:0A:00:00:00:00;1722989474;07/08/24;00:11:14;0.85;0.076;-0.389;-0.09529497474431992;0.3677408695220947;-0.587652325630188
01:00:0A:00:00:00:00;1722989475;07/08/24;00:11:15;0.914;0.032;0.294;-0.07819075137376785;0.6633996367454529;0.4642575681209564
01:00:0A:00:00:00:00;1722989476;07/08/24;00:11:16;0.903;-0.049;-0.302;0.16859880089759827;-0.5448917746543884;-0.04153883829712868
01:00:0A:00:00:00:00;1722989477;07/08/24;00:11:17;0.988;0.087;0.021;0.4911356568336487;0.9395107626914978;-0.6658430695533752
01:00:0A:00:00:00:00;1722989478;07/08/24;00:11:18;0.671;0.622;0.351;-0.32131510972976685;-1.1740829944610596;0.06475171446800232
01:00:0A:00:00:00:00;1722989479;07/08/24;00:11:19;0.885;0.322;0.195;-0.8930849432945251;-0.1319468915462494;0.9676105380058289
01:00:0A:00:00:00:00;1722989480;07/08/24;00:11:20;0.984;-0.024;0.068;-0.6707300543785095;0.10506881773471832;0.042760565876960754
01:00:0A:00:00:00:00;1722989481;07/08/24;00:11:21;0.99;0.0;0.315;-0.5571090579032898;-0.15393804013729095;-0.14905111491680145
01:00:0A:00:00:00:00;1722989482;07/08/24;00:11:22;1.009;0.029;0.29;-0.6658430695533752;-0.19058994948863983;-0.02076941914856434
01:00:0A:00:00:00:00;1722989483;07/08/24;00:11:23;1.011;-0.096;0.031;-0.6475171446800232;-0.05497787147760391;0.18081611394882202
01:00:0A:00:00:00:00;1722989484;07/08/24;00:11:24;0.989;-0.095;0.173;-0.4447098970413208;0.32498031854629517;-0.08674286305904388
01:00:0A:00:00:00:00;1722989485;07/08/24;00:11:25;0.994;-0.035;0.181;-0.4043927788734436;-0.21135938167572021;-0.294437050819397
01:00:0A:00:00:00:00;1722989486;07/08/24;00:11:26;1.002;0.132;0.024;-0.42638394236564636;-0.12828169763088226;-0.21502456068992615
01:00:0A:00:00:00:00;1722989487;07/08/24;00:11:27;0.939;0.14;0.339;-0.7574728727340698;0.1771509200334549;-0.024434609338641167
01:00:0A:00:00:00:00;1722989488;07/08/24;00:11:28;1.023;-0.024;0.046;-1.0067058801651;0.10384709388017654;0.20647244155406952
01:00:0A:00:00:00:00;1722989489;07/08/24;00:11:29;1.047;-0.021;0.039;-0.685390830039978;0.19303341209888458;-0.901637077331543
01:00:0A:00:00:00:00;1722989490;07/08/24;00:11:30;0.859;-0.207;0.361;-0.6291911602020264;0.3946189284324646;0.39706242084503174
01:00:0A:00:00:00:00;1722989491;07/08/24;00:11:31;0.996;0.023;0.201;-0.28466320037841797;0.32131510972976685;-0.5009095072746277
01:00:0A:00:00:00:00;1722989492;07/08/24;00:11:32;0.832;-0.342;0.429;-0.24678954482078552;-0.17592918872833252;0.20647244155406952
01:00:0A:00:00:00:00;1722989493;07/08/24;00:11:33;0.941;-0.321;0.231;0.12828169763088226;-0.22113320231437683;0.05009094998240471
01:00:0A:00:00:00:00;1722989494;07/08/24;00:11:34;1.021;0.089;0.051;0.2431243658065796;-0.03420845419168472;-0.40194931626319885
01:00:0A:00:00:00:00;1722989495;07/08/24;00:11:35;1.059;-0.053;-0.013;-0.0354301817715168;-0.1111774742603302;0.2565633952617645
01:00:0A:00:00:00:00;1722989496;07/08/24;00:11:36;1.033;-0.234;0.362;-0.059864792972803116;0.5754350423812866;-0.0354301817715168
01:00:0A:00:00:00:00;1722989497;07/08/24;00:11:37;0.706;-0.5;0.692;-0.021991148591041565;-0.35674530267715454;-0.03298672288656235
01:00:0A:00:00:00:00;1722989498;07/08/24;00:11:38;0.897;-0.255;0.578;0.7232644557952881;-0.3042108714580536;0.455705463886261
01:00:0A:00:00:00:00;1722989499;07/08/24;00:11:39;1.007;-0.204;-0.193;0.5216788649559021;-0.4960225820541382;-0.14905111491680145
01:00:0A:00:00:00:00;1722989500;07/08/24;00:11:40;0.961;-0.106;0.263;-0.21013763546943665;1.0616837739944458;-0.5082398653030396
01:00:0A:00:00:00:00;1722989501;07/08/24;00:11:41;0.845;-0.202;-0.172;-0.8613200187683105;0.6524040699005127;1.7507396936416626
01:00:0A:00:00:00:00;1722989502;07/08/24;00:11:42;0.808;0.635;0.302;-1.2498303651809692;-0.6157521605491638;-1.881464958190918
01:00:0A:00:00:00:00;1722989503;07/08/24;00:11:43;1.076;0.083;-0.029;-2.2956316471099854;-0.9248499870300293;0.8051203489303589
01:00:0A:00:00:00:00;1722989504;07/08/24;00:11:44;0.856;-0.059;-0.539;-0.6438519358634949;0.5070181488990784;-0.11850785464048386
01:00:0A:00:00:00:00;1722989505;07/08/24;00:11:45;0.895;0.401;0.171;-0.8662068843841553;-0.4239404499530792;-1.5198326110839844
01:00:0A:00:00:00:00;1722989506;07/08/24;00:11:46;1.198;0.132;-0.066;-0.6365215182304382;0.04886921867728233;0.5448917746543884
01:00:0A:00:00:00:00;1722989507;07/08/24;00:11:47;0.787;0.528;0.252;-1.6187928915023804;-0.8698720932006836;-0.6414085030555725
01:00:0A:00:00:00:00;1722989508;07/08/24;00:11:48;0.853;0.463;0.167;-2.0928242206573486;-1.5894713401794434;-0.09162978082895279
01:00:0A:00:00:00:00;1722989509;07/08/24;00:11:49;0.878;0.332;-0.275;-2.356718063354492;-1.1215485334396362;0.13439035415649414
01:00:0A:00:00:00:00;1722989510;07/08/24;00:11:50;1.034;0.0;0.007;-2.059837579727173;0.08918632566928864;0.05742133408784866
01:00:0A:00:00:00:00;1722989511;07/08/24;00:11:51;0.976;0.092;0.227;-1.1594222784042358;0.6682865619659424;-0.8735373020172119
01:00:0A:00:00:00:00;1722989512;07/08/24;00:11:52;0.956;0.126;0.137;-1.4758504629135132;-1.0067058801651;0.5815436840057373
01:00:0A:00:00:00:00;1722989513;07/08/24;00:11:53;0.935;-0.018;0.209;-1.186300277709961;0.4899139106273651;-0.02687807008624077
01:00:0A:00:00:00:00;1722989514;07/08/24;00:11:54;0.923;0.266;0.337;-1.7067574262619019;-0.949284553527832;-0.9187413454055786
01:00:0A:00:00:00:00;1722989515;07/08/24;00:11:55;0.802;0.736;-0.095;-2.607172966003418;-2.087937355041504;-1.3634511232376099
01:00:0A:00:00:00:00;1722989516;07/08/24;00:11:56;0.98;-0.239;-0.202;-2.285857677459717;0.20036379992961884;0.012217304669320583
01:00:0A:00:00:00:00;1722989517;07/08/24;00:11:57;1.014;-0.062;0.284;-1.859473705291748;0.33964109420776367;-0.10018189996480942
01:00:0A:00:00:00:00;1722989518;07/08/24;00:11:58;0.898;-0.135;0.603;-1.2571606636047363;-0.2919935882091522;-0.5155702233314514
01:00:0A:00:00:00:00;1722989519;07/08/24;00:11:59;0.901;0.515;-0.115;-1.3671163320541382;-0.014660765416920185;-0.39217546582221985
01:00:0A:00:00:00:00;1722989520;07/08/24;00:12:00;0.983;-0.155;0.182;-1.5332716703414917;-0.5571090579032898;-0.03420845419168472
01:00:0A:00:00:00:00;1722989521;07/08/24;00:12:01;0.905;0.297;0.345;-1.3084733486175537;0.3604104816913605;-0.042760565876960754
01:00:0A:00:00:00:00;1722989522;07/08/24;00:12:02;1.051;-0.108;0.148;-1.1520917415618896;-1.1911872625350952;-0.5290092825889587
01:00:0A:00:00:00:00;1722989523;07/08/24;00:12:03;0.936;0.331;-0.138;-1.1264355182647705;0.17104226350784302;0.4202752709388733
01:00:0A:00:00:00:00;1722989524;07/08/24;00:12:04;0.677;-0.284;0.898;0.09040805697441101;0.41661006212234497;-0.8258897662162781
01:00:0A:00:00:00:00;1722989525;07/08/24;00:12:05;0.932;0.354;-0.268;-0.4605923891067505;0.00855211354792118;-0.042760565876960754
01:00:0A:00:00:00:00;1722989526;07/08/24;00:12:06;0.66;0.604;0.744;-1.5442672967910767;0.7648032903671265;-0.6841690540313721
01:00:0A:00:00:00:00;1722989527;07/08/24;00:12:07;1.08;-0.207;0.174;-1.2803735733032227;-0.5204571485519409;-0.6792821884155273
01:00:0A:00:00:00:00;1722989528;07/08/24;00:12:08;0.919;0.374;0.402;-1.4049899578094482;-0.21380282938480377;0.5057964324951172
01:00:0A:00:00:00:00;1722989529;07/08/24;00:12:09;0.858;-0.334;-0.264;-0.22357667982578278;-0.05742133408784866;0.7098253965377808
01:00:0A:00:00:00:00;1722989530;07/08/24;00:12:10;0.907;0.08;0.413;0.37629297375679016;0.6743952035903931;-0.6499606370925903
01:00:0A:00:00:00:00;1722989531;07/08/24;00:12:11;0.987;-0.087;0.14;-0.1771509200334549;-0.9236282110214233;0.44715335965156555
01:00:0A:00:00:00:00;1722989532;07/08/24;00:12:12;0.959;0.183;-0.165;0.34086278080940247;0.27122414112091064;-0.7757988572120667
01:00:0A:00:00:00:00;1722989533;07/08/24;00:12:13;0.904;0.158;0.43;-0.27122414112091064;0.2577851116657257;0.6585127115249634
01:00:0A:00:00:00:00;1722989534;07/08/24;00:12:14;0.997;-0.159;0.199;-0.31154125928878784;-0.5705481767654419;-0.18325956165790558
01:00:0A:00:00:00:00;1722989535;07/08/24;00:12:15;1.012;0.078;0.04;-0.21868975460529327;0.15027284622192383;-0.0757472887635231
01:00:0A:00:00:00:00;1722989536;07/08/24;00:12:16;0.997;-0.036;0.262;-0.4483751058578491;0.0073303827084600925;0.15882496535778046
01:00:0A:00:00:00:00;1722989537;07/08/24;00:12:17;1.043;-0.266;0.078;-0.22113320231437683;-0.0024434609804302454;-0.12461651116609573
01:00:0A:00:00:00:00;1722989538;07/08/24;00:12:18;1.002;0.097;0.234;-0.1417207270860672;0.06475171446800232;-0.22602014243602753
01:00:0A:00:00:00:00;1722989539;07/08/24;00:12:19;0.994;-0.093;0.081;-0.38728854060173035;-0.22479839622974396;0.29077184200286865
01:00:0A:00:00:00:00;1722989540;07/08/24;00:12:20;0.98;-0.071;0.075;-0.09040805697441101;0.11728612333536148;-0.3127630054950714
01:00:0A:00:00:00:00;1722989541;07/08/24;00:12:21;1.011;0.083;0.17;-0.2687807083129883;-0.06719517707824707;0.06352998316287994
01:00:0A:00:00:00:00;1722989542;07/08/24;00:12:22;1.046;-0.076;0.075;-0.3237585723400116;-0.08307767659425735;0.09407324343919754
01:00:0A:00:00:00:00;1722989543;07/08/24;00:12:23;1.018;-0.091;0.129;-0.17104226350784302;0.09407324343919754;-0.009773843921720982
01:00:0A:00:00:00:00;1722989544;07/08/24;00:12:24;0.972;-0.022;0.146;-0.1319468915462494;-0.036651913076639175;-0.10018189996480942
01:00:0A:00:00:00:00;1722989545;07/08/24;00:12:25;0.976;-0.063;0.049;-0.2028072476387024;-0.19058994948863983;0.11850785464048386
01:00:0A:00:00:00:00;1722989546;07/08/24;00:12:26;1.014;-0.106;0.063;-0.01710422709584236;0.1417207270860672;-0.08429940044879913
01:00:0A:00:00:00:00;1722989547;07/08/24;00:12:27;1.019;0.051;0.23;-0.12217304855585098;-0.10262535512447357;0.013439035043120384
01:00:0A:00:00:00:00;1722989548;07/08/24;00:12:28;1.028;-0.044;0.079;-0.22602014243602753;-0.05864306166768074;0.09285151958465576
01:00:0A:00:00:00:00;1722989549;07/08/24;00:12:29;0.994;0.008;0.124;-0.1820378452539444;0.10018189996480942;-0.09773843735456467
01:00:0A:00:00:00:00;1722989550;07/08/24;00:12:30;0.977;-0.01;0.105;-0.294437050819397;-0.11850785464048386;0.07330382615327835
01:00:0A:00:00:00:00;1722989551;07/08/24;00:12:31;0.988;-0.043;0.091;-0.22479839622974396;0.08429940044879913;-0.019547687843441963
01:00:0A:00:00:00:00;1722989552;07/08/24;00:12:32;1.006;0.0;0.159;-0.22357667982578278;-0.021991148591041565;-0.07330382615327835
01:00:0A:00:00:00:00;1722989553;07/08/24;00:12:33;1.018;-0.004;0.131;-0.2675589621067047;-0.080634206533432;-0.021991148591041565
01:00:0A:00:00:00:00;1722989554;07/08/24;00:12:34;1.016;-0.028;0.101;-0.23090705275535583;0.0708603635430336;-0.05864306166768074
01:00:0A:00:00:00:00;1722989555;07/08/24;00:12:35;1.021;-0.012;0.149;-0.24190263450145721;0.025656338781118393;-0.0354301817715168
01:00:0A:00:00:00:00;1722989556;07/08/24;00:12:36;1.03;-0.027;0.119;-0.26145032048225403;-0.00855211354792118;-0.004886921960860491
01:00:0A:00:00:00:00;1722989557;07/08/24;00:12:37;1.014;-0.039;0.095;-0.23090705275535583;0.05864306166768074;-0.004886921960860491
01:00:0A:00:00:00:00;1722989558;07/08/24;00:12:38;0.997;-0.023;0.108;-0.2028072476387024;0.02321287989616394;-0.025656338781118393
01:00:0A:00:00:00:00;1722989559;07/08/24;00:12:39;0.987;-0.033;0.108;-0.20891590416431427;-0.0659734457731247;0.004886921960860491
01:00:0A:00:00:00:00;1722989560;07/08/24;00:12:40;1.002;-0.04;0.115;-0.16859880089759827;-0.01710422709584236;-0.015882495790719986
01:00:0A:00:00:00:00;1722989561;07/08/24;00:12:41;1.012;-0.047;0.143;-0.1417207270860672;-0.018325956538319588;-0.014660765416920185
01:00:0A:00:00:00:00;1722989562;07/08/24;00:12:42;1.026;-0.041;0.125;-0.12461651116609573;-0.02076941914856434;0.012217304669320583
01:00:0A:00:00:00:00;1722989563;07/08/24;00:12:43;1.028;-0.053;0.123;-0.1014036238193512;0.0024434609804302454;0.028099799528717995
01:00:0A:00:00:00:00;1722989564;07/08/24;00:12:44;1.023;-0.029;0.139;-0.08674286305904388;0.021991148591041565;0.040317103266716
01:00:0A:00:00:00:00;1722989565;07/08/24;00:12:45;1.02;-0.026;0.108;-0.07941248267889023;0.01710422709584236;0.030543262138962746
01:00:0A:00:00:00:00;1722989566;07/08/24;00:12:46;1.001;-0.013;0.103;-0.06108652427792549;0.021991148591041565;0.0036651913542300463
01:00:0A:00:00:00:00;1722989567;07/08/24;00:12:47;0.995;-0.017;0.109;-0.05253440886735916;-0.024434609338641167;-0.0073303827084600925
01:00:0A:00:00:00:00;1722989568;07/08/24;00:12:48;1.001;-0.011;0.107;-0.04764748737215996;-0.04764748737215996;-0.018325956538319588
01:00:0A:00:00:00:00;1722989569;07/08/24;00:12:49;1.013;-0.014;0.105;-0.040317103266716;-0.021991148591041565;-0.009773843921720982
01:00:0A:00:00:00:00;1722989570;07/08/24;00:12:50;1.016;-0.016;0.122;-0.028099799528717995;0.006108652334660292;-0.03176499158143997
01:00:0A:00:00:00:00;1722989571;07/08/24;00:12:51;1.015;-0.04;0.106;-0.02687807008624077;-0.019547687843441963;-0.0012217304902151227
01:00:0A:00:00:00:00;1722989572;07/08/24;00:12:52;1.014;-0.025;0.113;-0.018325956538319588;-0.0024434609804302454;0.014660765416920185
01:00:0A:00:00:00:00;1722989573;07/08/24;00:12:53;1.008;-0.017;0.117;-0.019547687843441963;-0.018325956538319588;0.014660765416920185
01:00:0A:00:00:00:00;1722989574;07/08/24;00:12:54;1.007;-0.016;0.122;-0.015882495790719986;0.015882495790719986;0.013439035043120384
01:00:0A:00:00:00:00;1722989575;07/08/24;00:12:55;1.015;-0.016;0.094;-0.013439035043120384;0.010995574295520782;-0.010995574295520782
01:00:0A:00:00:00:00;1722989576;07/08/24;00:12:56;1.016;-0.023;0.107;-0.025656338781118393;0.014660765416920185;0.021991148591041565
01:00:0A:00:00:00:00;1722989577;07/08/24;00:12:57;1.015;-0.007;0.096;-0.028099799528717995;-0.036651913076639175;-0.0012217304902151227
01:00:0A:00:00:00:00;1722989578;07/08/24;00:12:58;1.011;-0.015;0.114;-0.02932153083384037;-0.019547687843441963;-0.009773843921720982
01:00:0A:00:00:00:00;1722989579;07/08/24;00:12:59;1.008;-0.021;0.107;-0.028099799528717995;-0.02321287989616394;-0.013439035043120384
01:00:0A:00:00:00:00;1722989580;07/08/24;00:13:00;1.007;-0.02;0.11;-0.028099799528717995;-0.02932153083384037;-0.013439035043120384
01:00:0A:00:00:00:00;1722989581;07/08/24;00:13:01;1.017;-0.027;0.116;-0.040317103266716;-0.03787364438176155;0.0073303827084600925
01:00:0A:00:00:00:00;1722989582;07/08/24;00:13:02;1.018;-0.014;0.134;-0.036651913076639175;-0.010995574295520782;-0.0036651913542300463
01:00:0A:00:00:00:00;1722989583;07/08/24;00:13:03;1.013;-0.013;0.123;-0.040317103266716;0.021991148591041565;0.006108652334660292
01:00:0A:00:00:00:00;1722989584;07/08/24;00:13:04;0.996;-0.02;0.108;-0.039095375686883926;0.019547687843441963;-0.0036651913542300463
01:00:0A:00:00:00:00;1722989585;07/08/24;00:13:05;0.995;-0.014;0.098;-0.04153883829712868;-0.0073303827084600925;-0.009773843921720982
01:00:0A:00:00:00:00;1722989586;07/08/24;00:13:06;1.012;-0.014;0.113;-0.04642575979232788;-0.025656338781118393;-0.00855211354792118
01:00:0A:00:00:00:00;1722989587;07/08/24;00:13:07;1.027;-0.027;0.123;-0.045204028487205505;-0.02321287989616394;-0.0024434609804302454
01:00:0A:00:00:00:00;1722989588;07/08/24;00:13:08;1.028;-0.035;0.114;-0.03298672288656235;-0.014660765416920185;0.013439035043120384
01:00:0A:00:00:00:00;1722989589;07/08/24;00:13:09;1.018;-0.025;0.114;-0.010995574295520782;-0.004886921960860491;-0.0012217304902151227
01:00:0A:00:00:00:00;1722989590;07/08/24;00:13:10;1.022;-0.028;0.116;0.004886921960860491;0.0012217304902151227;0.0012217304902151227
01:00:0A:00:00:00:00;1722989591;07/08/24;00:13:11;1.022;-0.023;0.11;0.02076941914856434;0.014660765416920185;-0.0024434609804302454
01:00:0A:00:00:00:00;1722989592;07/08/24;00:13:12;1.01;-0.021;0.113;0.02076941914856434;0.02076941914856434;0.010995574295520782
01:00:0A:00:00:00:00;1722989593;07/08/24;00:13:13;0.989;-0.018;0.115;0.019547687843441963;-0.014660765416920185;-0.006108652334660292
01:00:0A:00:00:00:00;1722989594;07/08/24;00:13:14;0.99;-0.012;0.117;0.018325956538319588;-0.02076941914856434;-0.024434609338641167
01:00:0A:00:00:00:00;1722989595;07/08/24;00:13:15;1.018;-0.018;0.122;0.0012217304902151227;-0.025656338781118393;-0.0036651913542300463
01:00:0A:00:00:00:00;1722989596;07/08/24;00:13:16;1.029;-0.027;0.115;-0.0024434609804302454;-0.0073303827084600925;0.004886921960860491
01:00:0A:00:00:00:00;1722989597;07/08/24;00:13:17;1.016;-0.019;0.111;-0.006108652334660292;-0.00855211354792118;-0.0073303827084600925
01:00:0A:00:00:00:00;1722989598;07/08/24;00:13:18;1.003;-0.024;0.132;-0.014660765416920185;-0.004886921960860491;0.0073303827084600925
01:00:0A:00:00:00:00;1722989599;07/08/24;00:13:19;1.019;-0.04;0.126;-0.03787364438176155;-0.08674286305904388;-0.051312677562236786
01:00:0A:00:00:00:00;1722989600;07/08/24;00:13:20;1.007;0.12;0.007;-0.251676470041275;-0.025656338781118393;-0.10018189996480942
01:00:0A:00:00:00:00;1722989601;07/08/24;00:13:21;0.995;0.16;0.112;-0.7098253965377808;-0.009773843921720982;0.05253440886735916
01:00:0A:00:00:00:00;1722989602;07/08/24;00:13:22;0.999;-0.035;0.208;-1.0494663715362549;-0.051312677562236786;0.039095375686883926
01:00:0A:00:00:00:00;1722989603;07/08/24;00:13:23;1.014;-0.038;0.052;-0.875980794429779;-0.03176499158143997;-0.23457224667072296
01:00:0A:00:00:00:00;1722989604;07/08/24;00:13:24;0.997;0.006;0.188;-0.9040805697441101;0.024434609338641167;0.021991148591041565
01:00:0A:00:00:00:00;1722989605;07/08/24;00:13:25;1.016;-0.08;0.097;-0.7892378568649292;-0.10873401165008545;-0.1661553531885147
01:00:0A:00:00:00:00;1722989606;07/08/24;00:13:26;1.011;0.034;0.15;-0.7562511563301086;0.08674286305904388;-0.018325956538319588
01:00:0A:00:00:00:00;1722989607;07/08/24;00:13:27;1.013;-0.092;0.126;-0.720820963382721;-0.09285151958465576;-0.02321287989616394
01:00:0A:00:00:00:00;1722989608;07/08/24;00:13:28;1.014;0.023;0.108;-0.5937609672546387;0.09651670604944229;-0.10384709388017654
01:00:0A:00:00:00:00;1722989609;07/08/24;00:13:29;1.004;-0.001;0.171;-0.6988298296928406;-0.025656338781118393;-0.08796459436416626
01:00:0A:00:00:00:00;1722989610;07/08/24;00:13:30;1.013;-0.018;0.099;-0.6670648455619812;-0.08796459436416626;-0.09285151958465576
01:00:0A:00:00:00:00;1722989611;07/08/24;00:13:31;1.009;-0.006;0.086;-0.6255260109901428;0.06475171446800232;0.0024434609804302454
01:00:0A:00:00:00:00;1722989612;07/08/24;00:13:32;1.012;-0.056;0.112;-0.5607742667198181;-0.012217304669320583;-0.05375614017248154
01:00:0A:00:00:00:00;1722989613;07/08/24;00:13:33;1.015;0.0;0.122;-0.5119050741195679;-0.02076941914856434;-0.11239919811487198
01:00:0A:00:00:00:00;1722989614;07/08/24;00:13:34;1.011;-0.011;0.128;-0.5522221922874451;-0.0354301817715168;0.004886921960860491
01:00:0A:00:00:00:00;1722989615;07/08/24;00:13:35;1.005;-0.04;0.096;-0.50335294008255;0.004886921960860491;-0.02932153083384037
01:00:0A:00:00:00:00;1722989616;07/08/24;00:13:36;1.016;-0.068;0.09;-0.4544837474822998;0.040317103266716;-0.02932153083384037
01:00:0A:00:00:00:00;1722989617;07/08/24;00:13:37;1.008;-0.018;0.137;-0.4300491213798523;-0.0012217304902151227;-0.05253440886735916
01:00:0A:00:00:00:00;1722989618;07/08/24;00:13:38;1.011;-0.015;0.097;-0.42638394236564636;-0.05253440886735916;-0.036651913076639175
01:00:0A:00:00:00:00;1722989619;07/08/24;00:13:39;1.013;-0.025;0.108;-0.4056144952774048;-0.013439035043120384;-0.012217304669320583
01:00:0A:00:00:00:00;1722989620;07/08/24;00:13:40;1.007;-0.04;0.131;-0.3640756905078888;-0.010995574295520782;-0.04153883829712868
01:00:0A:00:00:00:00;1722989621;07/08/24;00:13:41;1.008;-0.018;0.127;-0.34574973583221436;-0.021991148591041565;-0.05253440886735916
01:00:0A:00:00:00:00;1722989622;07/08/24;00:13:42;1.016;-0.011;0.116;-0.3591887652873993;-0.006108652334660292;0.019547687843441963
01:00:0A:00:00:00:00;1722989623;07/08/24;00:13:43;1.021;-0.046;0.123;-0.3176499307155609;0.006108652334660292;-0.01710422709584236
01:00:0A:00:00:00:00;1722989624;07/08/24;00:13:44;0.924;-0.087;0.422;0.04886921867728233;0.014660765416920185;-0.0073303827084600925
01:00:0A:00:00:00:00;1722989625;07/08/24;00:13:45;0.956;-0.1;0.336;0.3481931686401367;-0.3445279896259308;0.1258382350206375
01:00:0A:00:00:00:00;1722989626;07/08/24;00:13:46;1.009;-0.155;0.066;0.5754350423812866;-0.1661553531885147;0.013439035043120384
01:00:0A:00:00:00:00;1722989627;07/08/24;00:13:47;1.025;-0.02;0.081;0.7024949789047241;0.018325956538319588;-0.13805554807186127
01:00:0A:00:00:00:00;1722989628;07/08/24;00:13:48;1.015;0.039;0.122;0.533896267414093;0.06719517707824707;0.13927726447582245
01:00:0A:00:00:00:00;1722989629;07/08/24;00:13:49;0.996;-0.08;0.186;0.4593706727027893;-0.014660765416920185;0.18448130786418915
01:00:0A:00:00:00:00;1722989630;07/08/24;00:13:50;1.006;-0.036;0.125;0.5180137157440186;-0.17104226350784302;-0.0708603635430336
01:00:0A:00:00:00:00;1722989631;07/08/24;00:13:51;1.013;0.002;0.053;0.5057964324951172;0.0659734457731247;0.01710422709584236
01:00:0A:00:00:00:00;1722989632;07/08/24;00:13:52;1.003;-0.003;0.184;0.4349360466003418;0.05864306166768074;0.06230825558304787
01:00:0A:00:00:00:00;1722989633;07/08/24;00:13:53;1.01;-0.036;0.126;0.3481931686401367;-0.1270599663257599;0.09651670604944229
01:00:0A:00:00:00:00;1722989634;07/08/24;00:13:54;1.014;-0.049;0.063;0.4202752709388733;0.0036651913542300463;-0.021991148591041565
01:00:0A:00:00:00:00;1722989635;07/08/24;00:13:55;1.013;0.023;0.128;0.38606682419776917;0.02687807008624077;0.02076941914856434
01:00:0A:00:00:00:00;1722989636;07/08/24;00:13:56;1.017;-0.025;0.14;0.2919935882091522;-0.04642575979232788;0.13439035415649414
01:00:0A:00:00:00:00;1722989637;07/08/24;00:13:57;1.017;-0.07;0.106;0.3689626157283783;-0.02076941914856434;-0.004886921960860491
01:00:0A:00:00:00:00;1722989638;07/08/24;00:13:58;1.007;0.019;0.109;0.375071257352829;0.013439035043120384;-0.03176499158143997
01:00:0A:00:00:00:00;1722989639;07/08/24;00:13:59;1.007;-0.022;0.121;0.294437050819397;0.03176499158143997;0.1270599663257599
01:00:0A:00:00:00:00;1722989640;07/08/24;00:14:00;1.012;-0.06;0.133;0.32620203495025635;-0.04886921867728233;0.012217304669320583
01:00:0A:00:00:00:00;1722989641;07/08/24;00:14:01;1.016;0.0;0.081;0.3323107063770294;-0.04153883829712868;-0.0036651913542300463
01:00:0A:00:00:00:00;1722989642;07/08/24;00:14:02;1.005;-0.027;0.12;0.15027284622192383;0.02076941914856434;0.10018189996480942
01:00:0A:00:00:00:00;1722989643;07/08/24;00:14:03;0.991;-0.079;0.095;0.1966986060142517;-0.019547687843441963;-0.012217304669320583
01:00:0A:00:00:00:00;1722989644;07/08/24;00:14:04;0.997;0.006;0.113;0.23579397797584534;-0.0012217304902151227;-0.05742133408784866
01:00:0A:00:00:00:00;1722989645;07/08/24;00:14:05;1.018;0.005;0.129;0.12828169763088226;-0.03787364438176155;0.1270599663257599
01:00:0A:00:00:00:00;1722989646;07/08/24;00:14:06;1.024;-0.095;0.135;0.18936821818351746;-0.0073303827084600925;0.025656338781118393
01:00:0A:00:00:00:00;1722989647;07/08/24;00:14:07;1.023;0.012;0.117;0.22479839622974396;-0.012217304669320583;-0.05864306166768074
01:00:0A:00:00:00:00;1722989648;07/08/24;00:14:08;1.008;-0.009;0.114;0.1466076523065567;0.03420845419168472;0.10751228034496307
01:00:0A:00:00:00:00;1722989649;07/08/24;00:14:09;1.001;-0.058;0.134;0.17837265133857727;-0.015882495790719986;0.018325956538319588
01:00:0A:00:00:00:00;1722989650;07/08/24;00:14:10;1.005;-0.004;0.108;0.1918116807937622;-0.04886921867728233;-0.03787364438176155
01:00:0A:00:00:00:00;1722989651;07/08/24;00:14:11;1.004;-0.009;0.107;0.14782939851284027;0.03787364438176155;0.0757472887635231
01:00:0A:00:00:00:00;1722989652;07/08/24;00:14:12;1.005;-0.047;0.138;0.1673770695924759;-0.015882495790719986;-0.0073303827084600925
01:00:0A:00:00:00:00;1722989653;07/08/24;00:14:13;1.013;-0.012;0.102;0.15515977144241333;-0.06475171446800232;-0.004886921960860491
01:00:0A:00:00:00:00;1722989654;07/08/24;00:14:14;1.019;-0.02;0.101;0.14538592100143433;0.014660765416920185;0.036651913076639175
01:00:0A:00:00:00:00;1722989655;07/08/24;00:14:15;1.016;-0.032;0.145;0.14416420459747314;0.0;0.01710422709584236
01:00:0A:00:00:00:00;1722989656;07/08/24;00:14:16;1.015;-0.016;0.107;0.13316862285137177;-0.06352998316287994;0.0012217304902151227
01:00:0A:00:00:00:00;1722989657;07/08/24;00:14:17;1.009;-0.022;0.104;0.13316862285137177;0.02687807008624077;0.03420845419168472
01:00:0A:00:00:00:00;1722989658;07/08/24;00:14:18;1.006;0.04;0.161;-0.02687807008624077;0.0024434609804302454;-0.03176499158143997
01:00:0A:00:00:00:00;1722989659;07/08/24;00:14:19;1.01;0.002;0.12;-0.19303341209888458;-0.03787364438176155;-0.009773843921720982
01:00:0A:00:00:00:00;1722989660;07/08/24;00:14:20;1.011;-0.031;0.119;-0.22479839622974396;-0.01710422709584236;0.013439035043120384
01:00:0A:00:00:00:00;1722989661;07/08/24;00:14:21;1.008;-0.036;0.106;-0.17470745742321014;-0.01710422709584236;-0.03176499158143997
01:00:0A:00:00:00:00;1722989662;07/08/24;00:14:22;1.007;-0.007;0.123;-0.16493360698223114;0.0;-0.009773843921720982
01:00:0A:00:00:00:00;1722989663;07/08/24;00:14:23;1.013;-0.023;0.117;-0.1722639948129654;-0.040317103266716;0.014660765416920185
01:00:0A:00:00:00:00;1722989664;07/08/24;00:14:24;1.015;-0.023;0.106;-0.12828169763088226;0.0024434609804302454;-0.030543262138962746
01:00:0A:00:00:00:00;1722989665;07/08/24;00:14:25;1.011;-0.011;0.129;-0.12950342893600464;0.004886921960860491;-0.0073303827084600925
01:00:0A:00:00:00:00;1722989666;07/08/24;00:14:26;1.013;-0.027;0.115;-0.12828169763088226;-0.04398229718208313;-0.012217304669320583
01:00:0A:00:00:00:00;1722989667;07/08/24;00:14:27;1.016;-0.021;0.107;-0.10506881773471832;0.0036651913542300463;-0.015882495790719986
01:00:0A:00:00:00:00;1722989668;07/08/24;00:14:28;1.011;-0.022;0.13;-0.10262535512447357;0.006108652334660292;-0.0012217304902151227
01:00:0A:00:00:00:00;1722989669;07/08/24;00:14:29;1.01;-0.025;0.107;-0.10018189996480942;-0.03298672288656235;-0.0024434609804302454
01:00:0A:00:00:00:00;1722989670;07/08/24;00:14:30;1.011;-0.017;0.102;-0.08185594528913498;-0.0024434609804302454;-0.010995574295520782
01:00:0A:00:00:00:00;1722989671;07/08/24;00:14:31;1.012;-0.025;0.126;-0.08307767659425735;-0.025656338781118393;0.0036651913542300463
01:00:0A:00:00:00:00;1722989672;07/08/24;00:14:32;1.015;-0.024;0.116;-0.06841690838336945;-0.03176499158143997;-0.009773843921720982
01:00:0A:00:00:00:00;1722989673;07/08/24;00:14:33;1.013;-0.016;0.115;-0.05619959905743599;0.010995574295520782;-0.0012217304902151227
01:00:0A:00:00:00:00;1722989674;07/08/24;00:14:34;1.011;-0.025;0.123;-0.05619959905743599;0.0012217304902151227;0.004886921960860491
01:00:0A:00:00:00:00;1722989675;07/08/24;00:14:35;1.012;-0.027;0.11;-0.042760565876960754;-0.025656338781118393;-0.014660765416920185
01:00:0A:00:00:00:00;1722989676;07/08/24;00:14:36;1.014;-0.017;0.113;-0.040317103266716;-0.0036651913542300463;0.0073303827084600925
01:00:0A:00:00:00:00;1722989677;07/08/24;00:14:37;1.015;-0.026;0.124;-0.040317103266716;-0.006108652334660292;0.00855211354792118
01:00:0A:00:00:00:00;1722989678;07/08/24;00:14:38;1.015;-0.023;0.113;-0.025656338781118393;-0.010995574295520782;-0.012217304669320583
01:00:0A:00:00:00:00;1722989679;07/08/24;00:14:39;1.013;-0.015;0.11;-0.028099799528717995;-0.006108652334660292;0.004886921960860491
01:00:0A:00:00:00:00;1722989680;07/08/24;00:14:40;1.009;-0.027;0.122;-0.025656338781118393;-0.01710422709584236;0.0012217304902151227
01:00:0A:00:00:00:00;1722989681;07/08/24;00:14:41;1.009;-0.022;0.117;-0.018325956538319588;-0.019547687843441963;-0.009773843921720982
01:00:0A:00:00:00:00;1722989682;07/08/24;00:14:42;1.011;-0.018;0.116;-0.02076941914856434;0.0012217304902151227;0.0024434609804302454
01:00:0A:00:00:00:00;1722989683;07/08/24;00:14:43;1.012;-0.026;0.119;-0.02321287989616394;-0.010995574295520782;0.009773843921720982
01:00:0A:00:00:00:00;1722989684;07/08/24;00:14:44;1.015;-0.02;0.114;-0.013439035043120384;-0.02076941914856434;-0.013439035043120384
01:00:0A:00:00:00:00;1722989685;07/08/24;00:14:45;1.016;-0.019;0.118;-0.019547687843441963;-0.0073303827084600925;0.0036651913542300463
01:00:0A:00:00:00:00;1722989686;07/08/24;00:14:46;1.012;-0.026;0.122;-0.02321287989616394;-0.0036651913542300463;0.01710422709584236
01:00:0A:00:00:00:00;1722989687;07/08/24;00:14:47;1.011;-0.018;0.115;-0.014660765416920185;-0.0073303827084600925;0.0
01:00:0A:00:00:00:00;1722989688;07/08/24;00:14:48;1.01;-0.015;0.113;-0.018325956538319588;-0.00855211354792118;0.006108652334660292
01:00:0A:00:00:00:00;1722989689;07/08/24;00:14:49;1.01;-0.021;0.117;-0.015882495790719986;-0.02321287989616394;-0.0036651913542300463
01:00:0A:00:00:00:00;1722989690;07/08/24;00:14:50;1.013;-0.024;0.119;-0.010995574295520782;-0.012217304669320583;-0.00855211354792118
01:00:0A:00:00:00:00;1722989691;07/08/24;00:14:51;1.015;-0.021;0.117;-0.014660765416920185;-0.004886921960860491;0.012217304669320583
01:00:0A:00:00:00:00;1722989692;07/08/24;00:14:52;1.012;-0.025;0.115;-0.009773843921720982;-0.006108652334660292;0.00855211354792118
01:00:0A:00:00:00:00;1722989693;07/08/24;00:14:53;1.011;-0.021;0.111;-0.0012217304902151227;-0.018325956538319588;-0.0012217304902151227
01:00:0A:00:00:00:00;1722989694;07/08/24;00:14:54;1.012;-0.021;0.117;-0.0012217304902151227;-0.014660765416920185;0.006108652334660292
01:00:0A:00:00:00:00;1722989695;07/08/24;00:14:55;1.016;-0.027;0.117;0.0036651913542300463;-0.012217304669320583;0.00855211354792118
01:00:0A:00:00:00:00;1722989696;07/08/24;00:14:56;1.015;-0.02;0.115;0.009773843921720982;-0.009773843921720982;0.0036651913542300463
01:00:0A:00:00:00:00;1722989697;07/08/24;00:14:57;1.009;-0.022;0.115;0.00855211354792118;-0.006108652334660292;0.010995574295520782
01:00:0A:00:00:00:00;1722989698;07/08/24;00:14:58;1.009;-0.024;0.115;0.013439035043120384;-0.012217304669320583;0.0
01:00:0A:00:00:00:00;1722989699;07/08/24;00:14:59;1.012;-0.023;0.115;0.01710422709584236;-0.009773843921720982;-0.0024434609804302454
