Source;Epoch timestamp (UTC);Date;Time (UTC);Accel X (G);Accel Y (G);Accel Z (G);Gyro X (rad/s);Gyro Y (rad/s);Gyro Z (rad/s)
01:00:0A:00:00:00:00;1723766404;16/08/24;00:00:04;1.003;-0.043;0.075;-0.024434609338641167;-0.0073303827084600925;0.024434609338641167
01:00:0A:00:00:00:00;1723766405;16/08/24;00:00:05;1.004;-0.027;0.075;-0.021991148591041565;-0.02321287989616394;0.0073303827084600925
01:00:0A:00:00:00:00;1723766406;16/08/24;00:00:06;1.007;-0.037;0.078;-0.018325956538319588;-0.02687807008624077;-0.012217304669320583
01:00:0A:00:00:00:00;1723766407;16/08/24;00:00:07;1.022;-0.045;0.083;-0.010995574295520782;-0.018325956538319588;-0.021991148591041565
01:00:0A:00:00:00:00;1723766408;16/08/24;00:00:08;1.028;-0.042;0.09;-0.013439035043120384;-0.0036651913542300463;-0.010995574295520782
01:00:0A:00:00:00:00;1723766409;16/08/24;00:00:09;1.026;-0.055;0.087;-0.012217304669320583;0.00855211354792118;0.015882495790719986
01:00:0A:00:00:00:00;1723766410;16/08/24;00:00:10;1.018;-0.046;0.08;-0.0024434609804302454;0.014660765416920185;0.012217304669320583
01:00:0A:00:00:00:00;1723766411;16/08/24;00:00:11;1.008;-0.038;0.075;-0.0036651913542300463;0.0024434609804302454;0.013439035043120384
01:00:0A:00:00:00:00;1723766412;16/08/24;00:00:12;1.005;-0.041;0.069;-0.0036651913542300463;-0.012217304669320583;0.004886921960860491
01:00:0A:00:00:00:00;1723766413;16/08/24;00:00:13;1.008;-0.041;0.073;0.0012217304902151227;-0.030543262138962746;-0.01710422709584236
01:00:0A:00:00:00:00;1723766414;16/08/24;00:00:14;1.016;-0.04;0.084;-0.0012217304902151227;-0.02687807008624077;-0.010995574295520782
01:00:0A:00:00:00:00;1723766415;16/08/24;00:00:15;1.021;-0.05;0.087;-0.0036651913542300463;-0.02076941914856434;-0.0012217304902151227
01:00:0A:00:00:00:00;1723766416;16/08/24;00:00:16;1.017;-0.05;0.088;-0.0036651913542300463;0.004886921960860491;0.021991148591041565
01:00:0A:00:00:00:00;1723766417;16/08/24;00:00:17;1.012;-0.043;0.085;-0.0073303827084600925;0.0073303827084600925;0.03787364438176155
01:00:0A:00:00:00:00;1723766418;16/08/24;00:00:18;1.001;-0.032;0.078;-0.00855211354792118;-0.004886921960860491;0.01710422709584236
01:00:0A:00:00:00:00;1723766419;16/08/24;00:00:19;1.0;-0.028;0.08;-0.004886921960860491;-0.01710422709584236;-0.0073303827084600925
01:00:0A:00:00:00:00;1723766420;16/08/24;00:00:20;1.014;-0.033;0.081;-0.004886921960860491;-0.02321287989616394;-0.036651913076639175
01:00:0A:00:00:00:00;1723766421;16/08/24;00:00:21;1.025;-0.045;0.084;-0.006108652334660292;-0.012217304669320583;-0.030543262138962746
01:00:0A:00:00:00:00;1723766422;16/08/24;00:00:22;1.031;-0.057;0.087;-0.00855211354792118;0.0036651913542300463;-0.0012217304902151227
01:00:0A:00:00:00:00;1723766422;16/08/24;00:00:22;1.018;-0.057;0.081;-0.014660765416920185;-0.004886921960860491;0.0354301817715168
01:00:0A:00:00:00:00;1723766423;16/08/24;00:00:23;1.008;-0.048;0.081;-0.01710422709584236;-0.004886921960860491;0.04398229718208313
01:00:0A:00:00:00:00;1723766424;16/08/24;00:00:24;1.001;-0.035;0.079;-0.015882495790719986;-0.021991148591041565;0.015882495790719986
01:00:0A:00:00:00:00;1723766425;16/08/24;00:00:25;1.002;-0.031;0.079;-0.012217304669320583;-0.018325956538319588;-0.004886921960860491
01:00:0A:00:00:00:00;1723766426;16/08/24;00:00:26;1.01;-0.035;0.084;-0.009773843921720982;-0.019547687843441963;-0.02687807008624077
01:00:0A:00:00:00:00;1723766427;16/08/24;00:00:27;1.016;-0.043;0.082;-0.010995574295520782;-0.01710422709584236;-0.028099799528717995
01:00:0A:00:00:00:00;1723766428;16/08/24;00:00:28;1.018;-0.052;0.083;-0.012217304669320583;-0.0073303827084600925;0.0012217304902151227
01:00:0A:00:00:00:00;1723766429;16/08/24;00:00:29;1.019;-0.052;0.084;-0.014660765416920185;-0.004886921960860491;0.02076941914856434
01:00:0A:00:00:00:00;1723766430;16/08/24;00:00:30;1.018;-0.045;0.084;-0.015882495790719986;-0.0036651913542300463;0.0354301817715168
01:00:0A:00:00:00:00;1723766431;16/08/24;00:00:31;1.017;-0.035;0.081;-0.009773843921720982;0.0012217304902151227;0.030543262138962746
01:00:0A:00:00:00:00;1723766432;16/08/24;00:00:32;1.016;-0.029;0.081;-0.0036651913542300463;-0.0024434609804302454;-0.0036651913542300463
01:00:0A:00:00:00:00;1723766433;16/08/24;00:00:33;1.01;-0.037;0.078;0.0012217304902151227;-0.0073303827084600925;-0.02932153083384037
01:00:0A:00:00:00:00;1723766434;16/08/24;00:00:34;1.007;-0.045;0.078;0.0036651913542300463;-0.0036651913542300463;-0.02687807008624077
01:00:0A:00:00:00:00;1723766435;16/08/24;00:00:35;1.007;-0.055;0.081;0.0012217304902151227;-0.021991148591041565;-0.0024434609804302454
01:00:0A:00:00:00:00;1723766436;16/08/24;00:00:36;1.012;-0.054;0.081;0.0012217304902151227;-0.021991148591041565;0.006108652334660292
01:00:0A:00:00:00:00;1723766437;16/08/24;00:00:37;1.022;-0.045;0.083;0.0012217304902151227;-0.019547687843441963;0.02932153083384037
01:00:0A:00:00:00:00;1723766438;16/08/24;00:00:38;1.024;-0.039;0.086;0.0024434609804302454;-0.012217304669320583;0.028099799528717995
01:00:0A:00:00:00:00;1723766439;16/08/24;00:00:39;1.02;-0.036;0.083;0.006108652334660292;-0.006108652334660292;0.0073303827084600925
01:00:0A:00:00:00:00;1723766440;16/08/24;00:00:40;1.006;-0.04;0.085;0.00855211354792118;0.0036651913542300463;0.0024434609804302454
01:00:0A:00:00:00:00;1723766441;16/08/24;00:00:41;1.0;-0.042;0.084;0.0073303827084600925;-0.0036651913542300463;-0.0012217304902151227
01:00:0A:00:00:00:00;1723766442;16/08/24;00:00:42;1.001;-0.044;0.083;0.004886921960860491;-0.01710422709584236;-0.004886921960860491
01:00:0A:00:00:00:00;1723766443;16/08/24;00:00:43;1.009;-0.043;0.083;0.006108652334660292;-0.012217304669320583;-0.0036651913542300463
01:00:0A:00:00:00:00;1723766444;16/08/24;00:00:44;1.02;-0.042;0.083;0.006108652334660292;-0.010995574295520782;-0.010995574295520782
01:00:0A:00:00:00:00;1723766445;16/08/24;00:00:45;1.023;-0.041;0.08;0.0036651913542300463;-0.00855211354792118;-0.0073303827084600925
01:00:0A:00:00:00:00;1723766446;16/08/24;00:00:46;1.017;-0.042;0.078;0.0036651913542300463;-0.013439035043120384;-0.006108652334660292
01:00:0A:00:00:00:00;1723766447;16/08/24;00:00:47;1.012;-0.043;0.08;0.0024434609804302454;-0.018325956538319588;0.006108652334660292
01:00:0A:00:00:00:00;1723766448;16/08/24;00:00:48;1.012;-0.04;0.084;0.0024434609804302454;-0.024434609338641167;-0.004886921960860491
01:00:0A:00:00:00:00;1723766449;16/08/24;00:00:49;1.022;-0.043;0.086;0.0036651913542300463;-0.012217304669320583;-0.0024434609804302454
01:00:0A:00:00:00:00;1723766450;16/08/24;00:00:50;1.027;-0.045;0.088;0.004886921960860491;0.0012217304902151227;0.009773843921720982
01:00:0A:00:00:00:00;1723766451;16/08/24;00:00:51;1.018;-0.048;0.085;0.004886921960860491;0.00855211354792118;0.015882495790719986
01:00:0A:00:00:00:00;1723766452;16/08/24;00:00:52;1.009;-0.048;0.081;0.006108652334660292;0.0012217304902151227;0.018325956538319588
01:00:0A:00:00:00:00;1723766453;16/08/24;00:00:53;0.995;-0.04;0.081;0.0036651913542300463;-0.010995574295520782;0.015882495790719986
01:00:0A:00:00:00:00;1723766454;16/08/24;00:00:54;0.995;-0.039;0.081;0.0024434609804302454;-0.021991148591041565;0.0073303827084600925
01:00:0A:00:00:00:00;1723766455;16/08/24;00:00:55;1.008;-0.038;0.082;0.004886921960860491;-0.030543262138962746;-0.012217304669320583
01:00:0A:00:00:00:00;1723766456;16/08/24;00:00:56;1.019;-0.038;0.089;0.004886921960860491;-0.02076941914856434;-0.019547687843441963
01:00:0A:00:00:00:00;1723766457;16/08/24;00:00:57;1.029;-0.045;0.089;0.004886921960860491;-0.006108652334660292;-0.012217304669320583
01:00:0A:00:00:00:00;1723766458;16/08/24;00:00:58;1.024;-0.049;0.085;0.0036651913542300463;0.0012217304902151227;-0.0012217304902151227
01:00:0A:00:00:00:00;1723766459;16/08/24;00:00:59;1.017;-0.051;0.085;0.0024434609804302454;0.0036651913542300463;0.006108652334660292
01:00:0A:00:00:00:00;1723766460;16/08/24;00:01:00;1.007;-0.049;0.082;0.0;-0.009773843921720982;0.013439035043120384
01:00:0A:00:00:00:00;1723766461;16/08/24;00:01:01;1.006;-0.044;0.082;-0.0024434609804302454;-0.010995574295520782;0.015882495790719986
01:00:0A:00:00:00:00;1723766462;16/08/24;00:01:02;1.006;-0.039;0.083;-0.004886921960860491;-0.02321287989616394;0.009773843921720982
01:00:0A:00:00:00:00;1723766463;16/08/24;00:01:03;1.01;-0.037;0.083;-0.006108652334660292;-0.019547687843441963;-0.0024434609804302454
01:00:0A:00:00:00:00;1723766464;16/08/24;00:01:04;1.016;-0.039;0.085;-0.006108652334660292;-0.018325956538319588;-0.00855211354792118
01:00:0A:00:00:00:00;1723766465;16/08/24;00:01:05;1.017;-0.04;0.087;-0.00855211354792118;-0.01710422709584236;-0.006108652334660292
01:00:0A:00:00:00:00;1723766466;16/08/24;00:01:06;1.019;-0.045;0.086;-0.009773843921720982;-0.0073303827084600925;-0.0036651913542300463
01:00:0A:00:00:00:00;1723766467;16/08/24;00:01:07;1.018;-0.045;0.084;-0.012217304669320583;-0.0024434609804302454;0.013439035043120384
01:00:0A:00:00:00:00;1723766468;16/08/24;00:01:08;1.017;-0.043;0.082;-0.015882495790719986;-0.004886921960860491;0.02076941914856434
01:00:0A:00:00:00:00;1723766469;16/08/24;00:01:09;1.014;-0.034;0.079;-0.014660765416920185;-0.013439035043120384;0.0073303827084600925
01:00:0A:00:00:00:00;1723766470;16/08/24;00:01:10;1.01;-0.03;0.079;-0.015882495790719986;-0.015882495790719986;-0.0012217304902151227
01:00:0A:00:00:00:00;1723766471;16/08/24;00:01:11;1.004;-0.036;0.08;-0.015882495790719986;-0.021991148591041565;-0.012217304669320583
01:00:0A:00:00:00:00;1723766472;16/08/24;00:01:12;1.0;-0.043;0.08;-0.014660765416920185;-0.01710422709584236;-0.018325956538319588
01:00:0A:00:00:00:00;1723766473;16/08/24;00:01:13;1.008;-0.05;0.081;-0.014660765416920185;-0.025656338781118393;-0.015882495790719986
01:00:0A:00:00:00:00;1723766474;16/08/24;00:01:14;1.018;-0.053;0.081;-0.015882495790719986;-0.025656338781118393;-0.004886921960860491
01:00:0A:00:00:00:00;1723766475;16/08/24;00:01:15;1.033;-0.051;0.09;-0.018325956538319588;-0.014660765416920185;0.024434609338641167
01:00:0A:00:00:00:00;1723766476;16/08/24;00:01:16;1.029;-0.042;0.092;-0.01710422709584236;0.0024434609804302454;0.024434609338641167
01:00:0A:00:00:00:00;1723766477;16/08/24;00:01:17;1.016;-0.041;0.089;-0.014660765416920185;0.0073303827084600925;0.021991148591041565
01:00:0A:00:00:00:00;1723766478;16/08/24;00:01:18;0.996;-0.039;0.085;-0.010995574295520782;0.006108652334660292;-0.0024434609804302454
01:00:0A:00:00:00:00;1723766479;16/08/24;00:01:19;0.991;-0.044;0.083;-0.013439035043120384;-0.0036651913542300463;-0.0073303827084600925
01:00:0A:00:00:00:00;1723766480;16/08/24;00:01:20;1.003;-0.044;0.079;-0.014660765416920185;-0.02076941914856434;-0.009773843921720982
01:00:0A:00:00:00:00;1723766481;16/08/24;00:01:21;1.019;-0.047;0.081;-0.013439035043120384;-0.030543262138962746;-0.009773843921720982
01:00:0A:00:00:00:00;1723766482;16/08/24;00:01:22;1.031;-0.046;0.09;-0.013439035043120384;-0.019547687843441963;0.00855211354792118
01:00:0A:00:00:00:00;1723766483;16/08/24;00:01:23;1.028;-0.042;0.09;-0.010995574295520782;-0.009773843921720982;0.0073303827084600925
01:00:0A:00:00:00:00;1723766484;16/08/24;00:01:24;1.009;-0.044;0.084;-0.0073303827084600925;0.0073303827084600925;0.0024434609804302454
01:00:0A:00:00:00:00;1723766485;16/08/24;00:01:25;1.0;-0.044;0.079;-0.004886921960860491;-0.009773843921720982;-0.012217304669320583
01:00:0A:00:00:00:00;1723766486;16/08/24;00:01:26;1.001;-0.048;0.073;-0.004886921960860491;-0.024434609338641167;-0.010995574295520782
01:00:0A:00:00:00:00;1723766487;16/08/24;00:01:27;1.017;-0.054;0.079;-0.006108652334660292;-0.039095375686883926;0.0073303827084600925
01:00:0A:00:00:00:00;1723766488;16/08/24;00:01:28;1.028;-0.051;0.088;-0.0036651913542300463;-0.03298672288656235;0.019547687843441963
01:00:0A:00:00:00:00;1723766489;16/08/24;00:01:29;1.031;-0.04;0.093;-0.0012217304902151227;-0.00855211354792118;0.02687807008624077
01:00:0A:00:00:00:00;1723766490;16/08/24;00:01:30;1.021;-0.034;0.093;0.0036651913542300463;0.00855211354792118;0.019547687843441963
01:00:0A:00:00:00:00;1723766491;16/08/24;00:01:31;1.002;-0.033;0.083;0.010995574295520782;0.015882495790719986;-0.019547687843441963
01:00:0A:00:00:00:00;1723766492;16/08/24;00:01:32;0.996;-0.04;0.074;0.012217304669320583;0.0036651913542300463;-0.02321287989616394
01:00:0A:00:00:00:00;1723766493;16/08/24;00:01:33;0.998;-0.049;0.072;0.012217304669320583;-0.015882495790719986;-0.021991148591041565
01:00:0A:00:00:00:00;1723766494;16/08/24;00:01:34;1.016;-0.055;0.079;0.00855211354792118;-0.03298672288656235;-0.004886921960860491
01:00:0A:00:00:00:00;1723766495;16/08/24;00:01:35;1.024;-0.054;0.084;0.006108652334660292;-0.0354301817715168;0.015882495790719986
01:00:0A:00:00:00:00;1723766496;16/08/24;00:01:36;1.031;-0.045;0.089;0.009773843921720982;-0.01710422709584236;0.028099799528717995
01:00:0A:00:00:00:00;1723766497;16/08/24;00:01:37;1.025;-0.041;0.091;0.014660765416920185;-0.0012217304902151227;0.018325956538319588
01:00:0A:00:00:00:00;1723766498;16/08/24;00:01:38;1.011;-0.039;0.085;0.014660765416920185;0.0;0.009773843921720982
01:00:0A:00:00:00:00;1723766499;16/08/24;00:01:39;1.006;-0.042;0.081;0.01710422709584236;0.0012217304902151227;0.0024434609804302454
01:00:0A:00:00:00:00;1723766500;16/08/24;00:01:40;1.004;-0.044;0.08;0.01710422709584236;-0.012217304669320583;-0.0024434609804302454
01:00:0A:00:00:00:00;1723766501;16/08/24;00:01:41;1.009;-0.04;0.081;0.014660765416920185;-0.019547687843441963;0.0024434609804302454
01:00:0A:00:00:00:00;1723766502;16/08/24;00:01:42;1.015;-0.038;0.084;0.013439035043120384;-0.013439035043120384;0.0036651913542300463
01:00:0A:00:00:00:00;1723766503;16/08/24;00:01:43;1.019;-0.041;0.084;0.015882495790719986;-0.006108652334660292;-0.0012217304902151227
01:00:0A:00:00:00:00;1723766504;16/08/24;00:01:44;1.019;-0.042;0.082;0.015882495790719986;-0.004886921960860491;-0.004886921960860491
01:00:0A:00:00:00:00;1723766505;16/08/24;00:01:45;1.016;-0.049;0.08;0.013439035043120384;-0.00855211354792118;0.0073303827084600925
01:00:0A:00:00:00:00;1723766506;16/08/24;00:01:46;1.014;-0.049;0.081;0.012217304669320583;-0.00855211354792118;0.013439035043120384
01:00:0A:00:00:00:00;1723766507;16/08/24;00:01:47;1.01;-0.044;0.079;0.009773843921720982;-0.02076941914856434;0.02076941914856434
01:00:0A:00:00:00:00;1723766508;16/08/24;00:01:48;1.006;-0.04;0.079;0.009773843921720982;-0.024434609338641167;0.019547687843441963
01:00:0A:00:00:00:00;1723766509;16/08/24;00:01:49;1.005;-0.039;0.082;0.014660765416920185;-0.021991148591041565;0.0
01:00:0A:00:00:00:00;1723766510;16/08/24;00:01:50;1.011;-0.04;0.085;0.015882495790719986;-0.024434609338641167;-0.012217304669320583
01:00:0A:00:00:00:00;1723766511;16/08/24;00:01:51;1.025;-0.045;0.088;0.018325956538319588;-0.010995574295520782;-0.012217304669320583
01:00:0A:00:00:00:00;1723766512;16/08/24;00:01:52;1.03;-0.052;0.083;0.019547687843441963;-0.0012217304902151227;0.013439035043120384
01:00:0A:00:00:00:00;1723766513;16/08/24;00:01:53;1.028;-0.047;0.078;0.042760565876960754;-0.009773843921720982;0.01710422709584236
01:00:0A:00:00:00:00;1723766514;16/08/24;00:01:54;1.01;-0.041;0.08;0.06475171446800232;0.012217304669320583;0.02321287989616394
01:00:0A:00:00:00:00;1723766515;16/08/24;00:01:55;0.999;-0.041;0.076;0.08429940044879913;0.0024434609804302454;0.014660765416920185
01:00:0A:00:00:00:00;1723766516;16/08/24;00:01:56;0.99;-0.045;0.086;0.080634206533432;-0.02076941914856434;-0.004886921960860491
01:00:0A:00:00:00:00;1723766517;16/08/24;00:01:57;0.998;-0.042;0.078;0.07452555745840073;-0.045204028487205505;-0.01710422709584236
01:00:0A:00:00:00:00;1723766518;16/08/24;00:01:58;1.022;-0.047;0.081;0.08185594528913498;-0.015882495790719986;-0.0073303827084600925
01:00:0A:00:00:00:00;1723766519;16/08/24;00:01:59;1.035;-0.056;0.095;0.07941248267889023;-0.006108652334660292;0.018325956538319588
01:00:0A:00:00:00:00;1723766520;16/08/24;00:02:00;1.034;-0.048;0.088;0.07208210229873657;-0.012217304669320583;0.025656338781118393
01:00:0A:00:00:00:00;1723766521;16/08/24;00:02:01;1.017;-0.041;0.08;0.0757472887635231;0.00855211354792118;0.03176499158143997
01:00:0A:00:00:00:00;1723766522;16/08/24;00:02:02;1.005;-0.043;0.084;0.07819075137376785;0.0073303827084600925;0.02076941914856434
01:00:0A:00:00:00:00;1723766523;16/08/24;00:02:03;0.996;-0.039;0.081;0.07330382615327835;-0.025656338781118393;0.0
01:00:0A:00:00:00:00;1723766524;16/08/24;00:02:04;0.999;-0.039;0.077;0.07696902006864548;-0.018325956538319588;-0.006108652334660292
01:00:0A:00:00:00:00;1723766525;16/08/24;00:02:05;1.015;-0.045;0.088;0.07696902006864548;-0.01710422709584236;-0.0073303827084600925
01:00:0A:00:00:00:00;1723766526;16/08/24;00:02:06;1.024;-0.047;0.086;0.0708603635430336;-0.024434609338641167;0.0012217304902151227
01:00:0A:00:00:00:00;1723766527;16/08/24;00:02:07;1.027;-0.044;0.081;0.07330382615327835;-0.00855211354792118;0.009773843921720982
01:00:0A:00:00:00:00;1723766528;16/08/24;00:02:08;1.013;-0.043;0.085;0.07330382615327835;0.0;0.015882495790719986
01:00:0A:00:00:00:00;1723766529;16/08/24;00:02:09;1.005;-0.041;0.083;0.06841690838336945;-0.02076941914856434;0.0073303827084600925
01:00:0A:00:00:00:00;1723766530;16/08/24;00:02:10;1.001;-0.044;0.082;0.06963863223791122;-0.019547687843441963;0.0012217304902151227
01:00:0A:00:00:00:00;1723766531;16/08/24;00:02:11;1.004;-0.044;0.089;0.0708603635430336;-0.014660765416920185;-0.004886921960860491
01:00:0A:00:00:00:00;1723766532;16/08/24;00:02:12;1.024;-0.05;0.092;0.06475171446800232;-0.014660765416920185;0.006108652334660292
01:00:0A:00:00:00:00;1723766533;16/08/24;00:02:13;1.03;-0.047;0.082;0.06475171446800232;0.0024434609804302454;0.021991148591041565
01:00:0A:00:00:00:00;1723766534;16/08/24;00:02:14;1.025;-0.04;0.081;0.06230825558304787;0.0036651913542300463;0.019547687843441963
01:00:0A:00:00:00:00;1723766535;16/08/24;00:02:15;1.016;-0.04;0.079;0.05619959905743599;-0.012217304669320583;0.01710422709584236
01:00:0A:00:00:00:00;1723766536;16/08/24;00:02:16;1.003;-0.039;0.077;0.05619959905743599;-0.030543262138962746;-0.0024434609804302454
01:00:0A:00:00:00:00;1723766537;16/08/24;00:02:17;1.001;-0.041;0.09;0.05619959905743599;-0.02687807008624077;-0.0073303827084600925
01:00:0A:00:00:00:00;1723766538;16/08/24;00:02:18;1.006;-0.046;0.094;0.05009094998240471;-0.030543262138962746;-0.0024434609804302454
01:00:0A:00:00:00:00;1723766539;16/08/24;00:02:19;1.016;-0.046;0.088;0.05253440886735916;-0.004886921960860491;0.0
01:00:0A:00:00:00:00;1723766540;16/08/24;00:02:20;1.019;-0.044;0.088;0.051312677562236786;0.0036651913542300463;0.010995574295520782
01:00:0A:00:00:00:00;1723766541;16/08/24;00:02:21;1.02;-0.041;0.081;0.04642575979232788;-0.006108652334660292;0.014660765416920185
01:00:0A:00:00:00:00;1723766542;16/08/24;00:02:22;1.019;-0.042;0.078;0.04642575979232788;-0.010995574295520782;0.0073303827084600925
01:00:0A:00:00:00:00;1723766543;16/08/24;00:02:23;1.018;-0.04;0.081;0.04642575979232788;-0.014660765416920185;0.004886921960860491
01:00:0A:00:00:00:00;1723766544;16/08/24;00:02:24;1.017;-0.046;0.085;0.04153883829712868;-0.018325956538319588;0.012217304669320583
01:00:0A:00:00:00:00;1723766545;16/08/24;00:02:25;1.014;-0.043;0.081;0.04398229718208313;-0.00855211354792118;0.010995574295520782
01:00:0A:00:00:00:00;1723766546;16/08/24;00:02:26;1.006;-0.04;0.081;0.04398229718208313;-0.0036651913542300463;0.010995574295520782
01:00:0A:00:00:00:00;1723766547;16/08/24;00:02:27;1.005;-0.041;0.081;0.040317103266716;-0.014660765416920185;0.00855211354792118
01:00:0A:00:00:00:00;1723766548;16/08/24;00:02:28;1.01;-0.04;0.08;0.04153883829712868;-0.02076941914856434;-0.0036651913542300463
01:00:0A:00:00:00:00;1723766549;16/08/24;00:02:29;1.015;-0.04;0.084;0.040317103266716;-0.024434609338641167;-0.0012217304902151227
01:00:0A:00:00:00:00;1723766550;16/08/24;00:02:30;1.02;-0.044;0.09;0.03787364438176155;-0.013439035043120384;0.00855211354792118
01:00:0A:00:00:00:00;1723766551;16/08/24;00:02:31;1.018;-0.043;0.086;0.040317103266716;-0.0012217304902151227;0.00855211354792118
01:00:0A:00:00:00:00;1723766552;16/08/24;00:02:32;1.012;-0.04;0.084;0.040317103266716;0.0036651913542300463;0.010995574295520782
01:00:0A:00:00:00:00;1723766553;16/08/24;00:02:33;1.009;-0.04;0.081;0.03787364438176155;-0.0036651913542300463;0.006108652334660292
01:00:0A:00:00:00:00;1723766554;16/08/24;00:02:34;1.008;-0.042;0.077;0.039095375686883926;-0.01710422709584236;-0.006108652334660292
01:00:0A:00:00:00:00;1723766555;16/08/24;00:02:35;1.016;-0.042;0.081;0.036651913076639175;-0.025656338781118393;-0.0012217304902151227
01:00:0A:00:00:00:00;1723766556;16/08/24;00:02:36;1.023;-0.044;0.084;0.03298672288656235;-0.02687807008624077;0.004886921960860491
01:00:0A:00:00:00:00;1723766557;16/08/24;00:02:37;1.024;-0.045;0.091;0.03298672288656235;-0.010995574295520782;0.010995574295520782
01:00:0A:00:00:00:00;1723766558;16/08/24;00:02:38;1.019;-0.04;0.09;0.03176499158143997;-0.004886921960860491;0.013439035043120384
01:00:0A:00:00:00:00;1723766559;16/08/24;00:02:39;1.009;-0.041;0.086;0.02932153083384037;-0.0036651913542300463;0.009773843921720982
01:00:0A:00:00:00:00;1723766560;16/08/24;00:02:40;1.005;-0.04;0.083;0.028099799528717995;-0.0036651913542300463;0.0036651913542300463
01:00:0A:00:00:00:00;1723766561;16/08/24;00:02:41;1.002;-0.039;0.081;0.025656338781118393;-0.013439035043120384;-0.0012217304902151227
01:00:0A:00:00:00:00;1723766562;16/08/24;00:02:42;1.007;-0.042;0.081;0.021991148591041565;-0.019547687843441963;-0.0036651913542300463
01:00:0A:00:00:00:00;1723766563;16/08/24;00:02:43;1.016;-0.043;0.084;0.02076941914856434;-0.02076941914856434;-0.009773843921720982
01:00:0A:00:00:00:00;1723766564;16/08/24;00:02:44;1.026;-0.044;0.087;0.01710422709584236;-0.01710422709584236;0.0024434609804302454
01:00:0A:00:00:00:00;1723766565;16/08/24;00:02:45;1.025;-0.045;0.087;0.014660765416920185;-0.012217304669320583;0.006108652334660292
01:00:0A:00:00:00:00;1723766566;16/08/24;00:02:46;1.019;-0.044;0.086;0.014660765416920185;-0.006108652334660292;0.009773843921720982
01:00:0A:00:00:00:00;1723766567;16/08/24;00:02:47;1.014;-0.041;0.085;0.012217304669320583;-0.0036651913542300463;0.013439035043120384
01:00:0A:00:00:00:00;1723766568;16/08/24;00:02:48;1.005;-0.039;0.082;0.010995574295520782;-0.004886921960860491;0.012217304669320583
01:00:0A:00:00:00:00;1723766569;16/08/24;00:02:49;1.003;-0.038;0.081;0.009773843921720982;-0.013439035043120384;0.0036651913542300463
01:00:0A:00:00:00:00;1723766570;16/08/24;00:02:50;1.007;-0.037;0.082;0.0073303827084600925;-0.01710422709584236;-0.0036651913542300463
01:00:0A:00:00:00:00;1723766571;16/08/24;00:02:51;1.015;-0.04;0.082;0.006108652334660292;-0.015882495790719986;-0.0024434609804302454
01:00:0A:00:00:00:00;1723766572;16/08/24;00:02:52;1.018;-0.041;0.085;0.006108652334660292;-0.012217304669320583;0.0
01:00:0A:00:00:00:00;1723766573;16/08/24;00:02:53;1.02;-0.041;0.084;0.0036651913542300463;-0.00855211354792118;0.0073303827084600925
01:00:0A:00:00:00:00;1723766574;16/08/24;00:02:54;1.018;-0.041;0.083;0.0024434609804302454;-0.0073303827084600925;0.009773843921720982
01:00:0A:00:00:00:00;1723766575;16/08/24;00:02:55;1.016;-0.04;0.082;0.0012217304902151227;-0.010995574295520782;0.0036651913542300463
01:00:0A:00:00:00:00;1723766576;16/08/24;00:02:56;1.016;-0.04;0.081;-0.0024434609804302454;-0.015882495790719986;0.0024434609804302454
01:00:0A:00:00:00:00;1723766577;16/08/24;00:02:57;1.016;-0.043;0.085;-0.004886921960860491;-0.013439035043120384;0.004886921960860491
01:00:0A:00:00:00:00;1723766578;16/08/24;00:02:58;1.017;-0.044;0.086;-0.0073303827084600925;-0.00855211354792118;0.0073303827084600925
01:00:0A:00:00:00:00;1723766579;16/08/24;00:02:59;1.012;-0.04;0.085;-0.009773843921720982;-0.006108652334660292;0.014660765416920185
01:00:0A:00:00:00:00;1723766580;16/08/24;00:03:00;1.007;-0.04;0.083;-0.009773843921720982;-0.0012217304902151227;0.013439035043120384
01:00:0A:00:00:00:00;1723766581;16/08/24;00:03:01;1.004;-0.04;0.081;-0.010995574295520782;-0.006108652334660292;0.0024434609804302454
01:00:0A:00:00:00:00;1723766582;16/08/24;00:03:02;1.008;-0.04;0.08;-0.010995574295520782;-0.01710422709584236;-0.00855211354792118
01:00:0A:00:00:00:00;1723766583;16/08/24;00:03:03;1.013;-0.043;0.081;-0.012217304669320583;-0.021991148591041565;-0.010995574295520782
01:00:0A:00:00:00:00;1723766584;16/08/24;00:03:04;1.024;-0.047;0.087;-0.014660765416920185;-0.01710422709584236;-0.0024434609804302454
01:00:0A:00:00:00:00;1723766585;16/08/24;00:03:05;1.027;-0.048;0.088;-0.014660765416920185;-0.010995574295520782;0.0073303827084600925
01:00:0A:00:00:00:00;1723766586;16/08/24;00:03:06;1.02;-0.045;0.088;-0.013439035043120384;-0.0012217304902151227;0.009773843921720982
01:00:0A:00:00:00:00;1723766587;16/08/24;00:03:07;1.012;-0.043;0.084;-0.013439035043120384;0.0;0.0073303827084600925
01:00:0A:00:00:00:00;1723766588;16/08/24;00:03:08;1.002;-0.043;0.081;-0.013439035043120384;-0.00855211354792118;0.006108652334660292
01:00:0A:00:00:00:00;1723766589;16/08/24;00:03:09;1.005;-0.042;0.081;-0.013439035043120384;-0.019547687843441963;-0.0036651913542300463
01:00:0A:00:00:00:00;1723766590;16/08/24;00:03:10;1.012;-0.042;0.083;-0.014660765416920185;-0.02076941914856434;-0.004886921960860491
01:00:0A:00:00:00:00;1723766591;16/08/24;00:03:11;1.022;-0.043;0.087;-0.014660765416920185;-0.014660765416920185;0.0012217304902151227
01:00:0A:00:00:00:00;1723766592;16/08/24;00:03:12;1.022;-0.043;0.088;-0.015882495790719986;-0.00855211354792118;0.0024434609804302454
01:00:0A:00:00:00:00;1723766593;16/08/24;00:03:13;1.016;-0.04;0.084;-0.015882495790719986;-0.0012217304902151227;0.004886921960860491
01:00:0A:00:00:00:00;1723766594;16/08/24;00:03:14;1.01;-0.04;0.081;-0.018325956538319588;-0.0036651913542300463;0.006108652334660292
01:00:0A:00:00:00:00;1723766595;16/08/24;00:03:15;1.006;-0.04;0.081;-0.019547687843441963;-0.014660765416920185;-0.0024434609804302454
01:00:0A:00:00:00:00;1723766596;16/08/24;00:03:16;1.008;-0.04;0.081;-0.021991148591041565;-0.019547687843441963;-0.004886921960860491
01:00:0A:00:00:00:00;1723766597;16/08/24;00:03:17;1.016;-0.043;0.085;-0.02321287989616394;-0.019547687843441963;-0.004886921960860491
01:00:0A:00:00:00:00;1723766598;16/08/24;00:03:18;1.021;-0.045;0.089;-0.02321287989616394;-0.010995574295520782;0.0024434609804302454
01:00:0A:00:00:00:00;1723766599;16/08/24;00:03:19;1.019;-0.044;0.088;-0.024434609338641167;-0.006108652334660292;0.0073303827084600925
01:00:0A:00:00:00:00;1723766600;16/08/24;00:03:20;1.014;-0.044;0.083;-0.025656338781118393;-0.0036651913542300463;0.015882495790719986
01:00:0A:00:00:00:00;1723766601;16/08/24;00:03:21;1.01;-0.042;0.081;-0.025656338781118393;-0.006108652334660292;0.012217304669320583
01:00:0A:00:00:00:00;1723766602;16/08/24;00:03:22;1.007;-0.039;0.08;-0.024434609338641167;-0.013439035043120384;0.0024434609804302454
01:00:0A:00:00:00:00;1723766603;16/08/24;00:03:23;1.01;-0.04;0.082;-0.024434609338641167;-0.01710422709584236;-0.0012217304902151227
01:00:0A:00:00:00:00;1723766604;16/08/24;00:03:24;1.014;-0.042;0.085;-0.021991148591041565;-0.013439035043120384;-0.009773843921720982
01:00:0A:00:00:00:00;1723766605;16/08/24;00:03:25;1.014;-0.043;0.086;-0.021991148591041565;-0.010995574295520782;-0.004886921960860491
01:00:0A:00:00:00:00;1723766606;16/08/24;00:03:26;1.016;-0.044;0.083;-0.021991148591041565;-0.0073303827084600925;0.0024434609804302454
01:00:0A:00:00:00:00;1723766607;16/08/24;00:03:27;1.016;-0.044;0.083;-0.02076941914856434;-0.0073303827084600925;0.0012217304902151227
01:00:0A:00:00:00:00;1723766608;16/08/24;00:03:28;1.016;-0.042;0.082;-0.02076941914856434;-0.009773843921720982;0.004886921960860491
01:00:0A:00:00:00:00;1723766609;16/08/24;00:03:29;1.015;-0.042;0.082;-0.02076941914856434;-0.012217304669320583;0.004886921960860491
01:00:0A:00:00:00:00;1723766610;16/08/24;00:03:30;1.015;-0.043;0.083;-0.01710422709584236;-0.010995574295520782;0.0012217304902151227
01:00:0A:00:00:00:00;1723766611;16/08/24;00:03:31;1.013;-0.041;0.082;-0.015882495790719986;-0.009773843921720982;0.004886921960860491
01:00:0A:00:00:00:00;1723766612;16/08/24;00:03:32;1.013;-0.043;0.084;-0.013439035043120384;-0.00855211354792118;0.0073303827084600925
01:00:0A:00:00:00:00;1723766613;16/08/24;00:03:33;1.012;-0.041;0.083;-0.010995574295520782;-0.0073303827084600925;0.0024434609804302454
01:00:0A:00:00:00:00;1723766614;16/08/24;00:03:34;1.011;-0.04;0.082;-0.009773843921720982;-0.00855211354792118;0.0012217304902151227
01:00:0A:00:00:00:00;1723766615;16/08/24;00:03:35;1.012;-0.041;0.083;-0.0073303827084600925;-0.009773843921720982;-0.0012217304902151227
01:00:0A:00:00:00:00;1723766616;16/08/24;00:03:36;1.015;-0.042;0.083;-0.004886921960860491;-0.010995574295520782;-0.004886921960860491
01:00:0A:00:00:00:00;1723766617;16/08/24;00:03:37;1.016;-0.041;0.082;-0.0036651913542300463;-0.013439035043120384;-0.0036651913542300463
01:00:0A:00:00:00:00;1723766618;16/08/24;00:03:38;1.018;-0.044;0.083;-0.0024434609804302454;-0.012217304669320583;0.0036651913542300463
01:00:0A:00:00:00:00;1723766619;16/08/24;00:03:39;1.018;-0.043;0.083;0.0;-0.009773843921720982;0.004886921960860491
01:00:0A:00:00:00:00;1723766620;16/08/24;00:03:40;1.015;-0.04;0.082;0.0;-0.009773843921720982;0.009773843921720982
01:00:0A:00:00:00:00;1723766621;16/08/24;00:03:41;1.012;-0.042;0.081;0.0;-0.009773843921720982;0.010995574295520782
01:00:0A:00:00:00:00;1723766622;16/08/24;00:03:42;1.009;-0.04;0.083;0.0012217304902151227;-0.012217304669320583;0.0012217304902151227
01:00:0A:00:00:00:00;1723766623;16/08/24;00:03:43;1.011;-0.041;0.085;0.0;-0.012217304669320583;0.0
01:00:0A:00:00:00:00;1723766624;16/08/24;00:03:44;1.014;-0.041;0.083;0.0;-0.012217304669320583;0.0012217304902151227
01:00:0A:00:00:00:00;1723766625;16/08/24;00:03:45;1.016;-0.042;0.083;0.0;-0.012217304669320583;-0.0012217304902151227
01:00:0A:00:00:00:00;1723766626;16/08/24;00:03:46;1.015;-0.04;0.082;-0.0012217304902151227;-0.012217304669320583;0.0036651913542300463
01:00:0A:00:00:00:00;1723766627;16/08/24;00:03:47;1.014;-0.043;0.081;-0.0012217304902151227;-0.012217304669320583;0.0036651913542300463
01:00:0A:00:00:00:00;1723766628;16/08/24;00:03:48;1.016;-0.042;0.081;-0.0012217304902151227;-0.012217304669320583;0.0024434609804302454
01:00:0A:00:00:00:00;1723766629;16/08/24;00:03:49;1.014;-0.04;0.082;-0.0024434609804302454;-0.014660765416920185;0.0036651913542300463
01:00:0A:00:00:00:00;1723766630;16/08/24;00:03:50;1.016;-0.044;0.081;-0.0012217304902151227;-0.012217304669320583;0.0024434609804302454
01:00:0A:00:00:00:00;1723766631;16/08/24;00:03:51;1.015;-0.041;0.082;-0.0012217304902151227;-0.010995574295520782;0.0036651913542300463
01:00:0A:00:00:00:00;1723766632;16/08/24;00:03:52;1.012;-0.042;0.083;-0.0024434609804302454;-0.013439035043120384;0.004886921960860491
01:00:0A:00:00:00:00;1723766633;16/08/24;00:03:53;1.012;-0.043;0.082;-0.0024434609804302454;-0.010995574295520782;0.0024434609804302454
01:00:0A:00:00:00:00;1723766634;16/08/24;00:03:54;1.013;-0.042;0.083;-0.0012217304902151227;-0.00855211354792118;0.0012217304902151227
01:00:0A:00:00:00:00;1723766635;16/08/24;00:03:55;1.014;-0.042;0.084;-0.0036651913542300463;-0.009773843921720982;0.004886921960860491
01:00:0A:00:00:00:00;1723766636;16/08/24;00:03:56;1.016;-0.043;0.081;-0.0036651913542300463;-0.00855211354792118;0.006108652334660292
01:00:0A:00:00:00:00;1723766637;16/08/24;00:03:57;1.017;-0.04;0.081;-0.0024434609804302454;-0.00855211354792118;0.004886921960860491
01:00:0A:00:00:00:00;1723766638;16/08/24;00:03:58;1.014;-0.04;0.081;-0.004886921960860491;-0.014660765416920185;0.006108652334660292
01:00:0A:00:00:00:00;1723766639;16/08/24;00:03:59;1.013;-0.041;0.081;-0.0036651913542300463;-0.014660765416920185;0.0012217304902151227
01:00:0A:00:00:00:00;1723766640;16/08/24;00:04:00;1.011;-0.042;0.084;-0.0036651913542300463;-0.013439035043120384;-0.0036651913542300463
01:00:0A:00:00:00:00;1723766641;16/08/24;00:04:01;1.014;-0.044;0.083;-0.004886921960860491;-0.012217304669320583;0.0024434609804302454
01:00:0A:00:00:00:00;1723766642;16/08/24;00:04:02;1.016;-0.044;0.083;-0.0036651913542300463;-0.009773843921720982;0.0024434609804302454
01:00:0A:00:00:00:00;1723766643;16/08/24;00:04:03;1.018;-0.042;0.083;-0.0036651913542300463;-0.0073303827084600925;0.004886921960860491
01:00:0A:00:00:00:00;1723766644;16/08/24;00:04:04;1.017;-0.041;0.082;-0.006108652334660292;-0.009773843921720982;0.00855211354792118
01:00:0A:00:00:00:00;1723766645;16/08/24;00:04:05;1.014;-0.042;0.083;-0.0036651913542300463;-0.009773843921720982;0.004886921960860491
01:00:0A:00:00:00:00;1723766646;16/08/24;00:04:06;1.014;-0.04;0.083;-0.004886921960860491;-0.010995574295520782;0.004886921960860491
01:00:0A:00:00:00:00;1723766647;16/08/24;00:04:07;1.012;-0.041;0.081;-0.006108652334660292;-0.012217304669320583;0.0073303827084600925
01:00:0A:00:00:00:00;1723766648;16/08/24;00:04:08;1.012;-0.041;0.081;-0.0036651913542300463;-0.0073303827084600925;0.004886921960860491
01:00:0A:00:00:00:00;1723766649;16/08/24;00:04:09;1.012;-0.04;0.081;-0.004886921960860491;-0.010995574295520782;0.0012217304902151227
01:00:0A:00:00:00:00;1723766650;16/08/24;00:04:10;1.014;-0.041;0.081;-0.006108652334660292;-0.014660765416920185;0.0
01:00:0A:00:00:00:00;1723766651;16/08/24;00:04:11;1.011;-0.04;0.081;-0.004886921960860491;-0.012217304669320583;-0.0036651913542300463
01:00:0A:00:00:00:00;1723766652;16/08/24;00:04:12;1.012;-0.042;0.082;-0.006108652334660292;-0.015882495790719986;-0.0024434609804302454
01:00:0A:00:00:00:00;1723766653;16/08/24;00:04:13;1.014;-0.045;0.082;-0.0073303827084600925;-0.014660765416920185;0.0
01:00:0A:00:00:00:00;1723766654;16/08/24;00:04:14;1.017;-0.043;0.083;-0.006108652334660292;-0.009773843921720982;0.0036651913542300463
01:00:0A:00:00:00:00;1723766655;16/08/24;00:04:15;1.021;-0.042;0.084;-0.0073303827084600925;-0.009773843921720982;0.004886921960860491
01:00:0A:00:00:00:00;1723766656;16/08/24;00:04:16;1.019;-0.042;0.082;-0.00855211354792118;-0.0073303827084600925;0.010995574295520782
01:00:0A:00:00:00:00;1723766657;16/08/24;00:04:17;1.015;-0.041;0.082;-0.0073303827084600925;-0.004886921960860491;0.009773843921720982
01:00:0A:00:00:00:00;1723766658;16/08/24;00:04:18;1.008;-0.04;0.082;-0.00855211354792118;-0.00855211354792118;0.0073303827084600925
01:00:0A:00:00:00:00;1723766659;16/08/24;00:04:19;1.004;-0.04;0.081;-0.00855211354792118;-0.014660765416920185;-0.0012217304902151227
01:00:0A:00:00:00:00;1723766660;16/08/24;00:04:20;1.007;-0.041;0.081;-0.006108652334660292;-0.013439035043120384;-0.0073303827084600925
01:00:0A:00:00:00:00;1723766661;16/08/24;00:04:21;1.016;-0.042;0.082;-0.00855211354792118;-0.01710422709584236;-0.0073303827084600925
01:00:0A:00:00:00:00;1723766662;16/08/24;00:04:22;1.019;-0.044;0.082;-0.00855211354792118;-0.014660765416920185;-0.0036651913542300463
01:00:0A:00:00:00:00;1723766663;16/08/24;00:04:23;1.021;-0.044;0.082;-0.00855211354792118;-0.00855211354792118;0.0036651913542300463
01:00:0A:00:00:00:00;1723766664;16/08/24;00:04:24;1.02;-0.043;0.082;-0.009773843921720982;-0.009773843921720982;0.00855211354792118
01:00:0A:00:00:00:00;1723766665;16/08/24;00:04:25;1.015;-0.041;0.081;-0.009773843921720982;-0.00855211354792118;0.010995574295520782
01:00:0A:00:00:00:00;1723766666;16/08/24;00:04:26;1.013;-0.04;0.083;-0.00855211354792118;-0.0073303827084600925;0.006108652334660292
01:00:0A:00:00:00:00;1723766667;16/08/24;00:04:27;1.011;-0.04;0.083;-0.009773843921720982;-0.012217304669320583;0.0024434609804302454
01:00:0A:00:00:00:00;1723766668;16/08/24;00:04:28;1.01;-0.041;0.082;-0.00855211354792118;-0.012217304669320583;0.0012217304902151227
01:00:0A:00:00:00:00;1723766669;16/08/24;00:04:29;1.01;-0.041;0.082;-0.0073303827084600925;-0.009773843921720982;0.0
01:00:0A:00:00:00:00;1723766670;16/08/24;00:04:30;1.013;-0.042;0.081;-0.00855211354792118;-0.013439035043120384;0.0012217304902151227
01:00:0A:00:00:00:00;1723766671;16/08/24;00:04:31;1.014;-0.042;0.08;-0.00855211354792118;-0.012217304669320583;0.0012217304902151227
01:00:0A:00:00:00:00;1723766672;16/08/24;00:04:32;1.016;-0.041;0.082;-0.0073303827084600925;-0.010995574295520782;-0.0012217304902151227
01:00:0A:00:00:00:00;1723766673;16/08/24;00:04:33;1.017;-0.041;0.082;-0.00855211354792118;-0.014660765416920185;0.0012217304902151227
01:00:0A:00:00:00:00;1723766674;16/08/24;00:04:34;1.016;-0.042;0.082;-0.0073303827084600925;-0.010995574295520782;0.0036651913542300463
01:00:0A:00:00:00:00;1723766675;16/08/24;00:04:35;1.016;-0.042;0.083;-0.006108652334660292;-0.00855211354792118;0.0036651913542300463
01:00:0A:00:00:00:00;1723766676;16/08/24;00:04:36;1.013;-0.04;0.083;-0.0073303827084600925;-0.010995574295520782;0.006108652334660292
01:00:0A:00:00:00:00;1723766677;16/08/24;00:04:37;1.013;-0.042;0.081;-0.006108652334660292;-0.009773843921720982;0.0036651913542300463
01:00:0A:00:00:00:00;1723766678;16/08/24;00:04:38;1.012;-0.041;0.082;-0.004886921960860491;-0.00855211354792118;0.0024434609804302454
01:00:0A:00:00:00:00;1723766679;16/08/24;00:04:39;1.013;-0.041;0.081;-0.004886921960860491;-0.012217304669320583;0.0036651913542300463
01:00:0A:00:00:00:00;1723766680;16/08/24;00:04:40;1.012;-0.043;0.082;-0.0036651913542300463;-0.010995574295520782;0.0024434609804302454
01:00:0A:00:00:00:00;1723766681;16/08/24;00:04:41;1.013;-0.041;0.082;-0.0024434609804302454;-0.012217304669320583;0.0036651913542300463
01:00:0A:00:00:00:00;1723766682;16/08/24;00:04:42;1.013;-0.041;0.081;-0.0036651913542300463;-0.014660765416920185;0.0036651913542300463
01:00:0A:00:00:00:00;1723766683;16/08/24;00:04:43;1.016;-0.042;0.082;-0.0012217304902151227;-0.010995574295520782;0.0012217304902151227
01:00:0A:00:00:00:00;1723766684;16/08/24;00:04:44;1.016;-0.041;0.082;0.0;-0.010995574295520782;0.0012217304902151227
01:00:0A:00:00:00:00;1723766685;16/08/24;00:04:45;1.014;-0.043;0.081;-0.0012217304902151227;-0.013439035043120384;0.0036651913542300463
01:00:0A:00:00:00:00;1723766686;16/08/24;00:04:46;1.013;-0.043;0.082;0.0012217304902151227;-0.010995574295520782;0.004886921960860491
01:00:0A:00:00:00:00;1723766687;16/08/24;00:04:47;1.014;-0.04;0.082;0.0012217304902151227;-0.010995574295520782;0.004886921960860491
01:00:0A:00:00:00:00;1723766688;16/08/24;00:04:48;1.015;-0.041;0.082;0.0012217304902151227;-0.014660765416920185;0.004886921960860491
01:00:0A:00:00:00:00;1723766689;16/08/24;00:04:49;1.016;-0.041;0.081;0.0036651913542300463;-0.009773843921720982;0.0012217304902151227
01:00:0A:00:00:00:00;1723766690;16/08/24;00:04:50;1.015;-0.04;0.082;0.0036651913542300463;-0.010995574295520782;0.0
01:00:0A:00:00:00:00;1723766691;16/08/24;00:04:51;1.013;-0.042;0.082;0.0036651913542300463;-0.012217304669320583;0.0024434609804302454
01:00:0A:00:00:00:00;1723766692;16/08/24;00:04:52;1.014;-0.042;0.081;0.004886921960860491;-0.010995574295520782;0.0036651913542300463
01:00:0A:00:00:00:00;1723766693;16/08/24;00:04:53;1.015;-0.04;0.082;0.0036651913542300463;-0.010995574295520782;0.004886921960860491
01:00:0A:00:00:00:00;1723766694;16/08/24;00:04:54;1.015;-0.04;0.082;0.0036651913542300463;-0.012217304669320583;0.006108652334660292
01:00:0A:00:00:00:00;1723766695;16/08/24;00:04:55;1.015;-0.04;0.082;0.004886921960860491;-0.009773843921720982;0.0012217304902151227
01:00:0A:00:00:00:00;1723766696;16/08/24;00:04:56;1.014;-0.04;0.083;0.004886921960860491;-0.009773843921720982;0.0012217304902151227
01:00:0A:00:00:00:00;1723766697;16/08/24;00:04:57;1.013;-0.042;0.081;0.0036651913542300463;-0.013439035043120384;0.0024434609804302454
01:00:0A:00:00:00:00;1723766698;16/08/24;00:04:58;1.012;-0.043;0.081;0.004886921960860491;-0.010995574295520782;0.0024434609804302454
01:00:0A:00:00:00:00;1723766699;16/08/24;00:04:59;1.012;-0.042;0.082;0.0036651913542300463;-0.012217304669320583;0.006108652334660292
01:00:0A:00:00:00:00;1723766700;16/08/24;00:05:00;1.015;-0.041;0.082;0.0024434609804302454;-0.012217304669320583;0.006108652334660292
01:00:0A:00:00:00:00;1723766701;16/08/24;00:05:01;1.016;-0.04;0.082;0.0036651913542300463;-0.0073303827084600925;0.0036651913542300463
01:00:0A:00:00:00:00;1723766702;16/08/24;00:05:02;1.014;-0.04;0.082;0.0036651913542300463;-0.009773843921720982;0.0024434609804302454
01:00:0A:00:00:00:00;1723766703;16/08/24;00:05:03;1.014;-0.042;0.081;0.0024434609804302454;-0.012217304669320583;0.0024434609804302454
01:00:0A:00:00:00:00;1723766704;16/08/24;00:05:04;1.015;-0.043;0.081;0.0036651913542300463;-0.010995574295520782;0.0036651913542300463
01:00:0A:00:00:00:00;1723766705;16/08/24;00:05:05;1.015;-0.042;0.083;0.0024434609804302454;-0.013439035043120384;0.004886921960860491
01:00:0A:00:00:00:00;1723766706;16/08/24;00:05:06;1.016;-0.042;0.082;0.0012217304902151227;-0.012217304669320583;0.00855211354792118
01:00:0A:00:00:00:00;1723766707;16/08/24;00:05:07;1.016;-0.04;0.082;0.0024434609804302454;-0.00855211354792118;0.006108652334660292
01:00:0A:00:00:00:00;1723766708;16/08/24;00:05:08;1.014;-0.04;0.081;0.0012217304902151227;-0.009773843921720982;0.0036651913542300463
01:00:0A:00:00:00:00;1723766709;16/08/24;00:05:09;1.012;-0.041;0.081;0.0012217304902151227;-0.013439035043120384;0.0012217304902151227
01:00:0A:00:00:00:00;1723766710;16/08/24;00:05:10;1.01;-0.041;0.081;0.0024434609804302454;-0.012217304669320583;0.0
01:00:0A:00:00:00:00;1723766711;16/08/24;00:05:11;1.013;-0.043;0.084;0.0012217304902151227;-0.013439035043120384;0.0024434609804302454
01:00:0A:00:00:00:00;1723766712;16/08/24;00:05:12;1.015;-0.043;0.081;0.0012217304902151227;-0.012217304669320583;0.0036651913542300463
01:00:0A:00:00:00:00;1723766713;16/08/24;00:05:13;1.018;-0.042;0.082;0.0012217304902151227;-0.009773843921720982;0.004886921960860491
01:00:0A:00:00:00:00;1723766714;16/08/24;00:05:14;1.018;-0.041;0.082;0.0;-0.009773843921720982;0.006108652334660292
01:00:0A:00:00:00:00;1723766715;16/08/24;00:05:15;1.016;-0.041;0.082;0.0;-0.009773843921720982;0.004886921960860491
01:00:0A:00:00:00:00;1723766716;16/08/24;00:05:16;1.015;-0.041;0.082;0.0;-0.0073303827084600925;0.0036651913542300463
01:00:0A:00:00:00:00;1723766717;16/08/24;00:05:17;1.012;-0.041;0.081;0.0;-0.009773843921720982;0.004886921960860491
01:00:0A:00:00:00:00;1723766718;16/08/24;00:05:18;1.01;-0.042;0.081;0.0;-0.010995574295520782;0.0024434609804302454
01:00:0A:00:00:00:00;1723766719;16/08/24;00:05:19;1.013;-0.04;0.081;0.0;-0.010995574295520782;0.0012217304902151227
01:00:0A:00:00:00:00;1723766720;16/08/24;00:05:20;1.015;-0.04;0.082;-0.0012217304902151227;-0.013439035043120384;0.0012217304902151227
01:00:0A:00:00:00:00;1723766721;16/08/24;00:05:21;1.014;-0.041;0.081;-0.0012217304902151227;-0.013439035043120384;0.0012217304902151227
01:00:0A:00:00:00:00;1723766722;16/08/24;00:05:22;1.015;-0.042;0.084;-0.0012217304902151227;-0.010995574295520782;0.0024434609804302454
01:00:0A:00:00:00:00;1723766723;16/08/24;00:05:23;1.015;-0.042;0.082;-0.0024434609804302454;-0.012217304669320583;0.0036651913542300463
01:00:0A:00:00:00:00;1723766724;16/08/24;00:05:24;1.016;-0.041;0.082;-0.0024434609804302454;-0.009773843921720982;0.006108652334660292
01:00:0A:00:00:00:00;1723766725;16/08/24;00:05:25;1.016;-0.041;0.083;-0.0024434609804302454;-0.00855211354792118;0.004886921960860491
01:00:0A:00:00:00:00;1723766726;16/08/24;00:05:26;1.015;-0.04;0.082;-0.0036651913542300463;-0.010995574295520782;0.006108652334660292
01:00:0A:00:00:00:00;1723766727;16/08/24;00:05:27;1.012;-0.04;0.082;-0.0024434609804302454;-0.009773843921720982;0.0024434609804302454
01:00:0A:00:00:00:00;1723766728;16/08/24;00:05:28;1.013;-0.039;0.082;-0.0036651913542300463;-0.009773843921720982;0.0012217304902151227
01:00:0A:00:00:00:00;1723766729;16/08/24;00:05:29;1.013;-0.041;0.082;-0.0036651913542300463;-0.010995574295520782;0.0012217304902151227
01:00:0A:00:00:00:00;1723766730;16/08/24;00:05:30;1.014;-0.041;0.083;-0.0036651913542300463;-0.010995574295520782;0.0
01:00:0A:00:00:00:00;1723766731;16/08/24;00:05:31;1.014;-0.041;0.082;-0.0036651913542300463;-0.012217304669320583;0.0012217304902151227
01:00:0A:00:00:00:00;1723766732;16/08/24;00:05:32;1.014;-0.042;0.083;-0.0036651913542300463;-0.013439035043120384;0.0024434609804302454
01:00:0A:00:00:00:00;1723766733;16/08/24;00:05:33;1.015;-0.043;0.083;-0.0036651913542300463;-0.012217304669320583;0.0036651913542300463
01:00:0A:00:00:00:00;1723766734;16/08/24;00:05:34;1.014;-0.042;0.083;-0.0024434609804302454;-0.012217304669320583;0.004886921960860491
01:00:0A:00:00:00:00;1723766735;16/08/24;00:05:35;1.016;-0.04;0.083;-0.0024434609804302454;-0.012217304669320583;0.0036651913542300463
01:00:0A:00:00:00:00;1723766736;16/08/24;00:05:36;1.015;-0.041;0.081;0.0;-0.010995574295520782;0.0024434609804302454
01:00:0A:00:00:00:00;1723766737;16/08/24;00:05:37;1.015;-0.04;0.081;0.0;-0.009773843921720982;0.0012217304902151227
01:00:0A:00:00:00:00;1723766738;16/08/24;00:05:38;1.013;-0.041;0.082;0.0012217304902151227;-0.010995574295520782;0.0012217304902151227
01:00:0A:00:00:00:00;1723766739;16/08/24;00:05:39;1.013;-0.043;0.082;0.0024434609804302454;-0.010995574295520782;0.0024434609804302454
01:00:0A:00:00:00:00;1723766740;16/08/24;00:05:40;1.012;-0.042;0.082;0.0024434609804302454;-0.010995574295520782;0.0036651913542300463
01:00:0A:00:00:00:00;1723766741;16/08/24;00:05:41;1.014;-0.041;0.081;0.0024434609804302454;-0.013439035043120384;0.004886921960860491
01:00:0A:00:00:00:00;1723766742;16/08/24;00:05:42;1.015;-0.041;0.082;0.0036651913542300463;-0.012217304669320583;0.0036651913542300463
01:00:0A:00:00:00:00;1723766743;16/08/24;00:05:43;1.015;-0.04;0.082;0.0036651913542300463;-0.012217304669320583;0.0012217304902151227
01:00:0A:00:00:00:00;1723766744;16/08/24;00:05:44;1.014;-0.042;0.083;0.0036651913542300463;-0.012217304669320583;0.0024434609804302454
01:00:0A:00:00:00:00;1723766745;16/08/24;00:05:45;1.016;-0.042;0.081;0.004886921960860491;-0.010995574295520782;0.0024434609804302454
01:00:0A:00:00:00:00;1723766746;16/08/24;00:05:46;1.016;-0.043;0.083;0.004886921960860491;-0.010995574295520782;0.004886921960860491
01:00:0A:00:00:00:00;1723766747;16/08/24;00:05:47;1.014;-0.04;0.083;0.0036651913542300463;-0.010995574295520782;0.006108652334660292
01:00:0A:00:00:00:00;1723766748;16/08/24;00:05:48;1.012;-0.04;0.082;0.004886921960860491;-0.010995574295520782;0.004886921960860491
01:00:0A:00:00:00:00;1723766749;16/08/24;00:05:49;1.012;-0.041;0.082;0.004886921960860491;-0.010995574295520782;0.0024434609804302454
01:00:0A:00:00:00:00;1723766750;16/08/24;00:05:50;1.014;-0.04;0.083;0.004886921960860491;-0.012217304669320583;0.0
01:00:0A:00:00:00:00;1723766751;16/08/24;00:05:51;1.016;-0.043;0.082;0.004886921960860491;-0.010995574295520782;0.0012217304902151227
01:00:0A:00:00:00:00;1723766752;16/08/24;00:05:52;1.016;-0.041;0.083;0.0036651913542300463;-0.010995574295520782;0.004886921960860491
01:00:0A:00:00:00:00;1723766753;16/08/24;00:05:53;1.016;-0.042;0.082;0.0036651913542300463;-0.010995574295520782;0.006108652334660292
01:00:0A:00:00:00:00;1723766754;16/08/24;00:05:54;1.012;-0.041;0.082;0.0036651913542300463;-0.010995574295520782;0.006108652334660292
01:00:0A:00:00:00:00;1723766755;16/08/24;00:05:55;1.011;-0.04;0.081;0.004886921960860491;-0.012217304669320583;0.0036651913542300463
01:00:0A:00:00:00:00;1723766756;16/08/24;00:05:56;1.013;-0.04;0.082;0.004886921960860491;-0.013439035043120384;0.0
01:00:0A:00:00:00:00;1723766757;16/08/24;00:05:57;1.015;-0.042;0.083;0.004886921960860491;-0.013439035043120384;0.0012217304902151227
01:00:0A:00:00:00:00;1723766758;16/08/24;00:05:58;1.018;-0.042;0.083;0.0036651913542300463;-0.012217304669320583;0.0036651913542300463
01:00:0A:00:00:00:00;1723766759;16/08/24;00:05:59;1.018;-0.043;0.084;0.0036651913542300463;-0.009773843921720982;0.0073303827084600925
01:00:0A:00:00:00:00;1723766760;16/08/24;00:06:00;1.016;-0.041;0.082;0.0036651913542300463;-0.0073303827084600925;0.0073303827084600925
01:00:0A:00:00:00:00;1723766761;16/08/24;00:06:01;1.011;-0.041;0.081;0.0036651913542300463;-0.009773843921720982;0.006108652334660292
01:00:0A:00:00:00:00;1723766762;16/08/24;00:06:02;1.01;-0.04;0.082;0.0036651913542300463;-0.010995574295520782;0.004886921960860491
01:00:0A:00:00:00:00;1723766763;16/08/24;00:06:03;1.012;-0.04;0.081;0.0036651913542300463;-0.013439035043120384;0.0012217304902151227
01:00:0A:00:00:00:00;1723766764;16/08/24;00:06:04;1.014;-0.041;0.082;0.0036651913542300463;-0.014660765416920185;0.0024434609804302454
01:00:0A:00:00:00:00;1723766765;16/08/24;00:06:05;1.016;-0.042;0.083;0.0036651913542300463;-0.012217304669320583;0.0024434609804302454
01:00:0A:00:00:00:00;1723766766;16/08/24;00:06:06;1.016;-0.041;0.082;0.0036651913542300463;-0.010995574295520782;0.0024434609804302454
01:00:0A:00:00:00:00;1723766767;16/08/24;00:06:07;1.016;-0.041;0.082;0.0036651913542300463;-0.010995574295520782;0.004886921960860491
01:00:0A:00:00:00:00;1723766768;16/08/24;00:06:08;1.014;-0.042;0.082;0.0036651913542300463;-0.010995574295520782;0.0036651913542300463
01:00:0A:00:00:00:00;1723766769;16/08/24;00:06:09;1.013;-0.042;0.082;0.0036651913542300463;-0.012217304669320583;0.004886921960860491
01:00:0A:00:00:00:00;1723766770;16/08/24;00:06:10;1.016;-0.04;0.082;0.0036651913542300463;-0.010995574295520782;0.0036651913542300463
01:00:0A:00:00:00:00;1723766771;16/08/24;00:06:11;1.016;-0.042;0.081;0.0036651913542300463;-0.009773843921720982;0.0036651913542300463
01:00:0A:00:00:00:00;1723766772;16/08/24;00:06:12;1.014;-0.04;0.082;0.0036651913542300463;-0.00855211354792118;0.0036651913542300463
01:00:0A:00:00:00:00;1723766773;16/08/24;00:06:13;1.013;-0.041;0.082;0.004886921960860491;-0.00855211354792118;0.0036651913542300463
01:00:0A:00:00:00:00;1723766774;16/08/24;00:06:14;1.012;-0.041;0.081;0.004886921960860491;-0.010995574295520782;0.0024434609804302454
01:00:0A:00:00:00:00;1723766775;16/08/24;00:06:15;1.012;-0.042;0.082;0.004886921960860491;-0.013439035043120384;0.0012217304902151227
01:00:0A:00:00:00:00;1723766776;16/08/24;00:06:16;1.013;-0.041;0.082;0.006108652334660292;-0.013439035043120384;0.0012217304902151227
01:00:0A:00:00:00:00;1723766777;16/08/24;00:06:17;1.015;-0.042;0.083;0.006108652334660292;-0.013439035043120384;0.0012217304902151227
01:00:0A:00:00:00:00;1723766778;16/08/24;00:06:18;1.016;-0.042;0.083;0.0073303827084600925;-0.010995574295520782;0.0036651913542300463
01:00:0A:00:00:00:00;1723766779;16/08/24;00:06:19;1.016;-0.042;0.082;0.0073303827084600925;-0.010995574295520782;0.006108652334660292
01:00:0A:00:00:00:00;1723766780;16/08/24;00:06:20;1.016;-0.041;0.081;0.00855211354792118;-0.009773843921720982;0.004886921960860491
01:00:0A:00:00:00:00;1723766781;16/08/24;00:06:21;1.012;-0.04;0.081;0.009773843921720982;-0.009773843921720982;0.004886921960860491
01:00:0A:00:00:00:00;1723766782;16/08/24;00:06:22;1.014;-0.041;0.082;0.009773843921720982;-0.009773843921720982;0.004886921960860491
01:00:0A:00:00:00:00;1723766783;16/08/24;00:06:23;1.013;-0.041;0.081;0.009773843921720982;-0.010995574295520782;0.0024434609804302454
01:00:0A:00:00:00:00;1723766784;16/08/24;00:06:24;1.013;-0.042;0.082;0.009773843921720982;-0.012217304669320583;0.0024434609804302454
01:00:0A:00:00:00:00;1723766785;16/08/24;00:06:25;1.013;-0.041;0.081;0.009773843921720982;-0.013439035043120384;0.0024434609804302454
01:00:0A:00:00:00:00;1723766786;16/08/24;00:06:26;1.015;-0.042;0.083;0.009773843921720982;-0.013439035043120384;0.0024434609804302454
01:00:0A:00:00:00:00;1723766787;16/08/24;00:06:27;1.015;-0.041;0.083;0.010995574295520782;-0.012217304669320583;0.0036651913542300463
01:00:0A:00:00:00:00;1723766788;16/08/24;00:06:28;1.016;-0.043;0.082;0.010995574295520782;-0.010995574295520782;0.0036651913542300463
01:00:0A:00:00:00:00;1723766789;16/08/24;00:06:29;1.015;-0.042;0.082;0.010995574295520782;-0.010995574295520782;0.004886921960860491
01:00:0A:00:00:00:00;1723766790;16/08/24;00:06:30;1.015;-0.041;0.083;0.010995574295520782;-0.010995574295520782;0.004886921960860491
01:00:0A:00:00:00:00;1723766791;16/08/24;00:06:31;1.014;-0.041;0.081;0.010995574295520782;-0.010995574295520782;0.004886921960860491
01:00:0A:00:00:00:00;1723766792;16/08/24;00:06:32;1.012;-0.04;0.083;0.010995574295520782;-0.012217304669320583;0.004886921960860491
01:00:0A:00:00:00:00;1723766793;16/08/24;00:06:33;1.013;-0.04;0.082;0.012217304669320583;-0.010995574295520782;0.0036651913542300463
01:00:0A:00:00:00:00;1723766794;16/08/24;00:06:34;1.014;-0.04;0.081;0.012217304669320583;-0.012217304669320583;0.0024434609804302454
01:00:0A:00:00:00:00;1723766795;16/08/24;00:06:35;1.015;-0.04;0.082;0.013439035043120384;-0.012217304669320583;0.0012217304902151227
01:00:0A:00:00:00:00;1723766796;16/08/24;00:06:36;1.015;-0.041;0.082;0.014660765416920185;-0.012217304669320583;0.0036651913542300463
01:00:0A:00:00:00:00;1723766797;16/08/24;00:06:37;1.014;-0.043;0.081;0.014660765416920185;-0.012217304669320583;0.004886921960860491
01:00:0A:00:00:00:00;1723766798;16/08/24;00:06:38;1.014;-0.041;0.081;0.015882495790719986;-0.012217304669320583;0.004886921960860491
01:00:0A:00:00:00:00;1723766799;16/08/24;00:06:39;1.014;-0.042;0.081;0.01710422709584236;-0.012217304669320583;0.006108652334660292
01:00:0A:00:00:00:00;1723766800;16/08/24;00:06:40;1.014;-0.04;0.081;0.018325956538319588;-0.012217304669320583;0.004886921960860491
01:00:0A:00:00:00:00;1723766801;16/08/24;00:06:41;1.013;-0.041;0.081;0.019547687843441963;-0.012217304669320583;0.0024434609804302454
01:00:0A:00:00:00:00;1723766802;16/08/24;00:06:42;1.013;-0.041;0.082;0.02076941914856434;-0.012217304669320583;0.0024434609804302454
01:00:0A:00:00:00:00;1723766803;16/08/24;00:06:43;1.014;-0.044;0.082;0.02076941914856434;-0.010995574295520782;0.0036651913542300463
01:00:0A:00:00:00:00;1723766804;16/08/24;00:06:44;1.015;-0.043;0.081;0.021991148591041565;-0.009773843921720982;0.004886921960860491
01:00:0A:00:00:00:00;1723766805;16/08/24;00:06:45;1.013;-0.041;0.082;0.02076941914856434;-0.010995574295520782;0.006108652334660292
01:00:0A:00:00:00:00;1723766806;16/08/24;00:06:46;1.013;-0.04;0.081;0.021991148591041565;-0.012217304669320583;0.004886921960860491
01:00:0A:00:00:00:00;1723766807;16/08/24;00:06:47;1.014;-0.042;0.081;0.021991148591041565;-0.012217304669320583;0.0036651913542300463
01:00:0A:00:00:00:00;1723766808;16/08/24;00:06:48;1.013;-0.042;0.082;0.021991148591041565;-0.012217304669320583;0.0024434609804302454
01:00:0A:00:00:00:00;1723766809;16/08/24;00:06:49;1.016;-0.043;0.082;0.021991148591041565;-0.012217304669320583;0.0024434609804302454
01:00:0A:00:00:00:00;1723766810;16/08/24;00:06:50;1.016;-0.043;0.082;0.02076941914856434;-0.010995574295520782;0.004886921960860491
01:00:0A:00:00:00:00;1723766811;16/08/24;00:06:51;1.015;-0.042;0.083;0.02076941914856434;-0.010995574295520782;0.006108652334660292
01:00:0A:00:00:00:00;1723766812;16/08/24;00:06:52;1.013;-0.041;0.082;0.02076941914856434;-0.012217304669320583;0.006108652334660292
01:00:0A:00:00:00:00;1723766813;16/08/24;00:06:53;1.014;-0.041;0.082;0.02076941914856434;-0.012217304669320583;0.0036651913542300463
01:00:0A:00:00:00:00;1723766814;16/08/24;00:06:54;1.014;-0.041;0.083;0.019547687843441963;-0.012217304669320583;0.0024434609804302454
01:00:0A:00:00:00:00;1723766815;16/08/24;00:06:55;1.015;-0.041;0.083;0.019547687843441963;-0.010995574295520782;0.0036651913542300463
01:00:0A:00:00:00:00;1723766816;16/08/24;00:06:56;1.016;-0.043;0.082;0.019547687843441963;-0.010995574295520782;0.004886921960860491
01:00:0A:00:00:00:00;1723766817;16/08/24;00:06:57;1.015;-0.042;0.082;0.018325956538319588;-0.012217304669320583;0.006108652334660292
01:00:0A:00:00:00:00;1723766818;16/08/24;00:06:58;1.014;-0.041;0.082;0.01710422709584236;-0.012217304669320583;0.006108652334660292
01:00:0A:00:00:00:00;1723766819;16/08/24;00:06:59;1.013;-0.04;0.082;0.01710422709584236;-0.013439035043120384;0.0036651913542300463
01:00:0A:00:00:00:00;1723766820;16/08/24;00:07:00;1.012;-0.04;0.082;0.01710422709584236;-0.013439035043120384;0.0024434609804302454
01:00:0A:00:00:00:00;1723766821;16/08/24;00:07:01;1.015;-0.042;0.082;0.01710422709584236;-0.010995574295520782;0.0012217304902151227
01:00:0A:00:00:00:00;1723766822;16/08/24;00:07:02;1.016;-0.042;0.082;0.01710422709584236;-0.010995574295520782;0.0036651913542300463
01:00:0A:00:00:00:00;1723766823;16/08/24;00:07:03;1.015;-0.042;0.083;0.015882495790719986;-0.010995574295520782;0.004886921960860491
01:00:0A:00:00:00:00;1723766824;16/08/24;00:07:04;1.015;-0.042;0.081;0.015882495790719986;-0.010995574295520782;0.006108652334660292
01:00:0A:00:00:00:00;1723766825;16/08/24;00:07:05;1.013;-0.04;0.082;0.014660765416920185;-0.010995574295520782;0.006108652334660292
01:00:0A:00:00:00:00;1723766826;16/08/24;00:07:06;1.011;-0.041;0.081;0.014660765416920185;-0.012217304669320583;0.0036651913542300463
01:00:0A:00:00:00:00;1723766827;16/08/24;00:07:07;1.013;-0.041;0.082;0.014660765416920185;-0.012217304669320583;0.0024434609804302454
01:00:0A:00:00:00:00;1723766828;16/08/24;00:07:08;1.014;-0.041;0.082;0.014660765416920185;-0.012217304669320583;0.0024434609804302454
01:00:0A:00:00:00:00;1723766829;16/08/24;00:07:09;1.016;-0.042;0.082;0.013439035043120384;-0.012217304669320583;0.0036651913542300463
01:00:0A:00:00:00:00;1723766830;16/08/24;00:07:10;1.015;-0.042;0.081;0.013439035043120384;-0.010995574295520782;0.006108652334660292
01:00:0A:00:00:00:00;1723766831;16/08/24;00:07:11;1.014;-0.04;0.083;0.014660765416920185;-0.009773843921720982;0.004886921960860491
01:00:0A:00:00:00:00;1723766832;16/08/24;00:07:12;1.014;-0.04;0.082;0.013439035043120384;-0.010995574295520782;0.0036651913542300463
01:00:0A:00:00:00:00;1723766833;16/08/24;00:07:13;1.014;-0.041;0.082;0.013439035043120384;-0.010995574295520782;0.0024434609804302454
01:00:0A:00:00:00:00;1723766834;16/08/24;00:07:14;1.015;-0.041;0.082;0.013439035043120384;-0.012217304669320583;0.0024434609804302454
01:00:0A:00:00:00:00;1723766835;16/08/24;00:07:15;1.016;-0.041;0.083;0.012217304669320583;-0.012217304669320583;0.0036651913542300463
01:00:0A:00:00:00:00;1723766836;16/08/24;00:07:16;1.016;-0.042;0.082;0.012217304669320583;-0.010995574295520782;0.004886921960860491
01:00:0A:00:00:00:00;1723766837;16/08/24;00:07:17;1.014;-0.041;0.083;0.012217304669320583;-0.010995574295520782;0.004886921960860491
01:00:0A:00:00:00:00;1723766838;16/08/24;00:07:18;1.014;-0.042;0.082;0.012217304669320583;-0.012217304669320583;0.0036651913542300463
01:00:0A:00:00:00:00;1723766839;16/08/24;00:07:19;1.015;-0.042;0.082;0.012217304669320583;-0.010995574295520782;0.0036651913542300463
01:00:0A:00:00:00:00;1723766840;16/08/24;00:07:20;1.014;-0.041;0.084;0.010995574295520782;-0.012217304669320583;0.0036651913542300463
01:00:0A:00:00:00:00;1723766841;16/08/24;00:07:21;1.014;-0.041;0.081;0.010995574295520782;-0.010995574295520782;0.0036651913542300463
01:00:0A:00:00:00:00;1723766842;16/08/24;00:07:22;1.013;-0.041;0.082;0.010995574295520782;-0.010995574295520782;0.004886921960860491
01:00:0A:00:00:00:00;1723766843;16/08/24;00:07:23;1.013;-0.042;0.082;0.010995574295520782;-0.010995574295520782;0.0036651913542300463
01:00:0A:00:00:00:00;1723766844;16/08/24;00:07:24;1.014;-0.041;0.082;0.009773843921720982;-0.012217304669320583;0.0036651913542300463
01:00:0A:00:00:00:00;1723766845;16/08/24;00:07:25;1.014;-0.042;0.082;0.010995574295520782;-0.012217304669320583;0.0024434609804302454
01:00:0A:00:00:00:00;1723766846;16/08/24;00:07:26;1.015;-0.042;0.082;0.009773843921720982;-0.012217304669320583;0.0036651913542300463
01:00:0A:00:00:00:00;1723766847;16/08/24;00:07:27;1.015;-0.042;0.082;0.009773843921720982;-0.012217304669320583;0.004886921960860491
01:00:0A:00:00:00:00;1723766848;16/08/24;00:07:28;1.015;-0.041;0.082;0.009773843921720982;-0.009773843921720982;0.004886921960860491
01:00:0A:00:00:00:00;1723766849;16/08/24;00:07:29;1.014;-0.04;0.082;0.00855211354792118;-0.012217304669320583;0.0036651913542300463
01:00:0A:00:00:00:00;1723766850;16/08/24;00:07:30;1.014;-0.041;0.082;0.009773843921720982;-0.012217304669320583;0.0036651913542300463
01:00:0A:00:00:00:00;1723766851;16/08/24;00:07:31;1.015;-0.041;0.083;0.009773843921720982;-0.010995574295520782;0.0024434609804302454
01:00:0A:00:00:00:00;1723766852;16/08/24;00:07:32;1.014;-0.041;0.082;0.00855211354792118;-0.012217304669320583;0.0036651913542300463
01:00:0A:00:00:00:00;1723766853;16/08/24;00:07:33;1.015;-0.041;0.082;0.00855211354792118;-0.010995574295520782;0.0036651913542300463
01:00:0A:00:00:00:00;1723766854;16/08/24;00:07:34;1.015;-0.041;0.082;0.00855211354792118;-0.009773843921720982;0.0036651913542300463
01:00:0A:00:00:00:00;1723766855;16/08/24;00:07:35;1.013;-0.042;0.082;0.00855211354792118;-0.012217304669320583;0.0036651913542300463
01:00:0A:00:00:00:00;1723766856;16/08/24;00:07:36;1.014;-0.041;0.082;0.00855211354792118;-0.010995574295520782;0.0024434609804302454
01:00:0A:00:00:00:00;1723766857;16/08/24;00:07:37;1.015;-0.041;0.081;0.00855211354792118;-0.010995574295520782;0.0024434609804302454
01:00:0A:00:00:00:00;1723766858;16/08/24;00:07:38;1.015;-0.041;0.083;0.0073303827084600925;-0.012217304669320583;0.004886921960860491
01:00:0A:00:00:00:00;1723766859;16/08/24;00:07:39;1.015;-0.042;0.081;0.0073303827084600925;-0.009773843921720982;0.004886921960860491
01:00:0A:00:00:00:00;1723766860;16/08/24;00:07:40;1.013;-0.041;0.083;0.00855211354792118;-0.009773843921720982;0.004886921960860491
01:00:0A:00:00:00:00;1723766861;16/08/24;00:07:41;1.012;-0.041;0.081;0.0073303827084600925;-0.012217304669320583;0.0036651913542300463
01:00:0A:00:00:00:00;1723766862;16/08/24;00:07:42;1.013;-0.04;0.081;0.00855211354792118;-0.012217304669320583;0.0012217304902151227
01:00:0A:00:00:00:00;1723766863;16/08/24;00:07:43;1.014;-0.041;0.083;0.00855211354792118;-0.012217304669320583;0.0012217304902151227
01:00:0A:00:00:00:00;1723766864;16/08/24;00:07:44;1.016;-0.043;0.083;0.0073303827084600925;-0.012217304669320583;0.0036651913542300463
01:00:0A:00:00:00:00;1723766865;16/08/24;00:07:45;1.015;-0.041;0.083;0.0073303827084600925;-0.010995574295520782;0.004886921960860491
01:00:0A:00:00:00:00;1723766866;16/08/24;00:07:46;1.014;-0.04;0.082;0.0073303827084600925;-0.009773843921720982;0.004886921960860491
01:00:0A:00:00:00:00;1723766867;16/08/24;00:07:47;1.014;-0.04;0.083;0.0073303827084600925;-0.012217304669320583;0.0036651913542300463
01:00:0A:00:00:00:00;1723766868;16/08/24;00:07:48;1.013;-0.041;0.081;0.0073303827084600925;-0.010995574295520782;0.0024434609804302454
01:00:0A:00:00:00:00;1723766869;16/08/24;00:07:49;1.015;-0.041;0.083;0.0073303827084600925;-0.010995574295520782;0.0024434609804302454
01:00:0A:00:00:00:00;1723766870;16/08/24;00:07:50;1.015;-0.041;0.082;0.006108652334660292;-0.012217304669320583;0.0036651913542300463
01:00:0A:00:00:00:00;1723766871;16/08/24;00:07:51;1.014;-0.041;0.083;0.0073303827084600925;-0.009773843921720982;0.0036651913542300463
01:00:0A:00:00:00:00;1723766872;16/08/24;00:07:52;1.014;-0.041;0.082;0.006108652334660292;-0.009773843921720982;0.004886921960860491
01:00:0A:00:00:00:00;1723766873;16/08/24;00:07:53;1.013;-0.041;0.081;0.006108652334660292;-0.012217304669320583;0.0036651913542300463
01:00:0A:00:00:00:00;1723766874;16/08/24;00:07:54;1.014;-0.04;0.082;0.0073303827084600925;-0.012217304669320583;0.0012217304902151227
01:00:0A:00:00:00:00;1723766875;16/08/24;00:07:55;1.015;-0.042;0.082;0.006108652334660292;-0.012217304669320583;0.0024434609804302454
01:00:0A:00:00:00:00;1723766876;16/08/24;00:07:56;1.014;-0.042;0.082;0.004886921960860491;-0.012217304669320583;0.0036651913542300463
01:00:0A:00:00:00:00;1723766877;16/08/24;00:07:57;1.016;-0.041;0.083;0.006108652334660292;-0.009773843921720982;0.0036651913542300463
01:00:0A:00:00:00:00;1723766878;16/08/24;00:07:58;1.013;-0.041;0.083;0.006108652334660292;-0.009773843921720982;0.004886921960860491
01:00:0A:00:00:00:00;1723766879;16/08/24;00:07:59;1.013;-0.041;0.082;0.004886921960860491;-0.010995574295520782;0.004886921960860491
01:00:0A:00:00:00:00;1723766880;16/08/24;00:08:00;1.013;-0.04;0.082;0.004886921960860491;-0.009773843921720982;0.0024434609804302454
01:00:0A:00:00:00:00;1723766881;16/08/24;00:08:01;1.014;-0.041;0.082;0.004886921960860491;-0.010995574295520782;0.0024434609804302454
01:00:0A:00:00:00:00;1723766882;16/08/24;00:08:02;1.014;-0.04;0.083;0.0036651913542300463;-0.013439035043120384;0.0036651913542300463
01:00:0A:00:00:00:00;1723766883;16/08/24;00:08:03;1.015;-0.042;0.083;0.004886921960860491;-0.010995574295520782;0.0024434609804302454
01:00:0A:00:00:00:00;1723766884;16/08/24;00:08:04;1.014;-0.04;0.082;0.0036651913542300463;-0.010995574295520782;0.0036651913542300463
01:00:0A:00:00:00:00;1723766885;16/08/24;00:08:05;1.015;-0.04;0.081;0.0024434609804302454;-0.012217304669320583;0.0036651913542300463
01:00:0A:00:00:00:00;1723766886;16/08/24;00:08:06;1.015;-0.041;0.082;0.0036651913542300463;-0.010995574295520782;0.0024434609804302454
01:00:0A:00:00:00:00;1723766887;16/08/24;00:08:07;1.014;-0.041;0.083;0.0036651913542300463;-0.012217304669320583;0.0036651913542300463
01:00:0A:00:00:00:00;1723766888;16/08/24;00:08:08;1.015;-0.042;0.083;0.0024434609804302454;-0.012217304669320583;0.0024434609804302454
01:00:0A:00:00:00:00;1723766889;16/08/24;00:08:09;1.015;-0.042;0.082;0.0036651913542300463;-0.00855211354792118;0.0036651913542300463
01:00:0A:00:00:00:00;1723766890;16/08/24;00:08:10;1.014;-0.041;0.083;0.0024434609804302454;-0.010995574295520782;0.004886921960860491
01:00:0A:00:00:00:00;1723766891;16/08/24;00:08:11;1.014;-0.04;0.083;0.0024434609804302454;-0.012217304669320583;0.0036651913542300463
01:00:0A:00:00:00:00;1723766892;16/08/24;00:08:12;1.014;-0.04;0.082;0.0024434609804302454;-0.010995574295520782;0.0024434609804302454
01:00:0A:00:00:00:00;1723766893;16/08/24;00:08:13;1.013;-0.04;0.082;0.0012217304902151227;-0.013439035043120384;0.0024434609804302454
01:00:0A:00:00:00:00;1723766894;16/08/24;00:08:14;1.014;-0.041;0.083;0.0012217304902151227;-0.012217304669320583;0.0024434609804302454
01:00:0A:00:00:00:00;1723766895;16/08/24;00:08:15;1.015;-0.041;0.083;0.0012217304902151227;-0.010995574295520782;0.0024434609804302454
01:00:0A:00:00:00:00;1723766896;16/08/24;00:08:16;1.015;-0.041;0.082;0.0;-0.010995574295520782;0.0036651913542300463
01:00:0A:00:00:00:00;1723766897;16/08/24;00:08:17;1.014;-0.041;0.081;0.0;-0.010995574295520782;0.0036651913542300463
01:00:0A:00:00:00:00;1723766898;16/08/24;00:08:18;1.013;-0.041;0.083;0.0;-0.010995574295520782;0.0024434609804302454
01:00:0A:00:00:00:00;1723766899;16/08/24;00:08:19;1.012;-0.042;0.082;-0.0012217304902151227;-0.012217304669320583;0.0024434609804302454
01:00:0A:00:00:00:00;1723766900;16/08/24;00:08:20;1.015;-0.041;0.083;-0.0012217304902151227;-0.012217304669320583;0.0024434609804302454
01:00:0A:00:00:00:00;1723766901;16/08/24;00:08:21;1.014;-0.041;0.082;-0.0012217304902151227;-0.009773843921720982;0.0036651913542300463
01:00:0A:00:00:00:00;1723766902;16/08/24;00:08:22;1.015;-0.042;0.083;-0.0024434609804302454;-0.012217304669320583;0.0036651913542300463
01:00:0A:00:00:00:00;1723766903;16/08/24;00:08:23;1.014;-0.042;0.082;-0.0024434609804302454;-0.010995574295520782;0.0036651913542300463
01:00:0A:00:00:00:00;1723766904;16/08/24;00:08:24;1.014;-0.04;0.082;-0.0024434609804302454;-0.010995574295520782;0.0024434609804302454
01:00:0A:00:00:00:00;1723766905;16/08/24;00:08:25;1.014;-0.041;0.083;-0.0036651913542300463;-0.013439035043120384;0.0024434609804302454
01:00:0A:00:00:00:00;1723766906;16/08/24;00:08:26;1.014;-0.042;0.083;-0.0036651913542300463;-0.010995574295520782;0.0024434609804302454
01:00:0A:00:00:00:00;1723766907;16/08/24;00:08:27;1.015;-0.041;0.082;-0.0036651913542300463;-0.009773843921720982;0.0036651913542300463
01:00:0A:00:00:00:00;1723766908;16/08/24;00:08:28;1.015;-0.041;0.082;-0.004886921960860491;-0.010995574295520782;0.0036651913542300463
01:00:0A:00:00:00:00;1723766909;16/08/24;00:08:29;1.014;-0.041;0.081;-0.004886921960860491;-0.010995574295520782;0.0036651913542300463
01:00:0A:00:00:00:00;1723766910;16/08/24;00:08:30;1.013;-0.04;0.083;-0.006108652334660292;-0.010995574295520782;0.0024434609804302454
01:00:0A:00:00:00:00;1723766911;16/08/24;00:08:31;1.014;-0.041;0.082;-0.006108652334660292;-0.012217304669320583;0.0012217304902151227
01:00:0A:00:00:00:00;1723766912;16/08/24;00:08:32;1.014;-0.041;0.082;-0.006108652334660292;-0.010995574295520782;0.0024434609804302454
01:00:0A:00:00:00:00;1723766913;16/08/24;00:08:33;1.015;-0.042;0.083;-0.0073303827084600925;-0.009773843921720982;0.0036651913542300463
01:00:0A:00:00:00:00;1723766914;16/08/24;00:08:34;1.015;-0.041;0.083;-0.0073303827084600925;-0.012217304669320583;0.0036651913542300463
01:00:0A:00:00:00:00;1723766915;16/08/24;00:08:35;1.014;-0.04;0.081;-0.0073303827084600925;-0.010995574295520782;0.0036651913542300463
01:00:0A:00:00:00:00;1723766916;16/08/24;00:08:36;1.013;-0.041;0.083;-0.0073303827084600925;-0.010995574295520782;0.0024434609804302454
01:00:0A:00:00:00:00;1723766917;16/08/24;00:08:37;1.013;-0.041;0.082;-0.0073303827084600925;-0.012217304669320583;0.0012217304902151227
01:00:0A:00:00:00:00;1723766918;16/08/24;00:08:38;1.015;-0.041;0.081;-0.0073303827084600925;-0.009773843921720982;0.0012217304902151227
01:00:0A:00:00:00:00;1723766919;16/08/24;00:08:39;1.015;-0.041;0.082;-0.0073303827084600925;-0.009773843921720982;0.0036651913542300463
01:00:0A:00:00:00:00;1723766920;16/08/24;00:08:40;1.014;-0.041;0.081;-0.00855211354792118;-0.012217304669320583;0.0036651913542300463
01:00:0A:00:00:00:00;1723766921;16/08/24;00:08:41;1.014;-0.041;0.081;-0.0073303827084600925;-0.009773843921720982;0.0036651913542300463
01:00:0A:00:00:00:00;1723766922;16/08/24;00:08:42;1.014;-0.041;0.083;-0.00855211354792118;-0.010995574295520782;0.0036651913542300463
01:00:0A:00:00:00:00;1723766923;16/08/24;00:08:43;1.014;-0.041;0.082;-0.00855211354792118;-0.010995574295520782;0.0012217304902151227
01:00:0A:00:00:00:00;1723766924;16/08/24;00:08:44;1.015;-0.041;0.082;-0.0073303827084600925;-0.009773843921720982;0.0012217304902151227
01:00:0A:00:00:00:00;1723766925;16/08/24;00:08:45;1.014;-0.042;0.083;-0.00855211354792118;-0.012217304669320583;0.0024434609804302454
01:00:0A:00:00:00:00;1723766926;16/08/24;00:08:46;1.015;-0.041;0.082;-0.00855211354792118;-0.012217304669320583;0.0024434609804302454
01:00:0A:00:00:00:00;1723766927;16/08/24;00:08:47;1.014;-0.041;0.082;-0.00855211354792118;-0.010995574295520782;0.0024434609804302454
01:00:0A:00:00:00:00;1723766928;16/08/24;00:08:48;1.014;-0.041;0.083;-0.00855211354792118;-0.010995574295520782;0.0024434609804302454
01:00:0A:00:00:00:00;1723766929;16/08/24;00:08:49;1.015;-0.041;0.083;-0.00855211354792118;-0.012217304669320583;0.0012217304902151227
01:00:0A:00:00:00:00;1723766930;16/08/24;00:08:50;1.015;-0.041;0.082;-0.00855211354792118;-0.009773843921720982;0.0024434609804302454
01:00:0A:00:00:00:00;1723766931;16/08/24;00:08:51;1.015;-0.041;0.082;-0.00855211354792118;-0.010995574295520782;0.0036651913542300463
01:00:0A:00:00:00:00;1723766932;16/08/24;00:08:52;1.014;-0.041;0.082;-0.00855211354792118;-0.012217304669320583;0.0036651913542300463
01:00:0A:00:00:00:00;1723766933;16/08/24;00:08:53;1.014;-0.041;0.081;-0.00855211354792118;-0.010995574295520782;0.0036651913542300463
01:00:0A:00:00:00:00;1723766934;16/08/24;00:08:54;1.013;-0.04;0.084;-0.00855211354792118;-0.012217304669320583;0.0024434609804302454
01:00:0A:00:00:00:00;1723766935;16/08/24;00:08:55;1.014;-0.041;0.082;-0.0073303827084600925;-0.012217304669320583;0.0012217304902151227
01:00:0A:00:00:00:00;1723766936;16/08/24;00:08:56;1.014;-0.041;0.082;-0.0073303827084600925;-0.009773843921720982;0.0012217304902151227
01:00:0A:00:00:00:00;1723766937;16/08/24;00:08:57;1.014;-0.043;0.083;-0.00855211354792118;-0.012217304669320583;0.0024434609804302454
01:00:0A:00:00:00:00;1723766938;16/08/24;00:08:58;1.014;-0.041;0.081;-0.0073303827084600925;-0.012217304669320583;0.0036651913542300463
01:00:0A:00:00:00:00;1723766939;16/08/24;00:08:59;1.014;-0.041;0.082;-0.0073303827084600925;-0.009773843921720982;0.004886921960860491
01:00:0A:00:00:00:00;1723766940;16/08/24;00:09:00;1.014;-0.042;0.083;-0.0073303827084600925;-0.010995574295520782;0.0036651913542300463
01:00:0A:00:00:00:00;1723766941;16/08/24;00:09:01;1.014;-0.041;0.081;-0.0073303827084600925;-0.010995574295520782;0.0024434609804302454
01:00:0A:00:00:00:00;1723766942;16/08/24;00:09:02;1.015;-0.042;0.082;-0.006108652334660292;-0.009773843921720982;0.0024434609804302454
01:00:0A:00:00:00:00;1723766943;16/08/24;00:09:03;1.014;-0.042;0.082;-0.0073303827084600925;-0.012217304669320583;0.0024434609804302454
01:00:0A:00:00:00:00;1723766944;16/08/24;00:09:04;1.014;-0.042;0.081;-0.006108652334660292;-0.010995574295520782;0.0024434609804302454
01:00:0A:00:00:00:00;1723766945;16/08/24;00:09:05;1.015;-0.041;0.082;-0.006108652334660292;-0.010995574295520782;0.0036651913542300463
01:00:0A:00:00:00:00;1723766946;16/08/24;00:09:06;1.014;-0.04;0.082;-0.006108652334660292;-0.010995574295520782;0.0024434609804302454
01:00:0A:00:00:00:00;1723766947;16/08/24;00:09:07;1.016;-0.041;0.082;-0.006108652334660292;-0.010995574295520782;0.0024434609804302454
01:00:0A:00:00:00:00;1723766948;16/08/24;00:09:08;1.014;-0.041;0.082;-0.006108652334660292;-0.009773843921720982;0.0036651913542300463
01:00:0A:00:00:00:00;1723766949;16/08/24;00:09:09;1.014;-0.042;0.081;-0.006108652334660292;-0.012217304669320583;0.0024434609804302454
01:00:0A:00:00:00:00;1723766950;16/08/24;00:09:10;1.013;-0.041;0.081;-0.004886921960860491;-0.010995574295520782;0.0036651913542300463
01:00:0A:00:00:00:00;1723766951;16/08/24;00:09:11;1.014;-0.042;0.082;-0.004886921960860491;-0.009773843921720982;0.004886921960860491
01:00:0A:00:00:00:00;1723766952;16/08/24;00:09:12;1.014;-0.041;0.082;-0.004886921960860491;-0.012217304669320583;0.0024434609804302454
01:00:0A:00:00:00:00;1723766953;16/08/24;00:09:13;1.013;-0.041;0.081;-0.004886921960860491;-0.00855211354792118;0.004886921960860491
01:00:0A:00:00:00:00;1723766954;16/08/24;00:09:14;1.01;-0.039;0.08;-0.0036651913542300463;-0.006108652334660292;0.004886921960860491
01:00:0A:00:00:00:00;1723766955;16/08/24;00:09:15;1.015;-0.037;0.077;-0.0036651913542300463;-0.025656338781118393;-0.013439035043120384
01:00:0A:00:00:00:00;1723766956;16/08/24;00:09:16;1.023;-0.043;0.084;-0.004886921960860491;-0.02932153083384037;-0.010995574295520782
01:00:0A:00:00:00:00;1723766957;16/08/24;00:09:17;1.025;-0.05;0.093;-0.006108652334660292;-0.0073303827084600925;0.014660765416920185
01:00:0A:00:00:00:00;1723766958;16/08/24;00:09:18;1.016;-0.045;0.092;-0.0024434609804302454;0.019547687843441963;0.028099799528717995
01:00:0A:00:00:00:00;1723766959;16/08/24;00:09:19;1.003;-0.043;0.078;0.0012217304902151227;0.01710422709584236;0.01710422709584236
01:00:0A:00:00:00:00;1723766960;16/08/24;00:09:20;0.995;-0.041;0.066;0.0;-0.024434609338641167;-0.0012217304902151227
01:00:0A:00:00:00:00;1723766961;16/08/24;00:09:21;0.999;-0.047;0.08;0.0036651913542300463;-0.04642575979232788;-0.018325956538319588
01:00:0A:00:00:00:00;1723766962;16/08/24;00:09:22;1.025;-0.058;0.105;0.0073303827084600925;-0.04398229718208313;-0.03420845419168472
01:00:0A:00:00:00:00;1723766963;16/08/24;00:09:23;1.041;-0.037;0.078;0.014660765416920185;-0.014660765416920185;0.009773843921720982
01:00:0A:00:00:00:00;1723766964;16/08/24;00:09:24;1.032;-0.044;0.074;0.0354301817715168;0.051312677562236786;0.042760565876960754
01:00:0A:00:00:00:00;1723766965;16/08/24;00:09:25;1.009;-0.036;0.081;0.040317103266716;0.040317103266716;0.015882495790719986
01:00:0A:00:00:00:00;1723766966;16/08/24;00:09:26;0.988;-0.031;0.051;0.025656338781118393;-0.05009094998240471;0.0
01:00:0A:00:00:00:00;1723766967;16/08/24;00:09:27;0.992;-0.038;0.056;0.042760565876960754;-0.02932153083384037;-0.0012217304902151227
01:00:0A:00:00:00:00;1723766968;16/08/24;00:09:28;1.025;-0.05;0.107;0.03787364438176155;-0.07941248267889023;-0.02687807008624077
01:00:0A:00:00:00:00;1723766969;16/08/24;00:09:29;1.047;-0.041;0.088;0.03787364438176155;-0.03420845419168472;0.0073303827084600925
01:00:0A:00:00:00:00;1723766970;16/08/24;00:09:30;1.027;-0.048;0.09;0.05375614017248154;0.05619959905743599;0.042760565876960754
01:00:0A:00:00:00:00;1723766971;16/08/24;00:09:31;0.994;-0.027;0.077;0.05009094998240471;0.030543262138962746;0.019547687843441963
01:00:0A:00:00:00:00;1723766972;16/08/24;00:09:32;0.972;-0.013;0.05;0.039095375686883926;-0.015882495790719986;0.004886921960860491
01:00:0A:00:00:00:00;1723766973;16/08/24;00:09:33;1.018;-0.024;0.064;0.040317103266716;-0.040317103266716;-0.045204028487205505
01:00:0A:00:00:00:00;1723766974;16/08/24;00:09:34;1.056;0.0;0.081;0.014660765416920185;-0.07330382615327835;-0.06719517707824707
01:00:0A:00:00:00:00;1723766975;16/08/24;00:09:35;1.066;-0.002;0.057;0.013439035043120384;-0.0073303827084600925;-0.01710422709584236
01:00:0A:00:00:00:00;1723766976;16/08/24;00:09:36;1.034;-0.063;0.014;0.06475171446800232;-0.07208210229873657;0.05375614017248154
01:00:0A:00:00:00:00;1723766977;16/08/24;00:09:37;0.964;-0.015;0.076;0.11850785464048386;0.13927726447582245;0.07696902006864548
01:00:0A:00:00:00:00;1723766978;16/08/24;00:09:38;0.956;0.01;0.073;0.05009094998240471;-0.09896016865968704;0.05864306166768074
01:00:0A:00:00:00:00;1723766979;16/08/24;00:09:39;1.009;0.057;0.064;0.04398229718208313;0.025656338781118393;-0.021991148591041565
01:00:0A:00:00:00:00;1723766980;16/08/24;00:09:40;1.05;-0.047;0.102;-0.015882495790719986;-0.09407324343919754;-0.04153883829712868
01:00:0A:00:00:00:00;1723766981;16/08/24;00:09:41;1.081;-0.09;0.028;0.10262535512447357;0.024434609338641167;-0.09529497474431992
01:00:0A:00:00:00:00;1723766982;16/08/24;00:09:42;0.992;0.106;0.296;0.010995574295520782;0.38728854060173035;0.0073303827084600925
01:00:0A:00:00:00:00;1723766983;16/08/24;00:09:43;0.906;-0.343;-0.219;0.04886921867728233;-0.8234463334083557;0.5656611919403076
01:00:0A:00:00:00:00;1723766984;16/08/24;00:09:44;0.958;-0.138;0.068;0.872315526008606;0.41172316670417786;-0.5485569834709167
01:00:0A:00:00:00:00;1723766985;16/08/24;00:09:45;0.942;0.108;0.068;0.5974262356758118;-0.015882495790719986;0.07208210229873657
01:00:0A:00:00:00:00;1723766986;16/08/24;00:09:46;1.013;-0.082;0.147;0.45692718029022217;0.1111774742603302;0.27977627515792847
01:00:0A:00:00:00:00;1723766987;16/08/24;00:09:47;1.016;-0.296;0.189;0.5314527750015259;-0.4056144952774048;-0.08307767659425735
01:00:0A:00:00:00:00;1723766988;16/08/24;00:09:48;1.026;-0.101;-0.344;0.9993755221366882;-0.09773843735456467;-0.018325956538319588
01:00:0A:00:00:00:00;1723766989;16/08/24;00:09:49;1.041;0.068;0.084;1.282817006111145;0.3298672139644623;-0.1661553531885147
01:00:0A:00:00:00:00;1723766990;16/08/24;00:09:50;0.964;-0.178;0.181;0.9896016716957092;0.07208210229873657;0.6976081132888794
01:00:0A:00:00:00:00;1723766991;16/08/24;00:09:51;0.928;-0.133;0.11;0.8210028409957886;-0.6145303845405579;0.028099799528717995
01:00:0A:00:00:00:00;1723766992;16/08/24;00:09:52;0.955;-0.009;0.135;0.8796459436416626;0.1820378452539444;-0.3885102868080139
01:00:0A:00:00:00:00;1723766993;16/08/24;00:09:53;1.014;0.118;0.064;0.4141666293144226;-0.29688048362731934;0.5998696088790894
01:00:0A:00:00:00:00;1723766994;16/08/24;00:09:54;0.969;-0.426;0.025;0.8271114826202393;-0.0659734457731247;-0.35185837745666504
01:00:0A:00:00:00:00;1723766995;16/08/24;00:09:55;1.052;0.159;-0.081;0.8979718685150146;-0.05375614017248154;-0.1466076523065567
01:00:0A:00:00:00:00;1723766996;16/08/24;00:09:56;1.004;-0.081;0.347;0.7574728727340698;0.36529743671417236;0.08307767659425735
01:00:0A:00:00:00:00;1723766997;16/08/24;00:09:57;0.995;-0.035;-0.077;0.513126790523529;-0.485027015209198;0.26022857427597046
01:00:0A:00:00:00:00;1723766998;16/08/24;00:09:58;0.97;-0.088;-0.018;0.8772024512290955;0.16004669666290283;-0.12339477241039276
01:00:0A:00:00:00:00;1723766999;16/08/24;00:09:59;0.984;-0.031;0.02;0.8649851679801941;-0.15027284622192383;0.1014036238193512
01:00:0A:00:00:00:00;1723767000;16/08/24;00:10:00;1.022;-0.083;-0.018;0.9957103133201599;0.0012217304902151227;-0.12461651116609573
01:00:0A:00:00:00:00;1723767001;16/08/24;00:10:01;1.043;0.026;0.067;0.9480628371238708;0.17592918872833252;0.1258382350206375
01:00:0A:00:00:00:00;1723767002;16/08/24;00:10:02;1.032;-0.234;0.001;0.33597588539123535;0.09529497474431992;0.3885102868080139
01:00:0A:00:00:00:00;1723767003;16/08/24;00:10:03;1.011;-0.18;-0.113;1.5039502382278442;0.042760565876960754;-0.3237585723400116
01:00:0A:00:00:00:00;1723767004;16/08/24;00:10:04;0.983;0.149;-0.137;1.4428637027740479;0.025656338781118393;-0.29688048362731934
01:00:0A:00:00:00:00;1723767005;16/08/24;00:10:05;0.996;0.021;-0.011;1.5234979391098022;0.5571090579032898;-0.12217304855585098
01:00:0A:00:00:00:00;1723767006;16/08/24;00:10:06;0.996;0.04;0.057;1.3292428255081177;0.15882496535778046;0.14049901068210602
01:00:0A:00:00:00:00;1723767007;16/08/24;00:10:07;1.018;0.002;0.059;1.2095131874084473;0.1466076523065567;0.01710422709584236
01:00:0A:00:00:00:00;1723767008;16/08/24;00:10:08;1.038;0.0;0.026;1.1398744583129883;0.27000245451927185;0.13561207056045532
01:00:0A:00:00:00:00;1723767009;16/08/24;00:10:09;1.025;0.129;0.251;0.9505062699317932;0.3933972120285034;0.0708603635430336
01:00:0A:00:00:00:00;1723767010;16/08/24;00:10:10;1.018;-0.062;0.338;0.5241223573684692;-0.18936821818351746;0.5485569834709167
01:00:0A:00:00:00:00;1723767011;16/08/24;00:10:11;0.938;-0.366;-0.098;0.7415903806686401;-0.5595525503158569;0.5265658497810364
01:00:0A:00:00:00:00;1723767012;16/08/24;00:10:12;0.905;-0.436;-0.189;1.4025466442108154;-1.1215485334396362;-0.3274237811565399
01:00:0A:00:00:00:00;1723767013;16/08/24;00:10:13;0.929;0.073;-0.283;1.8924604654312134;-0.32498031854629517;-0.8820894360542297
01:00:0A:00:00:00:00;1723767014;16/08/24;00:10:14;1.004;0.017;-0.029;2.2369885444641113;0.3433062732219696;-0.6389650106430054
01:00:0A:00:00:00:00;1723767015;16/08/24;00:10:15;0.991;0.206;0.04;1.8484781980514526;0.3799581527709961;0.3066543638706207
01:00:0A:00:00:00:00;1723767016;16/08/24;00:10:16;1.002;0.105;0.251;1.4880677461624146;-0.05375614017248154;0.41172316670417786
01:00:0A:00:00:00:00;1723767017;16/08/24;00:10:17;1.016;-0.353;0.061;1.5393803119659424;-0.19303341209888458;-0.0073303827084600925
01:00:0A:00:00:00:00;1723767018;16/08/24;00:10:18;1.019;0.086;-0.158;1.7201964855194092;0.11362093687057495;-0.4740314185619354
01:00:0A:00:00:00:00;1723767019;16/08/24;00:10:19;0.975;0.097;0.195;2.3542747497558594;0.5497786998748779;-0.1966986060142517
01:00:0A:00:00:00:00;1723767020;16/08/24;00:10:20;0.959;-0.058;0.102;2.0671679973602295;0.27977627515792847;0.6328563690185547
01:00:0A:00:00:00:00;1723767021;16/08/24;00:10:21;0.951;-0.091;0.067;1.880243182182312;-0.7305948734283447;0.25534167885780334
01:00:0A:00:00:00:00;1723767022;16/08/24;00:10:22;0.965;0.076;-0.282;2.274862051010132;0.901637077331543;-0.4764748811721802
01:00:0A:00:00:00:00;1723767023;16/08/24;00:10:23;1.025;0.251;0.026;2.059837579727173;0.7049384713172913;0.2590068578720093
01:00:0A:00:00:00:00;1723767024;16/08/24;00:10:24;1.019;-0.117;0.354;1.83992600440979;0.05009094998240471;0.2993239760398865
01:00:0A:00:00:00:00;1723767025;16/08/24;00:10:25;1.009;-0.11;-0.106;1.8460347652435303;-0.13072516024112701;-0.0757472887635231
01:00:0A:00:00:00:00;1723767026;16/08/24;00:10:26;0.968;0.244;0.008;1.891238808631897;0.4495967924594879;-0.10262535512447357
01:00:0A:00:00:00:00;1723767027;16/08/24;00:10:27;0.892;0.116;0.418;1.4746286869049072;0.37629297375679016;1.0824532508850098
01:00:0A:00:00:00:00;1723767028;16/08/24;00:10:28;1.027;-0.018;-0.115;0.9566149115562439;-0.7086036801338196;0.14294245839118958
01:00:0A:00:00:00:00;1723767029;16/08/24;00:10:29;1.074;-0.206;-0.058;1.3573424816131592;0.0708603635430336;-0.3433062732219696
01:00:0A:00:00:00:00;1723767030;16/08/24;00:10:30;0.955;0.519;0.162;1.0470229387283325;0.26633724570274353;0.1673770695924759
01:00:0A:00:00:00:00;1723767031;16/08/24;00:10:31;0.912;-0.63;-0.038;1.193630576133728;0.05253440886735916;0.32620203495025635
01:00:0A:00:00:00:00;1723767032;16/08/24;00:10:32;1.016;-0.086;0.292;1.1117748022079468;-0.35552355647087097;-0.07941248267889023
01:00:0A:00:00:00:00;1723767033;16/08/24;00:10:33;0.961;0.031;-0.224;1.1178834438323975;0.1966986060142517;0.13439035415649414
01:00:0A:00:00:00:00;1723767034;16/08/24;00:10:34;1.006;-0.082;0.148;1.282817006111145;0.43249258399009705;-0.07330382615327835
01:00:0A:00:00:00:00;1723767035;16/08/24;00:10:35;0.978;0.156;0.227;0.7611380815505981;0.010995574295520782;0.9834930300712585
01:00:0A:00:00:00:00;1723767036;16/08/24;00:10:36;0.927;-0.422;0.338;0.6401867866516113;-0.2370157092809677;0.2223549485206604
01:00:0A:00:00:00:00;1723767037;16/08/24;00:10:37;0.998;-0.452;0.087;0.6206390857696533;-0.7806857824325562;-0.161268413066864
01:00:0A:00:00:00:00;1723767038;16/08/24;00:10:38;0.937;-0.146;-0.503;1.1349875926971436;-0.27000245451927185;-0.2932153046131134
01:00:0A:00:00:00:00;1723767039;16/08/24;00:10:39;1.042;0.04;0.164;1.3915510177612305;0.2076941877603531;-0.3701843321323395
01:00:0A:00:00:00:00;1723767040;16/08/24;00:10:40;1.004;-0.162;-0.069;1.2913691997528076;-0.05864306166768074;0.02076941914856434
01:00:0A:00:00:00:00;1723767041;16/08/24;00:10:41;0.966;0.1;-0.098;1.4758504629135132;0.04886921867728233;-0.6181955933570862
01:00:0A:00:00:00:00;1723767042;16/08/24;00:10:42;0.953;0.026;-0.222;1.6798794269561768;0.5778785347938538;-0.3848450779914856
01:00:0A:00:00:00:00;1723767043;16/08/24;00:10:43;1.025;-0.012;-0.1;1.7055357694625854;0.17104226350784302;-0.13072516024112701
01:00:0A:00:00:00:00;1723767044;16/08/24;00:10:44;1.039;-0.006;0.12;1.529606580734253;-0.2174680233001709;0.028099799528717995
01:00:0A:00:00:00:00;1723767045;16/08/24;00:10:45;1.018;-0.192;0.063;1.4477505683898926;-0.34697145223617554;0.07941248267889023
01:00:0A:00:00:00:00;1723767046;16/08/24;00:10:46;0.954;-0.296;-0.264;1.6395622491836548;-0.6340781450271606;0.07941248267889023
01:00:0A:00:00:00:00;1723767047;16/08/24;00:10:47;0.993;-0.043;0.015;1.859473705291748;-0.20525071024894714;-0.42760565876960754
01:00:0A:00:00:00:00;1723767048;16/08/24;00:10:48;0.968;-0.053;0.101;1.6126842498779297;0.25045475363731384;0.08674286305904388
01:00:0A:00:00:00:00;1723767049;16/08/24;00:10:49;0.956;-0.018;0.179;1.1508700847625732;-0.16004669666290283;0.3286454975605011
01:00:0A:00:00:00:00;1723767050;16/08/24;00:10:50;0.997;-0.073;0.115;0.8967502117156982;-0.1918116807937622;0.08796459436416626
01:00:0A:00:00:00:00;1723767051;16/08/24;00:10:51;1.016;-0.073;0.095;0.7867944240570068;0.036651913076639175;-0.17104226350784302
01:00:0A:00:00:00:00;1723767052;16/08/24;00:10:52;1.05;0.036;0.02;0.62796950340271;0.14049901068210602;0.16859880089759827
01:00:0A:00:00:00:00;1723767053;16/08/24;00:10:53;1.039;-0.116;0.203;0.47280970215797424;0.04153883829712868;0.02932153083384037
01:00:0A:00:00:00:00;1723767054;16/08/24;00:10:54;1.041;-0.084;-0.011;0.39584067463874817;0.05742133408784866;0.10384709388017654
01:00:0A:00:00:00:00;1723767055;16/08/24;00:10:55;1.008;0.035;0.106;0.3640756905078888;0.030543262138962746;-0.030543262138962746
01:00:0A:00:00:00:00;1723767056;16/08/24;00:10:56;0.995;0.064;0.039;0.2577851116657257;0.1270599663257599;0.3799581527709961
01:00:0A:00:00:00:00;1723767057;16/08/24;00:10:57;0.979;-0.068;0.323;0.09896016865968704;-0.2076941877603531;0.15882496535778046
01:00:0A:00:00:00:00;1723767058;16/08/24;00:10:58;0.971;-0.416;0.026;0.1820378452539444;-0.6218608021736145;-0.4544837474822998
01:00:0A:00:00:00:00;1723767059;16/08/24;00:10:59;1.004;-0.228;-0.282;0.6878342032432556;0.1368338167667389;-0.20891590416431427
01:00:0A:00:00:00:00;1723767060;16/08/24;00:11:00;0.989;0.156;0.312;0.6255260109901428;-0.06841690838336945;-0.33964109420776367
01:00:0A:00:00:00:00;1723767061;16/08/24;00:11:01;0.988;0.052;0.191;0.23090705275535583;-0.05497787147760391;0.16859880089759827
01:00:0A:00:00:00:00;1723767062;16/08/24;00:11:02;0.956;-0.014;0.031;0.3897320330142975;0.024434609338641167;-0.28588491678237915
01:00:0A:00:00:00:00;1723767063;16/08/24;00:11:03;0.948;-0.003;0.316;0.3628539443016052;0.5436700582504272;0.513126790523529
01:00:0A:00:00:00:00;1723767064;16/08/24;00:11:04;0.87;-0.493;0.185;0.17592918872833252;-1.2889256477355957;-0.18570303916931152
01:00:0A:00:00:00:00;1723767065;16/08/24;00:11:05;0.881;-0.253;-0.325;1.0702358484268188;0.35674530267715454;-1.350012183189392
01:00:0A:00:00:00:00;1723767066;16/08/24;00:11:06;0.991;0.159;-0.223;1.4233160018920898;0.4691444933414459;-0.7415903806686401
01:00:0A:00:00:00:00;1723767067;16/08/24;00:11:07;0.967;0.206;-0.244;1.5711454153060913;0.7757988572120667;-0.47769662737846375
01:00:0A:00:00:00:00;1723767068;16/08/24;00:11:08;0.951;0.197;0.244;1.4062117338180542;0.4740314185619354;0.004886921960860491
01:00:0A:00:00:00:00;1723767069;16/08/24;00:11:09;0.968;-0.017;-0.104;1.207069754600525;-0.30054569244384766;0.21135938167572021
01:00:0A:00:00:00:00;1723767070;16/08/24;00:11:10;1.001;0.005;0.172;1.4672983884811401;0.36163222789764404;-0.14416420459747314
01:00:0A:00:00:00:00;1723767071;16/08/24;00:11:11;0.972;0.071;0.227;0.8784241676330566;-0.19547687470912933;1.0103710889816284
01:00:0A:00:00:00:00;1723767072;16/08/24;00:11:12;0.998;-0.284;0.243;0.7733554244041443;-0.40072759985923767;0.04642575979232788
01:00:0A:00:00:00:00;1723767073;16/08/24;00:11:13;1.05;-0.023;0.079;0.6633996367454529;-0.38117989897727966;0.48380526900291443
01:00:0A:00:00:00:00;1723767074;16/08/24;00:11:14;0.942;-0.367;-0.071;0.8845328092575073;-0.616973876953125;-0.10384709388017654
01:00:0A:00:00:00:00;1723767075;16/08/24;00:11:15;0.939;0.179;-0.226;1.1472049951553345;-0.37629297375679016;-0.6902776956558228
01:00:0A:00:00:00:00;1723767076;16/08/24;00:11:16;0.97;-0.006;0.123;1.3426817655563354;0.9040805697441101;0.09162978082895279
01:00:0A:00:00:00:00;1723767077;16/08/24;00:11:17;0.953;-0.091;0.112;0.8967502117156982;-0.5155702233314514;0.5839871764183044
01:00:0A:00:00:00:00;1723767078;16/08/24;00:11:18;0.943;-0.156;-0.072;1.0458012819290161;-0.5045746564865112;-0.3677408695220947
01:00:0A:00:00:00:00;1723767079;16/08/24;00:11:19;0.982;-0.002;-0.061;1.2034045457839966;0.27611109614372253;-0.3799581527709961
01:00:0A:00:00:00:00;1723767080;16/08/24;00:11:20;0.985;0.027;-0.014;0.9089674949645996;0.2932153046131134;0.5546656250953674
01:00:0A:00:00:00:00;1723767081;16/08/24;00:11:21;0.989;-0.082;0.225;0.6401867866516113;-0.5314527750015259;-0.045204028487205505
01:00:0A:00:00:00:00;1723767082;16/08/24;00:11:22;1.021;-0.105;-0.081;0.7305948734283447;0.4141666293144226;-0.036651913076639175
01:00:0A:00:00:00:00;1723767083;16/08/24;00:11:23;1.023;0.099;0.306;0.4703662395477295;-0.15882496535778046;0.12461651116609573
01:00:0A:00:00:00:00;1723767084;16/08/24;00:11:24;1.048;-0.216;-0.101;0.4948008358478546;0.07696902006864548;-0.04153883829712868
01:00:0A:00:00:00:00;1723767085;16/08/24;00:11:25;1.022;0.273;0.188;0.4495967924594879;0.17592918872833252;-0.313984751701355
01:00:0A:00:00:00:00;1723767086;16/08/24;00:11:26;1.033;-0.24;0.079;0.24923302233219147;-0.08552113175392151;0.4593706727027893
01:00:0A:00:00:00:00;1723767087;16/08/24;00:11:27;1.035;0.132;0.073;0.3188716471195221;-0.03176499158143997;-0.39217546582221985
01:00:0A:00:00:00:00;1723767088;16/08/24;00:11:28;0.967;-0.068;0.154;0.16493360698223114;0.1918116807937622;0.35674530267715454
01:00:0A:00:00:00:00;1723767089;16/08/24;00:11:29;0.953;0.074;0.039;0.12828169763088226;-0.26145032048225403;-0.3995058536529541
01:00:0A:00:00:00:00;1723767090;16/08/24;00:11:30;0.965;-0.024;0.052;0.080634206533432;0.18814648687839508;0.4813618063926697
01:00:0A:00:00:00:00;1723767091;16/08/24;00:11:31;0.968;-0.156;0.092;0.16371189057826996;-0.18325956165790558;-0.28099802136421204
01:00:0A:00:00:00:00;1723767092;16/08/24;00:11:32;1.0;0.082;-0.017;0.161268413066864;-0.07819075137376785;0.015882495790719986
01:00:0A:00:00:00:00;1723767093;16/08/24;00:11:33;1.019;-0.04;0.022;0.19303341209888458;0.012217304669320583;0.1417207270860672
01:00:0A:00:00:00:00;1723767094;16/08/24;00:11:34;0.999;-0.104;0.097;0.2076941877603531;-0.2895500957965851;-0.2028072476387024
01:00:0A:00:00:00:00;1723767095;16/08/24;00:11:35;1.038;0.024;-0.043;0.24190263450145721;0.028099799528717995;0.03298672288656235
01:00:0A:00:00:00:00;1723767096;16/08/24;00:11:36;1.056;-0.067;0.149;0.16859880089759827;-0.20647244155406952;-0.04398229718208313
01:00:0A:00:00:00:00;1723767097;16/08/24;00:11:37;1.079;0.004;-0.006;0.12950342893600464;-0.16004669666290283;0.05253440886735916
01:00:0A:00:00:00:00;1723767098;16/08/24;00:11:38;1.04;-0.03;0.212;0.10262535512447357;0.036651913076639175;0.1014036238193512
01:00:0A:00:00:00:00;1723767099;16/08/24;00:11:39;1.004;0.022;0.066;0.0354301817715168;-0.19425514340400696;0.009773843921720982
01:00:0A:00:00:00:00;1723767100;16/08/24;00:11:40;1.0;0.0;0.04;0.14294245839118958;0.13439035415649414;0.0073303827084600925
01:00:0A:00:00:00:00;1723767101;16/08/24;00:11:41;1.025;-0.034;0.153;0.1062905490398407;-0.006108652334660292;-0.08552113175392151
01:00:0A:00:00:00:00;1723767102;16/08/24;00:11:42;1.058;-0.048;0.04;0.059864792972803116;-0.0659734457731247;0.02932153083384037
01:00:0A:00:00:00:00;1723767103;16/08/24;00:11:43;1.048;-0.079;0.066;0.1062905490398407;0.08918632566928864;0.09040805697441101
01:00:0A:00:00:00:00;1723767104;16/08/24;00:11:44;0.988;-0.022;0.081;0.09651670604944229;0.05619959905743599;0.03787364438176155
01:00:0A:00:00:00:00;1723767105;16/08/24;00:11:45;0.964;0.019;0.083;-0.2687807083129883;-0.042760565876960754;0.004886921960860491
01:00:0A:00:00:00:00;1723767106;16/08/24;00:11:46;0.959;0.011;0.006;-0.25534167885780334;-0.09529497474431992;0.05497787147760391
01:00:0A:00:00:00:00;1723767107;16/08/24;00:11:47;0.965;0.017;0.054;-0.15271630883216858;0.1417207270860672;-0.0073303827084600925
01:00:0A:00:00:00:00;1723767108;16/08/24;00:11:48;0.985;-0.008;0.11;-0.1966986060142517;-0.2125810980796814;-0.06108652427792549
01:00:0A:00:00:00:00;1723767109;16/08/24;00:11:49;1.018;-0.012;0.028;-0.1417207270860672;0.040317103266716;0.019547687843441963
01:00:0A:00:00:00:00;1723767110;16/08/24;00:11:50;1.032;-0.059;0.114;-0.1014036238193512;-0.0036651913542300463;-0.006108652334660292
01:00:0A:00:00:00:00;1723767111;16/08/24;00:11:51;1.065;-0.035;0.078;-0.07941248267889023;-0.004886921960860491;-0.01710422709584236
01:00:0A:00:00:00:00;1723767112;16/08/24;00:11:52;1.061;-0.013;0.037;-0.042760565876960754;0.04886921867728233;-0.0024434609804302454
01:00:0A:00:00:00:00;1723767113;16/08/24;00:11:53;1.015;-0.082;0.07;-0.02932153083384037;0.0659734457731247;0.07941248267889023
01:00:0A:00:00:00:00;1723767114;16/08/24;00:11:54;0.993;-0.031;0.038;-0.009773843921720982;-0.06230825558304787;-0.0708603635430336
01:00:0A:00:00:00:00;1723767115;16/08/24;00:11:55;0.987;-0.04;0.066;0.012217304669320583;0.11239919811487198;0.09407324343919754
01:00:0A:00:00:00:00;1723767116;16/08/24;00:11:56;1.009;-0.075;0.115;0.0024434609804302454;-0.018325956538319588;-0.010995574295520782
01:00:0A:00:00:00:00;1723767117;16/08/24;00:11:57;1.045;0.0;0.035;0.013439035043120384;-0.009773843921720982;0.021991148591041565
01:00:0A:00:00:00:00;1723767118;16/08/24;00:11:58;1.026;-0.017;0.053;0.02932153083384037;-0.009773843921720982;0.02321287989616394
01:00:0A:00:00:00:00;1723767119;16/08/24;00:11:59;1.006;-0.032;0.065;0.024434609338641167;-0.09407324343919754;-0.06475171446800232
01:00:0A:00:00:00:00;1723767120;16/08/24;00:12:00;0.997;-0.034;0.071;0.024434609338641167;-0.11484266817569733;-0.06719517707824707
01:00:0A:00:00:00:00;1723767121;16/08/24;00:12:01;1.016;-0.061;0.113;0.030543262138962746;-0.0073303827084600925;-0.004886921960860491
01:00:0A:00:00:00:00;1723767122;16/08/24;00:12:02;1.009;-0.056;0.123;0.018325956538319588;0.021991148591041565;0.00855211354792118
01:00:0A:00:00:00:00;1723767123;16/08/24;00:12:03;0.976;-0.01;0.07;0.009773843921720982;-0.019547687843441963;-0.036651913076639175
01:00:0A:00:00:00:00;1723767124;16/08/24;00:12:04;0.931;-0.033;0.075;0.02076941914856434;0.045204028487205505;0.01710422709584236
01:00:0A:00:00:00:00;1723767125;16/08/24;00:12:05;0.949;-0.043;0.082;0.024434609338641167;-0.1771509200334549;-0.22357667982578278
01:00:0A:00:00:00:00;1723767126;16/08/24;00:12:06;1.04;-0.016;0.06;0.03420845419168472;0.19058994948863983;0.24434609711170197
01:00:0A:00:00:00:00;1723767127;16/08/24;00:12:07;1.063;-0.222;0.228;0.02076941914856434;-0.11972958594560623;-0.1466076523065567
01:00:0A:00:00:00:00;1723767128;16/08/24;00:12:08;1.022;0.274;-0.182;0.039095375686883926;0.18570303916931152;0.2125810980796814
01:00:0A:00:00:00:00;1723767129;16/08/24;00:12:09;0.979;-0.319;0.315;0.013439035043120384;0.2785545289516449;0.45204028487205505
01:00:0A:00:00:00:00;1723767130;16/08/24;00:12:10;1.044;0.059;-0.041;0.021991148591041565;-0.30543261766433716;-0.3799581527709961
01:00:0A:00:00:00:00;1723767131;16/08/24;00:12:11;0.992;0.027;0.027;0.05619959905743599;0.18814648687839508;0.18814648687839508
01:00:0A:00:00:00:00;1723767132;16/08/24;00:12:12;0.965;-0.132;0.123;0.040317103266716;0.01710422709584236;0.07819075137376785
01:00:0A:00:00:00:00;1723767133;16/08/24;00:12:13;0.995;-0.039;0.034;0.0708603635430336;-0.11239919811487198;-0.21502456068992615
01:00:0A:00:00:00:00;1723767134;16/08/24;00:12:14;1.012;0.048;0.007;0.05009094998240471;0.0757472887635231;0.2590068578720093
01:00:0A:00:00:00:00;1723767135;16/08/24;00:12:15;1.003;-0.163;0.102;0.07330382615327835;-0.1062905490398407;0.09651670604944229
01:00:0A:00:00:00:00;1723767136;16/08/24;00:12:16;1.024;-0.04;0.033;0.14416420459747314;-0.1918116807937622;-0.16859880089759827
01:00:0A:00:00:00:00;1723767137;16/08/24;00:12:17;1.022;0.072;0.016;0.17837265133857727;0.06108652427792549;0.10995574295520782
01:00:0A:00:00:00:00;1723767138;16/08/24;00:12:18;1.027;-0.123;0.135;0.18448130786418915;-0.0708603635430336;-0.009773843921720982
01:00:0A:00:00:00:00;1723767139;16/08/24;00:12:19;1.049;-0.02;0.04;0.1966986060142517;-0.13927726447582245;-0.13805554807186127
01:00:0A:00:00:00:00;1723767140;16/08/24;00:12:20;1.051;0.013;0.039;0.20402899384498596;0.004886921960860491;0.02932153083384037
01:00:0A:00:00:00:00;1723767141;16/08/24;00:12:21;1.025;-0.103;0.169;0.1661553531885147;0.08429940044879913;0.17592918872833252
01:00:0A:00:00:00:00;1723767142;16/08/24;00:12:22;0.996;-0.005;0.046;0.14782939851284027;-0.19547687470912933;-0.09896016865968704
01:00:0A:00:00:00:00;1723767143;16/08/24;00:12:23;0.976;-0.005;0.09;0.18814648687839508;0.18814648687839508;0.08674286305904388
01:00:0A:00:00:00:00;1723767144;16/08/24;00:12:24;0.984;-0.036;0.137;0.11972958594560623;-0.13927726447582245;-0.09040805697441101
01:00:0A:00:00:00:00;1723767145;16/08/24;00:12:25;1.033;-0.023;0.039;0.13316862285137177;-0.00855211354792118;-0.12950342893600464
01:00:0A:00:00:00:00;1723767146;16/08/24;00:12:26;1.049;-0.039;0.099;0.14416420459747314;0.06963863223791122;-0.02076941914856434
01:00:0A:00:00:00:00;1723767147;16/08/24;00:12:27;1.035;-0.118;0.119;0.11484266817569733;0.00855211354792118;0.04886921867728233
01:00:0A:00:00:00:00;1723767148;16/08/24;00:12:28;1.018;-0.052;0.05;0.1368338167667389;-0.04764748737215996;-0.02321287989616394
01:00:0A:00:00:00:00;1723767149;16/08/24;00:12:29;0.971;-0.033;0.127;0.15027284622192383;0.15271630883216858;0.07208210229873657
01:00:0A:00:00:00:00;1723767150;16/08/24;00:12:30;0.972;-0.016;0.092;0.080634206533432;-0.15515977144241333;-0.05497787147760391
01:00:0A:00:00:00:00;1723767151;16/08/24;00:12:31;1.005;-0.007;0.031;0.1270599663257599;0.080634206533432;-0.039095375686883926
01:00:0A:00:00:00:00;1723767152;16/08/24;00:12:32;1.024;-0.029;0.122;0.09773843735456467;-0.04764748737215996;-0.04886921867728233
01:00:0A:00:00:00:00;1723767153;16/08/24;00:12:33;1.04;-0.067;0.074;0.07941248267889023;-0.09040805697441101;-0.036651913076639175
01:00:0A:00:00:00:00;1723767154;16/08/24;00:12:34;1.021;-0.049;0.059;0.1258382350206375;0.05497787147760391;0.05497787147760391
01:00:0A:00:00:00:00;1723767155;16/08/24;00:12:35;1.012;-0.039;0.109;0.1270599663257599;0.09407324343919754;0.0757472887635231
01:00:0A:00:00:00:00;1723767156;16/08/24;00:12:36;1.014;-0.026;0.045;0.09773843735456467;-0.05375614017248154;0.05009094998240471
01:00:0A:00:00:00:00;1723767157;16/08/24;00:12:37;1.014;-0.022;0.034;0.14049901068210602;0.0036651913542300463;-0.006108652334660292
01:00:0A:00:00:00:00;1723767158;16/08/24;00:12:38;1.003;0.037;0.033;1.2400563955307007;0.2015855312347412;-0.03787364438176155
01:00:0A:00:00:00:00;1723767159;16/08/24;00:12:39;0.98;0.041;0.093;0.0708603635430336;-0.1417207270860672;0.06230825558304787
01:00:0A:00:00:00:00;1723767160;16/08/24;00:12:40;0.984;-0.06;0.045;0.04764748737215996;-0.006108652334660292;0.1368338167667389
01:00:0A:00:00:00:00;1723767161;16/08/24;00:12:41;1.006;-0.091;0.068;0.08918632566928864;-0.08307767659425735;-0.29077184200286865
01:00:0A:00:00:00:00;1723767162;16/08/24;00:12:42;1.066;0.091;0.018;-0.019547687843441963;-0.05497787147760391;0.4337143301963806
01:00:0A:00:00:00:00;1723767163;16/08/24;00:12:43;1.044;-0.402;0.155;0.05375614017248154;-0.08429940044879913;-0.015882495790719986
01:00:0A:00:00:00:00;1723767164;16/08/24;00:12:44;0.951;0.541;-0.078;-0.009773843921720982;-0.09285151958465576;0.19425514340400696
01:00:0A:00:00:00:00;1723767165;16/08/24;00:12:45;0.993;-0.45;0.15;0.010995574295520782;0.1014036238193512;0.4031710624694824
01:00:0A:00:00:00:00;1723767166;16/08/24;00:12:46;1.058;0.132;0.092;0.1258382350206375;-0.1160643920302391;-0.5057964324951172
01:00:0A:00:00:00:00;1723767167;16/08/24;00:12:47;1.017;-0.095;0.015;0.06352998316287994;0.028099799528717995;0.23090705275535583
01:00:0A:00:00:00:00;1723767168;16/08/24;00:12:48;0.972;-0.109;0.148;0.1160643920302391;0.1869247555732727;-0.08429940044879913
01:00:0A:00:00:00:00;1723767169;16/08/24;00:12:49;0.97;-0.036;0.032;0.0073303827084600925;-0.2541199326515198;-0.006108652334660292
01:00:0A:00:00:00:00;1723767170;16/08/24;00:12:50;0.982;-0.07;0.012;0.10506881773471832;0.28466320037841797;0.17470745742321014
01:00:0A:00:00:00:00;1723767171;16/08/24;00:12:51;0.997;-0.037;0.158;0.03787364438176155;-0.14294245839118958;-0.08307767659425735
01:00:0A:00:00:00:00;1723767172;16/08/24;00:12:52;1.025;0.033;-0.001;-0.0073303827084600925;-0.13561207056045532;0.014660765416920185
01:00:0A:00:00:00:00;1723767173;16/08/24;00:12:53;1.025;-0.064;0.031;0.07208210229873657;0.15271630883216858;0.045204028487205505
01:00:0A:00:00:00:00;1723767174;16/08/24;00:12:54;1.007;-0.048;0.131;0.03298672288656235;-0.02321287989616394;-0.014660765416920185
01:00:0A:00:00:00:00;1723767175;16/08/24;00:12:55;0.997;-0.015;-0.013;-0.009773843921720982;-0.15393804013729095;0.10262535512447357
01:00:0A:00:00:00:00;1723767176;16/08/24;00:12:56;0.996;-0.039;0.018;0.09040805697441101;0.1820378452539444;0.08796459436416626
01:00:0A:00:00:00:00;1723767177;16/08/24;00:12:57;1.005;-0.019;0.124;0.025656338781118393;-0.1722639948129654;-0.024434609338641167
01:00:0A:00:00:00:00;1723767178;16/08/24;00:12:58;1.033;0.009;-0.011;0.03298672288656235;-0.1270599663257599;-0.02076941914856434
01:00:0A:00:00:00:00;1723767179;16/08/24;00:12:59;1.029;-0.05;0.076;0.09529497474431992;0.04398229718208313;-0.021991148591041565
01:00:0A:00:00:00:00;1723767180;16/08/24;00:13:00;1.011;-0.03;0.139;0.05742133408784866;-0.06230825558304787;-0.0659734457731247
01:00:0A:00:00:00:00;1723767181;16/08/24;00:13:01;1.012;-0.023;0.042;0.04153883829712868;-0.06475171446800232;-0.021991148591041565
01:00:0A:00:00:00:00;1723767182;16/08/24;00:13:02;1.015;-0.04;0.069;0.09529497474431992;0.11362093687057495;-0.014660765416920185
01:00:0A:00:00:00:00;1723767183;16/08/24;00:13:03;1.027;-0.043;0.136;0.04398229718208313;-0.02321287989616394;-0.02076941914856434
01:00:0A:00:00:00:00;1723767184;16/08/24;00:13:04;1.041;-0.046;0.025;0.028099799528717995;-0.06475171446800232;0.015882495790719986
01:00:0A:00:00:00:00;1723767185;16/08/24;00:13:05;1.036;-0.046;0.073;0.0708603635430336;0.059864792972803116;-0.004886921960860491
01:00:0A:00:00:00:00;1723767186;16/08/24;00:13:06;1.025;-0.041;0.116;0.039095375686883926;-0.0012217304902151227;0.0024434609804302454
01:00:0A:00:00:00:00;1723767187;16/08/24;00:13:07;1.001;-0.055;0.045;0.02932153083384037;-0.07330382615327835;0.025656338781118393
01:00:0A:00:00:00:00;1723767188;16/08/24;00:13:08;0.987;-0.06;0.075;0.0757472887635231;0.1160643920302391;0.051312677562236786
01:00:0A:00:00:00:00;1723767189;16/08/24;00:13:09;0.991;-0.047;0.119;0.03176499158143997;-0.02321287989616394;0.05009094998240471
01:00:0A:00:00:00:00;1723767190;16/08/24;00:13:10;1.013;-0.035;0.051;0.03298672288656235;-0.0024434609804302454;0.024434609338641167
01:00:0A:00:00:00:00;1723767191;16/08/24;00:13:11;1.02;-0.017;0.062;0.059864792972803116;0.07819075137376785;-0.006108652334660292
01:00:0A:00:00:00:00;1723767192;16/08/24;00:13:12;1.02;-0.02;0.081;0.02687807008624077;-0.03176499158143997;0.013439035043120384
01:00:0A:00:00:00:00;1723767193;16/08/24;00:13:13;1.011;-0.03;0.028;0.019547687843441963;-0.10018189996480942;-0.009773843921720982
01:00:0A:00:00:00:00;1723767194;16/08/24;00:13:14;0.98;-0.026;0.07;0.04886921867728233;0.0024434609804302454;-0.06475171446800232
01:00:0A:00:00:00:00;1723767195;16/08/24;00:13:15;0.977;-0.025;0.092;0.009773843921720982;-0.11972958594560623;-0.0354301817715168
01:00:0A:00:00:00:00;1723767196;16/08/24;00:13:16;1.023;-0.038;0.061;0.021991148591041565;0.004886921960860491;-0.036651913076639175
01:00:0A:00:00:00:00;1723767197;16/08/24;00:13:17;1.062;-0.028;0.094;0.018325956538319588;0.0073303827084600925;-0.00855211354792118
01:00:0A:00:00:00:00;1723767198;16/08/24;00:13:18;1.07;-0.042;0.069;0.013439035043120384;0.019547687843441963;0.012217304669320583
01:00:0A:00:00:00:00;1723767199;16/08/24;00:13:19;1.047;-0.037;0.055;0.021991148591041565;0.019547687843441963;0.024434609338641167
01:00:0A:00:00:00:00;1723767200;16/08/24;00:13:20;1.011;-0.046;0.052;0.021991148591041565;0.010995574295520782;0.059864792972803116
01:00:0A:00:00:00:00;1723767201;16/08/24;00:13:21;0.96;-0.028;0.046;0.02932153083384037;-0.042760565876960754;0.010995574295520782
01:00:0A:00:00:00:00;1723767202;16/08/24;00:13:22;0.972;-0.025;0.054;0.03787364438176155;-0.03420845419168472;0.009773843921720982
01:00:0A:00:00:00:00;1723767203;16/08/24;00:13:23;1.011;-0.015;0.058;-0.019547687843441963;-0.059864792972803116;-0.024434609338641167
01:00:0A:00:00:00:00;1723767204;16/08/24;00:13:24;1.024;-0.029;0.078;-0.06719517707824707;0.024434609338641167;0.042760565876960754
01:00:0A:00:00:00:00;1723767205;16/08/24;00:13:25;1.026;-0.042;0.087;-0.10995574295520782;0.0073303827084600925;-0.0036651913542300463
01:00:0A:00:00:00:00;1723767206;16/08/24;00:13:26;1.018;-0.04;0.069;-0.09040805697441101;0.0073303827084600925;-0.0354301817715168
01:00:0A:00:00:00:00;1723767207;16/08/24;00:13:27;1.018;-0.029;0.067;-0.08552113175392151;0.010995574295520782;0.0036651913542300463
01:00:0A:00:00:00:00;1723767208;16/08/24;00:13:28;1.038;-0.056;0.069;-0.07941248267889023;0.006108652334660292;0.01710422709584236
01:00:0A:00:00:00:00;1723767209;16/08/24;00:13:29;1.057;-0.043;0.068;-0.06841690838336945;0.013439035043120384;0.0
01:00:0A:00:00:00:00;1723767210;16/08/24;00:13:30;1.044;-0.013;0.04;-0.06719517707824707;0.0012217304902151227;0.013439035043120384
01:00:0A:00:00:00:00;1723767211;16/08/24;00:13:31;1.01;-0.043;0.041;-0.059864792972803116;-0.010995574295520782;0.0708603635430336
01:00:0A:00:00:00:00;1723767212;16/08/24;00:13:32;0.959;-0.021;0.045;-0.03176499158143997;-0.01710422709584236;-0.04886921867728233
01:00:0A:00:00:00:00;1723767213;16/08/24;00:13:33;0.993;-0.024;0.068;-0.040317103266716;-0.042760565876960754;0.021991148591041565
01:00:0A:00:00:00:00;1723767214;16/08/24;00:13:34;1.035;-0.057;0.074;-0.02076941914856434;-0.05375614017248154;-0.04886921867728233
01:00:0A:00:00:00:00;1723767215;16/08/24;00:13:35;1.065;-0.004;0.082;-0.019547687843441963;-0.0036651913542300463;0.02687807008624077
01:00:0A:00:00:00:00;1723767216;16/08/24;00:13:36;1.047;-0.048;0.09;-0.02321287989616394;0.006108652334660292;0.06841690838336945
01:00:0A:00:00:00:00;1723767217;16/08/24;00:13:37;0.982;-0.005;0.064;-0.012217304669320583;-0.013439035043120384;-0.059864792972803116
01:00:0A:00:00:00:00;1723767218;16/08/24;00:13:38;0.945;-0.033;0.059;-0.030543262138962746;-0.004886921960860491;0.06719517707824707
01:00:0A:00:00:00:00;1723767219;16/08/24;00:13:39;0.975;-0.053;0.061;-0.004886921960860491;-0.04398229718208313;-0.17959438264369965
01:00:0A:00:00:00:00;1723767220;16/08/24;00:13:40;1.021;-0.024;0.067;-0.04764748737215996;-0.013439035043120384;0.14905111491680145
01:00:0A:00:00:00:00;1723767221;16/08/24;00:13:41;1.071;-0.145;0.086;-0.015882495790719986;-0.04886921867728233;-0.08674286305904388
01:00:0A:00:00:00:00;1723767222;16/08/24;00:13:42;1.065;0.174;0.056;-0.040317103266716;-0.0012217304902151227;-0.00855211354792118
01:00:0A:00:00:00:00;1723767223;16/08/24;00:13:43;1.032;-0.275;0.099;-0.05619959905743599;0.04153883829712868;0.4105014204978943
01:00:0A:00:00:00:00;1723767224;16/08/24;00:13:44;0.987;0.222;0.048;0.03298672288656235;-0.05619959905743599;-0.6426302194595337
01:00:0A:00:00:00:00;1723767225;16/08/24;00:13:45;0.981;-0.175;0.064;-0.1062905490398407;0.013439035043120384;0.6585127115249634
01:00:0A:00:00:00:00;1723767226;16/08/24;00:13:46;0.952;-0.049;0.057;0.09162978082895279;-0.03420845419168472;-0.5705481767654419
01:00:0A:00:00:00:00;1723767227;16/08/24;00:13:47;0.963;-0.003;0.097;-0.26633724570274353;-0.18448130786418915;0.20525071024894714
01:00:0A:00:00:00:00;1723767228;16/08/24;00:13:48;1.002;-0.127;-0.002;-0.12828169763088226;0.04764748737215996;-0.09651670604944229
01:00:0A:00:00:00:00;1723767229;16/08/24;00:13:49;1.031;-0.011;0.095;-0.08185594528913498;0.05619959905743599;-0.05375614017248154
01:00:0A:00:00:00:00;1723767230;16/08/24;00:13:50;1.034;-0.013;0.114;-0.1673770695924759;-0.08429940044879913;0.08429940044879913
01:00:0A:00:00:00:00;1723767231;16/08/24;00:13:51;1.015;-0.067;0.008;-0.1258382350206375;-0.06230825558304787;0.036651913076639175
01:00:0A:00:00:00:00;1723767232;16/08/24;00:13:52;1.003;0.001;0.106;-0.05375614017248154;0.14538592100143433;-0.08429940044879913
01:00:0A:00:00:00:00;1723767233;16/08/24;00:13:53;1.005;-0.015;0.106;-0.1466076523065567;-0.11484266817569733;0.042760565876960754
01:00:0A:00:00:00:00;1723767234;16/08/24;00:13:54;1.017;-0.051;0.012;-0.09040805697441101;0.018325956538319588;-0.028099799528717995
01:00:0A:00:00:00:00;1723767235;16/08/24;00:13:55;1.034;-0.02;0.101;-0.06108652427792549;0.08307767659425735;-0.03176499158143997
01:00:0A:00:00:00:00;1723767236;16/08/24;00:13:56;1.035;-0.041;0.099;-0.1160643920302391;-0.04398229718208313;0.019547687843441963
01:00:0A:00:00:00:00;1723767237;16/08/24;00:13:57;1.011;-0.04;0.014;-0.08918632566928864;-0.04153883829712868;0.009773843921720982
01:00:0A:00:00:00:00;1723767238;16/08/24;00:13:58;0.991;-0.029;0.084;-0.042760565876960754;0.11239919811487198;0.006108652334660292
01:00:0A:00:00:00:00;1723767239;16/08/24;00:13:59;0.985;-0.041;0.069;-0.09040805697441101;-0.11972958594560623;0.010995574295520782
01:00:0A:00:00:00:00;1723767240;16/08/24;00:14:00;1.006;-0.027;0.016;-0.04764748737215996;-0.0024434609804302454;-0.02321287989616394
01:00:0A:00:00:00:00;1723767241;16/08/24;00:14:01;1.013;-0.021;0.075;-0.0354301817715168;0.0012217304902151227;-0.004886921960860491
01:00:0A:00:00:00:00;1723767242;16/08/24;00:14:02;1.014;-0.046;0.091;-0.06475171446800232;-0.09285151958465576;-0.012217304669320583
01:00:0A:00:00:00:00;1723767243;16/08/24;00:14:03;1.009;-0.028;0.044;-0.03787364438176155;-0.009773843921720982;-0.03420845419168472
01:00:0A:00:00:00:00;1723767244;16/08/24;00:14:04;1.019;0.047;0.076;-0.012217304669320583;0.014660765416920185;0.0354301817715168
01:00:0A:00:00:00:00;1723767245;16/08/24;00:14:05;1.039;-0.089;0.088;-0.03298672288656235;-0.06475171446800232;0.019547687843441963
01:00:0A:00:00:00:00;1723767246;16/08/24;00:14:06;1.062;-0.06;0.037;0.021991148591041565;-0.040317103266716;-0.0708603635430336
01:00:0A:00:00:00:00;1723767247;16/08/24;00:14:07;1.034;0.012;0.12;0.014660765416920185;0.06352998316287994;-0.0073303827084600925
01:00:0A:00:00:00:00;1723767248;16/08/24;00:14:08;1.001;-0.095;0.073;-0.02932153083384037;-0.05497787147760391;0.19058994948863983
01:00:0A:00:00:00:00;1723767249;16/08/24;00:14:09;0.955;-0.008;0.069;0.05619959905743599;0.10751228034496307;-0.1661553531885147
01:00:0A:00:00:00:00;1723767250;16/08/24;00:14:10;0.955;-0.012;0.068;-0.028099799528717995;0.0024434609804302454;0.20647244155406952
01:00:0A:00:00:00:00;1723767251;16/08/24;00:14:11;1.001;-0.068;0.033;0.02687807008624077;-0.0073303827084600925;-0.16249015927314758
01:00:0A:00:00:00:00;1723767252;16/08/24;00:14:12;1.036;0.045;0.04;-0.006108652334660292;-0.004886921960860491;0.05009094998240471
01:00:0A:00:00:00:00;1723767253;16/08/24;00:14:13;1.058;-0.086;0.083;-0.021991148591041565;-0.09162978082895279;-0.02321287989616394
01:00:0A:00:00:00:00;1723767254;16/08/24;00:14:14;1.049;-0.013;0.052;-0.010995574295520782;-0.07941248267889023;-0.06963863223791122
01:00:0A:00:00:00:00;1723767255;16/08/24;00:14:15;1.005;-0.038;0.107;-0.02932153083384037;0.024434609338641167;0.0659734457731247
01:00:0A:00:00:00:00;1723767256;16/08/24;00:14:16;0.985;-0.054;0.09;-0.04642575979232788;-0.04642575979232788;0.012217304669320583
01:00:0A:00:00:00:00;1723767257;16/08/24;00:14:17;1.001;-0.032;0.064;-0.02321287989616394;0.02932153083384037;-0.019547687843441963
01:00:0A:00:00:00:00;1723767258;16/08/24;00:14:18;1.022;-0.02;0.085;-0.04153883829712868;0.012217304669320583;0.036651913076639175
01:00:0A:00:00:00:00;1723767259;16/08/24;00:14:19;1.029;-0.051;0.066;-0.04886921867728233;-0.02687807008624077;-0.010995574295520782
01:00:0A:00:00:00:00;1723767260;16/08/24;00:14:20;1.027;-0.023;0.055;-0.03176499158143997;-0.006108652334660292;-0.028099799528717995
01:00:0A:00:00:00:00;1723767261;16/08/24;00:14:21;1.019;-0.039;0.081;-0.039095375686883926;0.0012217304902151227;0.03176499158143997
01:00:0A:00:00:00:00;1723767262;16/08/24;00:14:22;1.007;-0.052;0.072;-0.045204028487205505;-0.02076941914856434;0.02076941914856434
01:00:0A:00:00:00:00;1723767263;16/08/24;00:14:23;1.011;-0.026;0.066;-0.02321287989616394;0.013439035043120384;-0.01710422709584236
01:00:0A:00:00:00:00;1723767264;16/08/24;00:14:24;1.018;-0.016;0.071;-0.03420845419168472;-0.015882495790719986;0.02076941914856434
01:00:0A:00:00:00:00;1723767265;16/08/24;00:14:25;1.016;-0.04;0.051;-0.036651913076639175;-0.040317103266716;0.009773843921720982
01:00:0A:00:00:00:00;1723767266;16/08/24;00:14:26;0.996;-0.033;0.062;-0.018325956538319588;-0.013439035043120384;-0.02321287989616394
01:00:0A:00:00:00:00;1723767267;16/08/24;00:14:27;0.99;-0.037;0.079;-0.028099799528717995;-0.02932153083384037;0.019547687843441963
01:00:0A:00:00:00:00;1723767268;16/08/24;00:14:28;1.009;-0.05;0.076;-0.02321287989616394;-0.03176499158143997;-0.0354301817715168
01:00:0A:00:00:00:00;1723767269;16/08/24;00:14:29;1.048;-0.034;0.069;-0.01710422709584236;0.02321287989616394;0.006108652334660292
01:00:0A:00:00:00:00;1723767270;16/08/24;00:14:30;1.062;-0.035;0.082;-0.02932153083384037;0.02321287989616394;0.03176499158143997
01:00:0A:00:00:00:00;1723767271;16/08/24;00:14:31;1.046;-0.04;0.045;-0.02932153083384037;-0.019547687843441963;0.040317103266716
01:00:0A:00:00:00:00;1723767272;16/08/24;00:14:32;1.014;-0.015;0.067;-0.018325956538319588;0.03176499158143997;0.019547687843441963
01:00:0A:00:00:00:00;1723767273;16/08/24;00:14:33;0.957;-0.026;0.043;-0.03176499158143997;-0.05497787147760391;0.039095375686883926
01:00:0A:00:00:00:00;1723767274;16/08/24;00:14:34;0.967;-0.025;0.054;0.0012217304902151227;-0.024434609338641167;-0.06841690838336945
01:00:0A:00:00:00:00;1723767275;16/08/24;00:14:35;0.994;-0.014;0.081;-0.02321287989616394;-0.08552113175392151;0.014660765416920185
01:00:0A:00:00:00:00;1723767276;16/08/24;00:14:36;1.046;-0.054;0.065;0.0073303827084600925;0.0073303827084600925;-0.051312677562236786
01:00:0A:00:00:00:00;1723767277;16/08/24;00:14:37;1.058;-0.014;0.094;0.0024434609804302454;0.0012217304902151227;-0.0024434609804302454
01:00:0A:00:00:00:00;1723767278;16/08/24;00:14:38;1.049;-0.053;0.058;-0.006108652334660292;0.00855211354792118;0.05742133408784866
01:00:0A:00:00:00:00;1723767279;16/08/24;00:14:39;1.02;-0.029;0.067;0.0073303827084600925;0.030543262138962746;0.010995574295520782
01:00:0A:00:00:00:00;1723767280;16/08/24;00:14:40;0.987;-0.017;0.057;-0.010995574295520782;-0.024434609338641167;0.018325956538319588
01:00:0A:00:00:00:00;1723767281;16/08/24;00:14:41;0.987;-0.04;0.046;-0.006108652334660292;-0.02932153083384037;0.0073303827084600925
01:00:0A:00:00:00:00;1723767282;16/08/24;00:14:42;1.007;-0.034;0.065;0.0;-0.05009094998240471;-0.030543262138962746
01:00:0A:00:00:00:00;1723767283;16/08/24;00:14:43;1.033;-0.03;0.084;-0.009773843921720982;-0.040317103266716;0.009773843921720982
01:00:0A:00:00:00:00;1723767284;16/08/24;00:14:44;1.038;-0.045;0.071;-0.00855211354792118;-0.01710422709584236;0.025656338781118393
01:00:0A:00:00:00:00;1723767285;16/08/24;00:14:45;1.018;-0.035;0.082;-0.009773843921720982;0.021991148591041565;0.02321287989616394
01:00:0A:00:00:00:00;1723767286;16/08/24;00:14:46;1.003;-0.017;0.067;-0.02687807008624077;-0.013439035043120384;0.012217304669320583
01:00:0A:00:00:00:00;1723767287;16/08/24;00:14:47;0.988;-0.03;0.064;-0.024434609338641167;0.0036651913542300463;0.0012217304902151227
01:00:0A:00:00:00:00;1723767288;16/08/24;00:14:48;0.989;-0.03;0.079;-0.028099799528717995;0.013439035043120384;-0.014660765416920185
01:00:0A:00:00:00:00;1723767289;16/08/24;00:14:49;1.004;-0.025;0.083;-0.04398229718208313;-0.01710422709584236;-0.028099799528717995
01:00:0A:00:00:00:00;1723767290;16/08/24;00:14:50;1.016;-0.035;0.075;-0.04764748737215996;0.010995574295520782;-0.021991148591041565
01:00:0A:00:00:00:00;1723767291;16/08/24;00:14:51;1.038;-0.04;0.079;-0.05253440886735916;0.0073303827084600925;-0.009773843921720982
01:00:0A:00:00:00:00;1723767292;16/08/24;00:14:52;1.043;-0.037;0.075;-0.06352998316287994;-0.0073303827084600925;0.02076941914856434
01:00:0A:00:00:00:00;1723767293;16/08/24;00:14:53;1.029;-0.033;0.068;-0.06475171446800232;-0.00855211354792118;0.02932153083384037
01:00:0A:00:00:00:00;1723767294;16/08/24;00:14:54;0.997;-0.029;0.078;-0.06108652427792549;0.00855211354792118;0.006108652334660292
01:00:0A:00:00:00:00;1723767295;16/08/24;00:14:55;0.988;-0.029;0.076;-0.06841690838336945;-0.03176499158143997;-0.009773843921720982
01:00:0A:00:00:00:00;1723767296;16/08/24;00:14:56;0.995;-0.031;0.076;-0.06352998316287994;-0.004886921960860491;-0.010995574295520782
01:00:0A:00:00:00:00;1723767297;16/08/24;00:14:57;1.003;-0.043;0.081;-0.06352998316287994;-0.01710422709584236;-0.019547687843441963
01:00:0A:00:00:00:00;1723767298;16/08/24;00:14:58;1.021;-0.047;0.079;-0.06475171446800232;-0.015882495790719986;-0.012217304669320583
01:00:0A:00:00:00:00;1723767299;16/08/24;00:14:59;1.031;-0.038;0.069;-0.06352998316287994;0.0;0.0024434609804302454
01:00:0A:00:00:00:00;1723767300;16/08/24;00:15:00;1.029;-0.043;0.078;-0.06719517707824707;0.0012217304902151227;0.01710422709584236
01:00:0A:00:00:00:00;1723767301;16/08/24;00:15:01;1.015;-0.039;0.066;-0.06841690838336945;-0.02321287989616394;0.0036651913542300463
01:00:0A:00:00:00:00;1723767302;16/08/24;00:15:02;1.012;-0.033;0.065;-0.0659734457731247;-0.009773843921720982;0.00855211354792118
01:00:0A:00:00:00:00;1723767303;16/08/24;00:15:03;1.018;-0.036;0.075;-0.0659734457731247;-0.0073303827084600925;0.02076941914856434
01:00:0A:00:00:00:00;1723767304;16/08/24;00:15:04;1.026;-0.038;0.071;-0.06230825558304787;-0.02321287989616394;0.0073303827084600925
01:00:0A:00:00:00:00;1723767305;16/08/24;00:15:05;1.028;-0.028;0.076;-0.05864306166768074;0.0024434609804302454;0.012217304669320583
01:00:0A:00:00:00:00;1723767306;16/08/24;00:15:06;1.022;-0.04;0.082;-0.05864306166768074;0.0036651913542300463;0.025656338781118393
01:00:0A:00:00:00:00;1723767307;16/08/24;00:15:07;1.006;-0.033;0.071;-0.05009094998240471;-0.0012217304902151227;-0.018325956538319588
01:00:0A:00:00:00:00;1723767308;16/08/24;00:15:08;0.992;-0.031;0.065;-0.04886921867728233;0.0;-0.00855211354792118
01:00:0A:00:00:00:00;1723767309;16/08/24;00:15:09;0.996;-0.043;0.062;-0.04764748737215996;-0.02076941914856434;-0.0012217304902151227
01:00:0A:00:00:00:00;1723767310;16/08/24;00:15:10;1.014;-0.049;0.061;-0.04153883829712868;-0.0354301817715168;-0.015882495790719986
01:00:0A:00:00:00:00;1723767311;16/08/24;00:15:11;1.02;-0.038;0.069;-0.040317103266716;-0.02932153083384037;0.006108652334660292
01:00:0A:00:00:00:00;1723767312;16/08/24;00:15:12;1.029;-0.041;0.074;-0.03787364438176155;-0.019547687843441963;0.00855211354792118
