Source;Epoch timestamp (UTC);Date;Time (UTC);Accel X (G);Accel Y (G);Accel Z (G);Gyro X (rad/s);Gyro Y (rad/s);Gyro Z (rad/s)
01:00:0A:00:00:00:00;1723593600;14/08/24;00:00:00;1.014;-0.039;0.082;-0.0073303827084600925;-0.012217304669320583;0.0036651913542300463
01:00:0A:00:00:00:00;1723593601;14/08/24;00:00:01;1.013;-0.04;0.083;-0.006108652334660292;-0.012217304669320583;0.0012217304902151227
01:00:0A:00:00:00:00;1723593602;14/08/24;00:00:02;1.014;-0.039;0.085;-0.006108652334660292;-0.013439035043120384;0.0024434609804302454
01:00:0A:00:00:00:00;1723593603;14/08/24;00:00:03;1.016;-0.04;0.085;-0.0073303827084600925;-0.012217304669320583;0.004886921960860491
01:00:0A:00:00:00:00;1723593604;14/08/24;00:00:04;1.014;-0.04;0.085;-0.006108652334660292;-0.009773843921720982;0.0024434609804302454
01:00:0A:00:00:00:00;1723593605;14/08/24;00:00:05;1.012;-0.039;0.084;-0.006108652334660292;-0.009773843921720982;0.0036651913542300463
01:00:0A:00:00:00:00;1723593606;14/08/24;00:00:06;1.013;-0.04;0.082;-0.006108652334660292;-0.010995574295520782;0.004886921960860491
01:00:0A:00:00:00:00;1723593607;14/08/24;00:00:07;1.013;-0.039;0.082;-0.006108652334660292;-0.012217304669320583;0.0012217304902151227
01:00:0A:00:00:00:00;1723593608;14/08/24;00:00:08;1.015;-0.039;0.084;-0.006108652334660292;-0.013439035043120384;0.0024434609804302454
01:00:0A:00:00:00:00;1723593609;14/08/24;00:00:09;1.016;-0.039;0.084;-0.006108652334660292;-0.012217304669320583;0.004886921960860491
01:00:0A:00:00:00:00;1723593610;14/08/24;00:00:10;1.015;-0.04;0.084;-0.004886921960860491;-0.009773843921720982;0.004886921960860491
01:00:0A:00:00:00:00;1723593611;14/08/24;00:00:11;1.014;-0.038;0.084;-0.004886921960860491;-0.009773843921720982;0.0036651913542300463
01:00:0A:00:00:00:00;1723593612;14/08/24;00:00:12;1.014;-0.039;0.082;-0.004886921960860491;-0.010995574295520782;0.0036651913542300463
01:00:0A:00:00:00:00;1723593613;14/08/24;00:00:13;1.012;-0.04;0.084;-0.0036651913542300463;-0.012217304669320583;0.0012217304902151227
01:00:0A:00:00:00:00;1723593614;14/08/24;00:00:14;1.015;-0.038;0.084;-0.004886921960860491;-0.012217304669320583;0.0024434609804302454
01:00:0A:00:00:00:00;1723593615;14/08/24;00:00:15;1.016;-0.04;0.084;-0.006108652334660292;-0.013439035043120384;0.004886921960860491
01:00:0A:00:00:00:00;1723593616;14/08/24;00:00:16;1.015;-0.039;0.085;-0.0036651913542300463;-0.009773843921720982;0.0012217304902151227
01:00:0A:00:00:00:00;1723593617;14/08/24;00:00:17;1.014;-0.037;0.083;-0.004886921960860491;-0.010995574295520782;0.0036651913542300463
01:00:0A:00:00:00:00;1723593618;14/08/24;00:00:18;1.015;-0.04;0.083;-0.004886921960860491;-0.010995574295520782;0.004886921960860491
01:00:0A:00:00:00:00;1723593619;14/08/24;00:00:19;1.013;-0.04;0.083;-0.0036651913542300463;-0.010995574295520782;0.0012217304902151227
01:00:0A:00:00:00:00;1723593620;14/08/24;00:00:20;1.015;-0.039;0.084;-0.004886921960860491;-0.012217304669320583;0.0036651913542300463
01:00:0A:00:00:00:00;1723593621;14/08/24;00:00:21;1.014;-0.038;0.084;-0.004886921960860491;-0.010995574295520782;0.0036651913542300463
01:00:0A:00:00:00:00;1723593622;14/08/24;00:00:22;1.014;-0.04;0.084;-0.0036651913542300463;-0.010995574295520782;0.0024434609804302454
01:00:0A:00:00:00:00;1723593623;14/08/24;00:00:23;1.013;-0.038;0.085;-0.004886921960860491;-0.010995574295520782;0.0036651913542300463
01:00:0A:00:00:00:00;1723593624;14/08/24;00:00:24;1.013;-0.04;0.082;-0.004886921960860491;-0.010995574295520782;0.004886921960860491
01:00:0A:00:00:00:00;1723593625;14/08/24;00:00:25;1.015;-0.04;0.084;-0.0036651913542300463;-0.010995574295520782;0.0012217304902151227
01:00:0A:00:00:00:00;1723593626;14/08/24;00:00:26;1.014;-0.038;0.085;-0.004886921960860491;-0.012217304669320583;0.0036651913542300463
01:00:0A:00:00:00:00;1723593627;14/08/24;00:00:27;1.013;-0.039;0.084;-0.004886921960860491;-0.010995574295520782;0.004886921960860491
01:00:0A:00:00:00:00;1723593628;14/08/24;00:00:28;1.014;-0.038;0.083;-0.0024434609804302454;-0.009773843921720982;0.0
01:00:0A:00:00:00:00;1723593629;14/08/24;00:00:29;1.013;-0.038;0.083;-0.004886921960860491;-0.010995574295520782;0.0036651913542300463
01:00:0A:00:00:00:00;1723593630;14/08/24;00:00:30;1.014;-0.04;0.083;-0.004886921960860491;-0.012217304669320583;0.0036651913542300463
01:00:0A:00:00:00:00;1723593631;14/08/24;00:00:31;1.013;-0.039;0.084;-0.0024434609804302454;-0.010995574295520782;0.0012217304902151227
01:00:0A:00:00:00:00;1723593632;14/08/24;00:00:32;1.014;-0.038;0.084;-0.004886921960860491;-0.012217304669320583;0.004886921960860491
01:00:0A:00:00:00:00;1723593633;14/08/24;00:00:33;1.015;-0.04;0.083;-0.004886921960860491;-0.010995574295520782;0.0036651913542300463
01:00:0A:00:00:00:00;1723593634;14/08/24;00:00:34;1.014;-0.039;0.083;-0.0024434609804302454;-0.009773843921720982;0.0024434609804302454
01:00:0A:00:00:00:00;1723593635;14/08/24;00:00:35;1.014;-0.038;0.085;-0.004886921960860491;-0.012217304669320583;0.004886921960860491
01:00:0A:00:00:00:00;1723593636;14/08/24;00:00:36;1.013;-0.04;0.084;-0.0036651913542300463;-0.012217304669320583;0.0036651913542300463
01:00:0A:00:00:00:00;1723593637;14/08/24;00:00:37;1.014;-0.038;0.083;-0.0024434609804302454;-0.010995574295520782;0.0
01:00:0A:00:00:00:00;1723593638;14/08/24;00:00:38;1.016;-0.038;0.085;-0.004886921960860491;-0.012217304669320583;0.004886921960860491
01:00:0A:00:00:00:00;1723593639;14/08/24;00:00:39;1.014;-0.04;0.084;-0.0036651913542300463;-0.010995574295520782;0.0036651913542300463
01:00:0A:00:00:00:00;1723593640;14/08/24;00:00:40;1.014;-0.039;0.085;-0.0024434609804302454;-0.00855211354792118;0.0012217304902151227
01:00:0A:00:00:00:00;1723593641;14/08/24;00:00:41;1.014;-0.038;0.084;-0.004886921960860491;-0.012217304669320583;0.004886921960860491
01:00:0A:00:00:00:00;1723593642;14/08/24;00:00:42;1.014;-0.04;0.082;-0.0036651913542300463;-0.012217304669320583;0.0024434609804302454
01:00:0A:00:00:00:00;1723593643;14/08/24;00:00:43;1.014;-0.038;0.084;-0.0024434609804302454;-0.010995574295520782;0.0
01:00:0A:00:00:00:00;1723593644;14/08/24;00:00:44;1.014;-0.038;0.083;-0.006108652334660292;-0.014660765416920185;0.004886921960860491
01:00:0A:00:00:00:00;1723593645;14/08/24;00:00:45;1.015;-0.04;0.084;-0.0036651913542300463;-0.009773843921720982;0.0024434609804302454
01:00:0A:00:00:00:00;1723593646;14/08/24;00:00:46;1.016;-0.039;0.084;-0.0036651913542300463;-0.00855211354792118;0.0012217304902151227
01:00:0A:00:00:00:00;1723593647;14/08/24;00:00:47;1.014;-0.038;0.084;-0.006108652334660292;-0.010995574295520782;0.006108652334660292
01:00:0A:00:00:00:00;1723593648;14/08/24;00:00:48;1.013;-0.04;0.082;-0.0036651913542300463;-0.010995574295520782;0.0024434609804302454
01:00:0A:00:00:00:00;1723593649;14/08/24;00:00:49;1.014;-0.039;0.083;-0.0036651913542300463;-0.010995574295520782;0.0012217304902151227
01:00:0A:00:00:00:00;1723593650;14/08/24;00:00:50;1.014;-0.039;0.083;-0.006108652334660292;-0.013439035043120384;0.004886921960860491
01:00:0A:00:00:00:00;1723593651;14/08/24;00:00:51;1.015;-0.041;0.084;-0.0036651913542300463;-0.009773843921720982;0.0024434609804302454
01:00:0A:00:00:00:00;1723593652;14/08/24;00:00:52;1.014;-0.037;0.085;-0.0036651913542300463;-0.00855211354792118;0.0024434609804302454
01:00:0A:00:00:00:00;1723593653;14/08/24;00:00:53;1.015;-0.04;0.082;-0.006108652334660292;-0.012217304669320583;0.006108652334660292
01:00:0A:00:00:00:00;1723593654;14/08/24;00:00:54;1.014;-0.04;0.082;-0.0036651913542300463;-0.009773843921720982;0.0024434609804302454
01:00:0A:00:00:00:00;1723593655;14/08/24;00:00:55;1.014;-0.038;0.084;-0.0036651913542300463;-0.010995574295520782;0.0012217304902151227
01:00:0A:00:00:00:00;1723593656;14/08/24;00:00:56;1.014;-0.04;0.083;-0.006108652334660292;-0.014660765416920185;0.006108652334660292
01:00:0A:00:00:00:00;1723593657;14/08/24;00:00:57;1.015;-0.04;0.083;-0.0036651913542300463;-0.009773843921720982;0.0012217304902151227
01:00:0A:00:00:00:00;1723593658;14/08/24;00:00:58;1.015;-0.038;0.084;-0.0036651913542300463;-0.009773843921720982;0.0036651913542300463
01:00:0A:00:00:00:00;1723593659;14/08/24;00:00:59;1.015;-0.039;0.082;-0.006108652334660292;-0.012217304669320583;0.006108652334660292
01:00:0A:00:00:00:00;1723593660;14/08/24;00:01:00;1.014;-0.04;0.083;-0.0036651913542300463;-0.009773843921720982;0.0012217304902151227
01:00:0A:00:00:00:00;1723593661;14/08/24;00:01:01;1.014;-0.038;0.084;-0.0036651913542300463;-0.012217304669320583;0.0012217304902151227
01:00:0A:00:00:00:00;1723593662;14/08/24;00:01:02;1.016;-0.04;0.083;-0.006108652334660292;-0.014660765416920185;0.004886921960860491
01:00:0A:00:00:00:00;1723593663;14/08/24;00:01:03;1.014;-0.04;0.083;-0.0036651913542300463;-0.009773843921720982;0.0024434609804302454
01:00:0A:00:00:00:00;1723593664;14/08/24;00:01:04;1.014;-0.037;0.085;-0.0036651913542300463;-0.009773843921720982;0.0036651913542300463
01:00:0A:00:00:00:00;1723593665;14/08/24;00:01:05;1.014;-0.039;0.083;-0.006108652334660292;-0.012217304669320583;0.006108652334660292
01:00:0A:00:00:00:00;1723593666;14/08/24;00:01:06;1.014;-0.039;0.083;-0.0024434609804302454;-0.00855211354792118;0.0012217304902151227
01:00:0A:00:00:00:00;1723593667;14/08/24;00:01:07;1.013;-0.038;0.085;-0.0036651913542300463;-0.010995574295520782;0.0024434609804302454
01:00:0A:00:00:00:00;1723593668;14/08/24;00:01:08;1.014;-0.039;0.083;-0.006108652334660292;-0.014660765416920185;0.004886921960860491
01:00:0A:00:00:00:00;1723593669;14/08/24;00:01:09;1.015;-0.04;0.083;-0.0024434609804302454;-0.00855211354792118;0.0012217304902151227
01:00:0A:00:00:00:00;1723593670;14/08/24;00:01:10;1.015;-0.037;0.085;-0.004886921960860491;-0.010995574295520782;0.0036651913542300463
01:00:0A:00:00:00:00;1723593671;14/08/24;00:01:11;1.014;-0.04;0.083;-0.004886921960860491;-0.012217304669320583;0.006108652334660292
01:00:0A:00:00:00:00;1723593672;14/08/24;00:01:12;1.013;-0.039;0.082;-0.0024434609804302454;-0.009773843921720982;0.0
01:00:0A:00:00:00:00;1723593673;14/08/24;00:01:13;1.013;-0.039;0.085;-0.004886921960860491;-0.013439035043120384;0.0024434609804302454
01:00:0A:00:00:00:00;1723593674;14/08/24;00:01:14;1.014;-0.04;0.082;-0.004886921960860491;-0.013439035043120384;0.004886921960860491
01:00:0A:00:00:00:00;1723593675;14/08/24;00:01:15;1.015;-0.039;0.083;-0.0024434609804302454;-0.00855211354792118;0.0012217304902151227
01:00:0A:00:00:00:00;1723593676;14/08/24;00:01:16;1.014;-0.039;0.085;-0.0036651913542300463;-0.010995574295520782;0.004886921960860491
01:00:0A:00:00:00:00;1723593677;14/08/24;00:01:17;1.014;-0.04;0.081;-0.004886921960860491;-0.013439035043120384;0.004886921960860491
01:00:0A:00:00:00:00;1723593678;14/08/24;00:01:18;1.014;-0.038;0.084;-0.0012217304902151227;-0.00855211354792118;0.0012217304902151227
01:00:0A:00:00:00:00;1723593679;14/08/24;00:01:19;1.015;-0.038;0.085;-0.0036651913542300463;-0.012217304669320583;0.0036651913542300463
01:00:0A:00:00:00:00;1723593680;14/08/24;00:01:20;1.015;-0.04;0.082;-0.0036651913542300463;-0.013439035043120384;0.004886921960860491
01:00:0A:00:00:00:00;1723593681;14/08/24;00:01:21;1.015;-0.039;0.084;-0.0012217304902151227;-0.00855211354792118;0.0012217304902151227
01:00:0A:00:00:00:00;1723593682;14/08/24;00:01:22;1.014;-0.038;0.085;-0.0036651913542300463;-0.012217304669320583;0.006108652334660292
01:00:0A:00:00:00:00;1723593683;14/08/24;00:01:23;1.014;-0.04;0.082;-0.0036651913542300463;-0.012217304669320583;0.004886921960860491
01:00:0A:00:00:00:00;1723593684;14/08/24;00:01:24;1.013;-0.039;0.084;0.0;-0.00855211354792118;0.0
01:00:0A:00:00:00:00;1723593685;14/08/24;00:01:25;1.013;-0.039;0.085;-0.0036651913542300463;-0.013439035043120384;0.0036651913542300463
01:00:0A:00:00:00:00;1723593686;14/08/24;00:01:26;1.014;-0.041;0.081;-0.0024434609804302454;-0.012217304669320583;0.0036651913542300463
01:00:0A:00:00:00:00;1723593687;14/08/24;00:01:27;1.014;-0.04;0.084;0.0;-0.0073303827084600925;0.0024434609804302454
01:00:0A:00:00:00:00;1723593688;14/08/24;00:01:28;1.014;-0.038;0.084;-0.0024434609804302454;-0.012217304669320583;0.004886921960860491
01:00:0A:00:00:00:00;1723593689;14/08/24;00:01:29;1.015;-0.04;0.082;-0.0012217304902151227;-0.012217304669320583;0.004886921960860491
01:00:0A:00:00:00:00;1723593690;14/08/24;00:01:30;1.013;-0.038;0.084;0.0;-0.009773843921720982;0.0012217304902151227
01:00:0A:00:00:00:00;1723593691;14/08/24;00:01:31;1.015;-0.038;0.085;-0.0024434609804302454;-0.013439035043120384;0.004886921960860491
01:00:0A:00:00:00:00;1723593692;14/08/24;00:01:32;1.014;-0.04;0.081;-0.0012217304902151227;-0.012217304669320583;0.0036651913542300463
01:00:0A:00:00:00:00;1723593693;14/08/24;00:01:33;1.015;-0.04;0.083;0.0012217304902151227;-0.00855211354792118;0.0024434609804302454
01:00:0A:00:00:00:00;1723593694;14/08/24;00:01:34;1.013;-0.038;0.085;-0.0024434609804302454;-0.013439035043120384;0.006108652334660292
01:00:0A:00:00:00:00;1723593695;14/08/24;00:01:35;1.014;-0.04;0.082;-0.0012217304902151227;-0.010995574295520782;0.0036651913542300463
01:00:0A:00:00:00:00;1723593696;14/08/24;00:01:36;1.014;-0.039;0.085;0.0012217304902151227;-0.00855211354792118;0.0012217304902151227
01:00:0A:00:00:00:00;1723593697;14/08/24;00:01:37;1.013;-0.038;0.084;-0.0024434609804302454;-0.014660765416920185;0.0036651913542300463
01:00:0A:00:00:00:00;1723593698;14/08/24;00:01:38;1.015;-0.04;0.084;0.0;-0.010995574295520782;0.0024434609804302454
01:00:0A:00:00:00:00;1723593699;14/08/24;00:01:39;1.015;-0.039;0.084;0.0012217304902151227;-0.00855211354792118;0.0024434609804302454
01:00:0A:00:00:00:00;1723593700;14/08/24;00:01:40;1.015;-0.04;0.084;-0.0024434609804302454;-0.013439035043120384;0.006108652334660292
01:00:0A:00:00:00:00;1723593701;14/08/24;00:01:41;1.014;-0.04;0.082;0.0;-0.010995574295520782;0.0036651913542300463
01:00:0A:00:00:00:00;1723593702;14/08/24;00:01:42;1.014;-0.037;0.085;0.0012217304902151227;-0.00855211354792118;0.0024434609804302454
01:00:0A:00:00:00:00;1723593703;14/08/24;00:01:43;1.015;-0.039;0.084;-0.0024434609804302454;-0.014660765416920185;0.0036651913542300463
01:00:0A:00:00:00:00;1723593704;14/08/24;00:01:44;1.014;-0.04;0.082;0.0;-0.010995574295520782;0.0024434609804302454
01:00:0A:00:00:00:00;1723593705;14/08/24;00:01:45;1.014;-0.038;0.085;0.0;-0.009773843921720982;0.0024434609804302454
01:00:0A:00:00:00:00;1723593706;14/08/24;00:01:46;1.014;-0.039;0.083;-0.0024434609804302454;-0.014660765416920185;0.006108652334660292
01:00:0A:00:00:00:00;1723593707;14/08/24;00:01:47;1.014;-0.039;0.083;0.0;-0.009773843921720982;0.0036651913542300463
01:00:0A:00:00:00:00;1723593708;14/08/24;00:01:48;1.013;-0.039;0.085;0.0;-0.00855211354792118;0.0024434609804302454
01:00:0A:00:00:00:00;1723593709;14/08/24;00:01:49;1.014;-0.04;0.083;-0.0024434609804302454;-0.013439035043120384;0.004886921960860491
01:00:0A:00:00:00:00;1723593710;14/08/24;00:01:50;1.014;-0.038;0.081;0.0012217304902151227;-0.006108652334660292;0.0012217304902151227
01:00:0A:00:00:00:00;1723593711;14/08/24;00:01:51;1.017;-0.042;0.078;0.0;-0.02076941914856434;0.0012217304902151227
01:00:0A:00:00:00:00;1723593712;14/08/24;00:01:52;1.016;-0.04;0.081;-0.004886921960860491;-0.039095375686883926;0.00855211354792118
01:00:0A:00:00:00:00;1723593713;14/08/24;00:01:53;1.016;-0.038;0.096;-0.0024434609804302454;-0.021991148591041565;0.0036651913542300463
01:00:0A:00:00:00:00;1723593714;14/08/24;00:01:54;1.014;-0.035;0.102;-0.006108652334660292;0.006108652334660292;0.0036651913542300463
01:00:0A:00:00:00:00;1723593715;14/08/24;00:01:55;1.01;-0.038;0.093;-0.01710422709584236;0.024434609338641167;0.021991148591041565
01:00:0A:00:00:00:00;1723593716;14/08/24;00:01:56;1.009;-0.032;0.075;-0.01710422709584236;0.00855211354792118;0.0036651913542300463
01:00:0A:00:00:00:00;1723593717;14/08/24;00:01:57;1.017;-0.03;0.075;-0.015882495790719986;-0.012217304669320583;-0.02321287989616394
01:00:0A:00:00:00:00;1723593718;14/08/24;00:01:58;1.025;-0.049;0.083;-0.025656338781118393;-0.040317103266716;-0.012217304669320583
01:00:0A:00:00:00:00;1723593719;14/08/24;00:01:59;1.016;-0.056;0.078;-0.018325956538319588;-0.030543262138962746;0.004886921960860491
01:00:0A:00:00:00:00;1723593720;14/08/24;00:02:00;1.005;-0.054;0.092;-0.009773843921720982;-0.004886921960860491;0.028099799528717995
01:00:0A:00:00:00:00;1723593721;14/08/24;00:02:01;1.005;-0.041;0.092;-0.015882495790719986;-0.02932153083384037;0.02687807008624077
01:00:0A:00:00:00:00;1723593722;14/08/24;00:02:02;1.014;-0.023;0.082;-0.006108652334660292;0.0;0.00855211354792118
01:00:0A:00:00:00:00;1723593723;14/08/24;00:02:03;1.016;-0.014;0.095;-0.015882495790719986;0.0024434609804302454;-0.0036651913542300463
01:00:0A:00:00:00:00;1723593724;14/08/24;00:02:04;1.007;-0.04;0.081;-0.021991148591041565;-0.0073303827084600925;-0.010995574295520782
01:00:0A:00:00:00:00;1723593725;14/08/24;00:02:05;0.997;-0.044;0.087;-0.0024434609804302454;0.040317103266716;-0.04153883829712868
01:00:0A:00:00:00:00;1723593726;14/08/24;00:02:06;0.999;-0.037;0.108;-0.04886921867728233;-0.028099799528717995;0.0012217304902151227
01:00:0A:00:00:00:00;1723593727;14/08/24;00:02:07;1.024;-0.049;0.091;-0.07208210229873657;-0.051312677562236786;0.028099799528717995
01:00:0A:00:00:00:00;1723593728;14/08/24;00:02:08;1.041;-0.05;0.065;-0.010995574295520782;-0.04398229718208313;0.0012217304902151227
01:00:0A:00:00:00:00;1723593729;14/08/24;00:02:09;1.036;-0.015;0.114;0.014660765416920185;0.03787364438176155;0.018325956538319588
01:00:0A:00:00:00:00;1723593730;14/08/24;00:02:10;1.016;-0.042;0.114;0.009773843921720982;-0.06108652427792549;-0.004886921960860491
01:00:0A:00:00:00:00;1723593731;14/08/24;00:02:11;0.983;-0.009;0.058;0.05742133408784866;-0.0036651913542300463;-0.04764748737215996
01:00:0A:00:00:00:00;1723593732;14/08/24;00:02:12;0.975;-0.039;0.094;0.12095131725072861;0.09773843735456467;0.06963863223791122
01:00:0A:00:00:00:00;1723593733;14/08/24;00:02:13;1.011;0.017;0.115;0.35063666105270386;-0.080634206533432;0.025656338781118393
01:00:0A:00:00:00:00;1723593734;14/08/24;00:02:14;1.031;0.0;0.133;0.1820378452539444;0.04398229718208313;0.14782939851284027
01:00:0A:00:00:00:00;1723593735;14/08/24;00:02:15;1.044;-0.087;0.065;0.18325956165790558;-0.11972958594560623;0.05619959905743599
01:00:0A:00:00:00:00;1723593736;14/08/24;00:02:16;1.016;0.016;-0.016;0.313984751701355;-0.05742133408784866;-0.015882495790719986
01:00:0A:00:00:00:00;1723593737;14/08/24;00:02:17;0.989;-0.058;0.135;0.36529743671417236;0.12095131725072861;0.1576032191514969
01:00:0A:00:00:00:00;1723593738;14/08/24;00:02:18;0.99;-0.026;0.037;0.3787364363670349;-0.26511549949645996;-0.10384709388017654
01:00:0A:00:00:00:00;1723593739;14/08/24;00:02:19;1.006;0.015;-0.006;0.5510004162788391;0.2076941877603531;-0.08918632566928864
01:00:0A:00:00:00:00;1723593740;14/08/24;00:02:20;1.011;-0.145;0.154;0.8429940342903137;-0.3090977966785431;0.1576032191514969
01:00:0A:00:00:00:00;1723593741;14/08/24;00:02:21;1.028;-0.16;-0.034;1.1068878173828125;-0.021991148591041565;-0.040317103266716
01:00:0A:00:00:00:00;1723593742;14/08/24;00:02:22;1.003;0.173;0.109;0.9834930300712585;0.09773843735456467;-0.10262535512447357
01:00:0A:00:00:00:00;1723593743;14/08/24;00:02:23;0.994;-0.037;0.198;0.5839871764183044;0.15027284622192383;0.4202752709388733
01:00:0A:00:00:00:00;1723593744;14/08/24;00:02:24;0.994;-0.051;0.125;0.46547931432724;-0.3066543638706207;-0.08185594528913498
01:00:0A:00:00:00:00;1723593745;14/08/24;00:02:25;1.019;0.01;-0.025;0.4911356568336487;0.045204028487205505;-0.024434609338641167
01:00:0A:00:00:00:00;1723593746;14/08/24;00:02:26;1.031;-0.008;0.151;0.4043927788734436;0.07696902006864548;0.03176499158143997
01:00:0A:00:00:00:00;1723593747;14/08/24;00:02:27;1.014;-0.131;0.02;0.3090977966785431;-0.14049901068210602;0.17348572611808777
01:00:0A:00:00:00:00;1723593748;14/08/24;00:02:28;0.99;-0.003;0.081;0.41661006212234497;0.10751228034496307;-0.12461651116609573
01:00:0A:00:00:00:00;1723593749;14/08/24;00:02:29;0.958;-0.123;0.124;0.3335324227809906;-0.12339477241039276;0.313984751701355
01:00:0A:00:00:00:00;1723593750;14/08/24;00:02:30;0.963;-0.205;-0.007;0.645073652267456;-0.39217546582221985;-0.4483751058578491
01:00:0A:00:00:00:00;1723593751;14/08/24;00:02:31;1.012;-0.09;-0.183;1.0225883722305298;0.3640756905078888;-0.20647244155406952
01:00:0A:00:00:00:00;1723593752;14/08/24;00:02:32;1.032;0.169;0.236;0.8234463334083557;0.09162978082895279;0.10873401165008545
01:00:0A:00:00:00:00;1723593753;14/08/24;00:02:33;1.012;-0.395;0.066;0.7990117073059082;-0.11484266817569733;0.3543018400669098
01:00:0A:00:00:00:00;1723593754;14/08/24;00:02:34;1.025;0.06;-0.064;0.9553932547569275;-0.3017674386501312;-0.37262779474258423
01:00:0A:00:00:00:00;1723593755;14/08/24;00:02:35;0.974;-0.015;0.159;0.8735373020172119;0.44226640462875366;0.09896016865968704
01:00:0A:00:00:00:00;1723593756;14/08/24;00:02:36;0.965;-0.071;0.009;0.5949827432632446;-0.4202752709388733;0.3237585723400116
01:00:0A:00:00:00:00;1723593757;14/08/24;00:02:37;0.982;-0.104;0.059;0.8234463334083557;0.1014036238193512;-0.5009095072746277
01:00:0A:00:00:00:00;1723593758;14/08/24;00:02:38;1.006;0.08;0.011;0.533896267414093;-0.013439035043120384;0.4715879559516907
01:00:0A:00:00:00:00;1723593759;14/08/24;00:02:39;0.984;-0.192;0.184;0.5754350423812866;-0.07696902006864548;0.04886921867728233
01:00:0A:00:00:00:00;1723593760;14/08/24;00:02:40;1.017;-0.076;0.036;0.5436700582504272;-0.3078760802745819;-0.18325956165790558
01:00:0A:00:00:00:00;1723593761;14/08/24;00:02:41;1.009;0.009;0.06;0.5473352670669556;0.07452555745840073;-0.025656338781118393
01:00:0A:00:00:00:00;1723593762;14/08/24;00:02:42;0.998;0.019;0.096;0.3543018400669098;-0.2382374405860901;0.23945917189121246
01:00:0A:00:00:00:00;1723593763;14/08/24;00:02:43;1.026;-0.139;-0.051;0.5253441333770752;-0.2577851116657257;-0.1576032191514969
01:00:0A:00:00:00:00;1723593764;14/08/24;00:02:44;1.019;-0.211;-0.154;1.0054842233657837;-0.14294245839118958;-0.39584067463874817
01:00:0A:00:00:00:00;1723593765;14/08/24;00:02:45;1.03;0.021;-0.231;1.2705997228622437;-0.03298672288656235;-0.21991148591041565
01:00:0A:00:00:00:00;1723593766;14/08/24;00:02:46;1.016;0.04;0.233;1.2327260971069336;0.20036379992961884;-0.0354301817715168
01:00:0A:00:00:00:00;1723593767;14/08/24;00:02:47;0.99;-0.069;0.028;0.9712756872177124;-0.2626720666885376;0.18570303916931152
01:00:0A:00:00:00:00;1723593768;14/08/24;00:02:48;0.959;-0.059;0.051;1.0702358484268188;-0.24068090319633484;-0.2638937830924988
01:00:0A:00:00:00:00;1723593769;14/08/24;00:02:49;1.01;0.008;-0.036;0.9639453291893005;0.15027284622192383;0.10506881773471832
01:00:0A:00:00:00:00;1723593770;14/08/24;00:02:50;1.044;-0.169;0.21;0.8063421249389648;-0.3481931686401367;0.19058994948863983
01:00:0A:00:00:00:00;1723593771;14/08/24;00:02:51;1.053;-0.248;0.047;0.8442157506942749;-0.2370157092809677;0.1270599663257599
01:00:0A:00:00:00:00;1723593772;14/08/24;00:02:52;1.029;-0.088;0.137;0.9248499870300293;-0.09529497474431992;0.07696902006864548
01:00:0A:00:00:00:00;1723593773;14/08/24;00:02:53;0.97;-0.104;-0.077;0.9773843884468079;-0.33719760179519653;0.028099799528717995
01:00:0A:00:00:00:00;1723593774;14/08/24;00:02:54;0.939;0.058;0.039;1.1447614431381226;-0.019547687843441963;-0.5571090579032898
01:00:0A:00:00:00:00;1723593775;14/08/24;00:02:55;0.963;-0.065;0.108;0.8784241676330566;0.33597588539123535;0.5778785347938538
01:00:0A:00:00:00:00;1723593776;14/08/24;00:02:56;0.984;-0.071;0.15;0.7305948734283447;-0.8503243923187256;-0.39095374941825867
01:00:0A:00:00:00:00;1723593777;14/08/24;00:02:57;0.953;-0.122;-0.284;1.016479730606079;0.2675589621067047;0.015882495790719986
01:00:0A:00:00:00:00;1723593778;14/08/24;00:02:58;1.02;0.1;0.151;1.1044443845748901;0.03787364438176155;-0.38117989897727966
01:00:0A:00:00:00:00;1723593779;14/08/24;00:02:59;1.021;0.022;0.001;0.7929030656814575;-0.07208210229873657;0.4862487316131592
01:00:0A:00:00:00:00;1723593780;14/08/24;00:03:00;0.972;-0.103;0.12;0.978606104850769;-0.08796459436416626;-0.3176499307155609
01:00:0A:00:00:00:00;1723593781;14/08/24;00:03:01;0.959;0.077;-0.097;0.8796459436416626;-0.49724429845809937;0.025656338781118393
01:00:0A:00:00:00:00;1723593782;14/08/24;00:03:02;0.962;0.198;-0.077;1.2302825450897217;0.7965682148933411;-0.7367035150527954
01:00:0A:00:00:00:00;1723593783;14/08/24;00:03:03;0.942;0.292;0.087;0.7513642311096191;0.3298672139644623;0.49235740303993225
01:00:0A:00:00:00:00;1723593784;14/08/24;00:03:04;1.008;-0.12;0.082;0.6035348773002625;-0.14905111491680145;0.4801400899887085
01:00:0A:00:00:00:00;1723593785;14/08/24;00:03:05;1.035;-0.03;0.128;0.7122688889503479;-0.039095375686883926;-0.05375614017248154
01:00:0A:00:00:00:00;1723593786;14/08/24;00:03:06;1.017;0.048;0.125;0.47280970215797424;-0.3323107063770294;0.2895500957965851
01:00:0A:00:00:00:00;1723593787;14/08/24;00:03:07;0.954;-0.327;-0.086;0.7660250067710876;-0.5827654600143433;-0.09896016865968704
01:00:0A:00:00:00:00;1723593788;14/08/24;00:03:08;0.965;0.081;-0.286;1.274264931678772;-0.3152064383029938;-0.9272934198379517
01:00:0A:00:00:00:00;1723593789;14/08/24;00:03:09;0.945;-0.026;-0.394;1.6945401430130005;0.024434609338641167;-0.5534439086914062
01:00:0A:00:00:00:00;1723593790;14/08/24;00:03:10;0.978;0.079;-0.291;1.9889771938323975;0.19547687470912933;-0.7379252314567566
01:00:0A:00:00:00:00;1723593791;14/08/24;00:03:11;0.985;-0.12;-0.202;2.0512855052948;0.1160643920302391;-0.29077184200286865
01:00:0A:00:00:00:00;1723593792;14/08/24;00:03:12;1.003;-0.209;0.036;2.1514673233032227;-0.2076941877603531;-0.15393804013729095
01:00:0A:00:00:00:00;1723593793;14/08/24;00:03:13;1.005;-0.144;0.176;2.026850938796997;-0.37140607833862305;0.16249015927314758
01:00:0A:00:00:00:00;1723593794;14/08/24;00:03:14;0.957;-0.239;0.24;1.890017032623291;-0.6817255616188049;0.5436700582504272
01:00:0A:00:00:00:00;1723593795;14/08/24;00:03:15;0.874;-0.42;0.28;1.6982053518295288;-0.6108652353286743;0.875980794429779
01:00:0A:00:00:00:00;1723593796;14/08/24;00:03:16;0.838;-0.433;0.371;1.4196507930755615;-0.7318165302276611;0.8808676600456238
01:00:0A:00:00:00:00;1723593797;14/08/24;00:03:17;0.882;-0.517;0.141;1.3316861391067505;-0.9456194043159485;0.40072759985923767
01:00:0A:00:00:00:00;1723593798;14/08/24;00:03:18;0.985;-0.259;-0.214;1.7763961553573608;-1.0714576244354248;-0.6707300543785095
01:00:0A:00:00:00:00;1723593799;14/08/24;00:03:19;1.028;0.085;-0.196;2.1172587871551514;-0.1576032191514969;-0.6108652353286743
01:00:0A:00:00:00:00;1723593800;14/08/24;00:03:20;0.98;0.359;-0.115;1.969429612159729;0.16493360698223114;-0.16371189057826996
01:00:0A:00:00:00:00;1723593801;14/08/24;00:03:21;0.974;-0.145;0.325;1.832595705986023;0.3530800938606262;0.7757988572120667
01:00:0A:00:00:00:00;1723593802;14/08/24;00:03:22;0.979;-0.272;0.243;1.3756684064865112;-0.5827654600143433;0.8344419002532959
01:00:0A:00:00:00:00;1723593803;14/08/24;00:03:23;0.846;-0.521;0.006;1.6798794269561768;-0.8881980776786804;0.6719517707824707
01:00:0A:00:00:00:00;1723593804;14/08/24;00:03:24;0.897;-0.48;0.136;2.0818285942077637;-1.204626202583313;0.11972958594560623
01:00:0A:00:00:00:00;1723593805;14/08/24;00:03:25;0.628;-0.066;-0.7;2.083050489425659;-0.7696901559829712;-2.0622808933258057
01:00:0A:00:00:00:00;1723593806;14/08/24;00:03:26;0.913;-0.022;-0.527;2.8258626461029053;0.45326200127601624;-1.7666223049163818
01:00:0A:00:00:00:00;1723593807;14/08/24;00:03:27;0.866;0.089;-0.4;2.8735101222991943;1.0335839986801147;-0.7855727076530457
01:00:0A:00:00:00:00;1723593808;14/08/24;00:03:28;0.925;0.355;0.294;2.291966199874878;1.1606439352035522;0.18325956165790558
01:00:0A:00:00:00:00;1723593809;14/08/24;00:03:29;0.914;-0.048;0.338;1.6591099500656128;-0.6108652353286743;1.527163028717041
01:00:0A:00:00:00:00;1723593810;14/08/24;00:03:30;0.826;-0.146;0.462;1.3720033168792725;-0.6084217429161072;0.5082398653030396
01:00:0A:00:00:00:00;1723593811;14/08/24;00:03:31;0.776;-0.606;-0.188;1.832595705986023;-1.5980234146118164;-0.4398229718208313
01:00:0A:00:00:00:00;1723593812;14/08/24;00:03:32;0.964;-0.093;-0.077;2.8661797046661377;0.2125810980796814;-1.569923758506775
01:00:0A:00:00:00:00;1723593813;14/08/24;00:03:33;1.02;-0.007;-0.062;2.00730299949646;-0.7086036801338196;-0.5839871764183044
01:00:0A:00:00:00:00;1723593814;14/08/24;00:03:34;1.018;0.046;-0.116;1.6077972650527954;0.18325956165790558;0.013439035043120384
01:00:0A:00:00:00:00;1723593815;14/08/24;00:03:35;0.966;0.09;0.044;1.6591099500656128;-0.3274237811565399;0.09896016865968704
01:00:0A:00:00:00:00;1723593816;14/08/24;00:03:36;0.965;-0.252;0.051;1.643227458000183;0.03787364438176155;0.21135938167572021
01:00:0A:00:00:00:00;1723593817;14/08/24;00:03:37;0.971;-0.317;-0.059;2.2589797973632812;-0.4605923891067505;-0.19914205372333527
01:00:0A:00:00:00:00;1723593818;14/08/24;00:03:38;0.999;0.094;0.098;2.3298401832580566;0.8026769161224365;-0.15027284622192383
01:00:0A:00:00:00:00;1723593819;14/08/24;00:03:39;1.057;0.197;0.043;3.629761219024658;0.9272934198379517;0.2736676335334778
01:00:0A:00:00:00:00;1723593820;14/08/24;00:03:40;0.933;0.543;-0.055;2.3689353466033936;0.7452555894851685;0.13072516024112701
01:00:0A:00:00:00:00;1723593821;14/08/24;00:03:41;1.017;0.289;0.154;1.6407840251922607;0.76846843957901;0.21013763546943665
01:00:0A:00:00:00:00;1723593822;14/08/24;00:03:42;0.993;0.307;0.165;1.0115928649902344;0.7330382466316223;0.028099799528717995
01:00:0A:00:00:00:00;1723593823;14/08/24;00:03:43;0.922;0.105;0.469;0.3604104816913605;0.8747590184211731;0.5803219676017761
01:00:0A:00:00:00:00;1723593824;14/08/24;00:03:44;0.966;-0.36;-0.04;0.27122414112091064;-0.8930849432945251;0.5290092825889587
01:00:0A:00:00:00:00;1723593825;14/08/24;00:03:45;0.849;-0.339;-0.477;1.3280210494995117;-0.5937609672546387;-0.9993755221366882
01:00:0A:00:00:00:00;1723593826;14/08/24;00:03:46;0.898;-0.115;-0.325;2.1233675479888916;0.4288274049758911;-1.751961588859558
01:00:0A:00:00:00:00;1723593827;14/08/24;00:03:47;0.948;-0.054;-0.218;2.3127357959747314;0.03787364438176155;-0.6743952035903931
01:00:0A:00:00:00:00;1723593828;14/08/24;00:03:48;0.932;-0.389;-0.008;2.5973989963531494;-0.911410927772522;-0.0024434609804302454
01:00:0A:00:00:00:00;1723593829;14/08/24;00:03:49;0.94;-0.279;0.444;2.593733787536621;-0.08307767659425735;0.7574728727340698
01:00:0A:00:00:00:00;1723593830;14/08/24;00:03:50;0.951;0.031;0.399;1.794722080230713;0.2015855312347412;0.5229006409645081
01:00:0A:00:00:00:00;1723593831;14/08/24;00:03:51;0.91;-0.116;0.422;1.0983357429504395;0.34086278080940247;0.8698720932006836
01:00:0A:00:00:00:00;1723593832;14/08/24;00:03:52;0.938;-0.275;0.257;0.9162978529930115;-0.7232644557952881;0.37751471996307373
01:00:0A:00:00:00:00;1723593833;14/08/24;00:03:53;1.009;-0.144;-0.054;1.2791517972946167;-0.39828410744667053;-0.30543261766433716
01:00:0A:00:00:00:00;1723593834;14/08/24;00:03:54;1.047;0.066;-0.074;1.4074335098266602;0.02687807008624077;-0.20036379992961884
01:00:0A:00:00:00:00;1723593835;14/08/24;00:03:55;1.028;0.068;0.162;1.2376129627227783;0.3042108714580536;0.09162978082895279
01:00:0A:00:00:00:00;1723593836;14/08/24;00:03:56;0.996;-0.276;0.048;1.0396926403045654;-0.20036379992961884;0.5216788649559021
01:00:0A:00:00:00:00;1723593837;14/08/24;00:03:57;0.98;0.037;-0.006;1.2278391122817993;-0.3127630054950714;-0.35063666105270386
01:00:0A:00:00:00:00;1723593838;14/08/24;00:03:58;0.946;0.148;0.114;1.0800098180770874;0.48258352279663086;-0.09162978082895279
01:00:0A:00:00:00:00;1723593839;14/08/24;00:03:59;0.933;0.037;0.039;0.5827654600143433;-0.46181410551071167;0.6646214127540588
01:00:0A:00:00:00:00;1723593840;14/08/24;00:04:00;0.983;-0.095;0.0;0.9358454942703247;-0.09040805697441101;-0.5070181488990784
01:00:0A:00:00:00:00;1723593841;14/08/24;00:04:01;1.036;0.116;-0.007;0.807563841342926;0.09285151958465576;0.3078760802745819
01:00:0A:00:00:00:00;1723593842;14/08/24;00:04:02;1.005;-0.187;0.317;0.8051203489303589;0.06963863223791122;0.2993239760398865
01:00:0A:00:00:00:00;1723593843;14/08/24;00:04:03;1.023;0.076;-0.193;0.7318165302276611;-0.41783180832862854;-0.14782939851284027
01:00:0A:00:00:00:00;1723593844;14/08/24;00:04:04;0.925;-0.066;0.333;0.7354817390441895;0.797789990901947;0.38606682419776917
01:00:0A:00:00:00:00;1723593845;14/08/24;00:04:05;0.971;0.069;0.085;0.35063666105270386;-0.6768386960029602;-0.0708603635430336
01:00:0A:00:00:00:00;1723593846;14/08/24;00:04:06;0.955;0.016;0.08;0.3579670488834381;0.32498031854629517;0.09040805697441101
01:00:0A:00:00:00:00;1723593847;14/08/24;00:04:07;0.981;-0.008;0.11;0.32498031854629517;-0.3995058536529541;-0.24923302233219147
01:00:0A:00:00:00:00;1723593848;14/08/24;00:04:08;1.037;-0.012;-0.104;0.43249258399009705;0.20525071024894714;-0.02321287989616394
01:00:0A:00:00:00:00;1723593849;14/08/24;00:04:09;1.011;-0.106;0.288;0.4312708377838135;0.19914205372333527;0.11850785464048386
01:00:0A:00:00:00:00;1723593850;14/08/24;00:04:10;1.0;-0.123;-0.102;0.4105014204978943;-0.4056144952774048;0.06719517707824707
01:00:0A:00:00:00:00;1723593851;14/08/24;00:04:11;0.933;0.002;0.156;0.6780604124069214;0.685390830039978;-0.21868975460529327
01:00:0A:00:00:00:00;1723593852;14/08/24;00:04:12;0.932;-0.094;0.067;0.2076941877603531;-0.6927211880683899;0.4312708377838135
01:00:0A:00:00:00:00;1723593853;14/08/24;00:04:13;0.955;-0.104;0.025;0.7367035150527954;0.6206390857696533;-0.6316346526145935
01:00:0A:00:00:00:00;1723593854;14/08/24;00:04:14;0.943;0.098;0.18;0.10873401165008545;-0.5448917746543884;0.8271114826202393
01:00:0A:00:00:00:00;1723593855;14/08/24;00:04:15;0.985;-0.201;-0.113;0.5473352670669556;0.11484266817569733;-0.3347541391849518
01:00:0A:00:00:00:00;1723593856;14/08/24;00:04:16;1.014;0.14;0.088;0.4960225820541382;-0.04642575979232788;0.2174680233001709
01:00:0A:00:00:00:00;1723593857;14/08/24;00:04:17;1.044;-0.12;0.037;0.4642575681209564;-0.2125810980796814;0.24068090319633484
01:00:0A:00:00:00:00;1723593858;14/08/24;00:04:18;1.038;-0.154;0.084;0.6841690540313721;-0.16493360698223114;-0.06230825558304787
01:00:0A:00:00:00:00;1723593859;14/08/24;00:04:19;1.033;0.098;0.01;0.656069278717041;-0.1014036238193512;0.014660765416920185
01:00:0A:00:00:00:00;1723593860;14/08/24;00:04:20;1.016;-0.058;0.166;0.616973876953125;0.16859880089759827;0.24068090319633484
01:00:0A:00:00:00:00;1723593861;14/08/24;00:04:21;1.018;0.0;0.129;0.5375614166259766;-0.2028072476387024;-0.02687807008624077
01:00:0A:00:00:00:00;1723593862;14/08/24;00:04:22;1.003;-0.023;0.01;0.5375614166259766;-0.10873401165008545;0.015882495790719986
01:00:0A:00:00:00:00;1723593863;14/08/24;00:04:23;0.983;0.002;0.165;0.5546656250953674;0.11239919811487198;-0.06230825558304787
01:00:0A:00:00:00:00;1723593864;14/08/24;00:04:24;0.98;-0.011;0.137;0.3689626157283783;-0.22602014243602753;0.10995574295520782
01:00:0A:00:00:00:00;1723593865;14/08/24;00:04:25;0.986;-0.061;0.098;0.49724429845809937;0.07819075137376785;-0.1563815027475357
01:00:0A:00:00:00:00;1723593866;14/08/24;00:04:26;1.009;0.02;0.165;0.4043927788734436;-0.006108652334660292;-0.07330382615327835
01:00:0A:00:00:00:00;1723593867;14/08/24;00:04:27;1.037;-0.069;0.096;0.2993239760398865;0.0;0.08429940044879913
01:00:0A:00:00:00:00;1723593868;14/08/24;00:04:28;1.035;-0.11;0.117;0.3530800938606262;0.03787364438176155;-0.05009094998240471
01:00:0A:00:00:00:00;1723593869;14/08/24;00:04:29;1.034;0.013;0.094;0.2736676335334778;0.03420845419168472;0.03787364438176155
01:00:0A:00:00:00:00;1723593870;14/08/24;00:04:30;1.02;-0.079;0.072;0.1918116807937622;0.02321287989616394;0.22357667982578278
01:00:0A:00:00:00:00;1723593871;14/08/24;00:04:31;0.986;-0.007;0.069;0.24434609711170197;-0.030543262138962746;-0.039095375686883926
01:00:0A:00:00:00:00;1723593872;14/08/24;00:04:32;0.967;0.014;0.043;0.1673770695924759;-0.06475171446800232;0.13072516024112701
01:00:0A:00:00:00:00;1723593873;14/08/24;00:04:33;0.99;-0.036;0.056;0.22113320231437683;-0.03787364438176155;-0.0354301817715168
01:00:0A:00:00:00:00;1723593874;14/08/24;00:04:34;1.016;-0.01;0.081;0.2272418737411499;-0.12339477241039276;-0.0354301817715168
01:00:0A:00:00:00:00;1723593875;14/08/24;00:04:35;1.061;-0.028;0.052;0.2382374405860901;0.0073303827084600925;0.04153883829712868
01:00:0A:00:00:00:00;1723593876;14/08/24;00:04:36;1.063;-0.066;0.152;0.2431243658065796;0.0354301817715168;0.06719517707824707
01:00:0A:00:00:00:00;1723593877;14/08/24;00:04:37;1.057;0.005;-0.006;0.2382374405860901;-0.09651670604944229;0.040317103266716
01:00:0A:00:00:00:00;1723593878;14/08/24;00:04:38;0.982;-0.01;0.132;0.24678954482078552;0.21380282938480377;0.06475171446800232
01:00:0A:00:00:00:00;1723593879;14/08/24;00:04:39;0.946;0.0;-0.017;0.16371189057826996;-0.39828410744667053;-0.01710422709584236
01:00:0A:00:00:00:00;1723593880;14/08/24;00:04:40;0.94;0.0;0.102;0.3176499307155609;0.41783180832862854;-0.10751228034496307
01:00:0A:00:00:00:00;1723593881;14/08/24;00:04:41;0.952;-0.019;0.148;-0.030543262138962746;-0.8124507665634155;0.10995574295520782
01:00:0A:00:00:00:00;1723593882;14/08/24;00:04:42;0.998;-0.104;-0.122;0.40194931626319885;0.7195992469787598;-0.2736676335334778
01:00:0A:00:00:00:00;1723593883;14/08/24;00:04:43;0.949;0.108;0.403;-0.080634206533432;-0.5461135506629944;0.3335324227809906
01:00:0A:00:00:00:00;1723593884;14/08/24;00:04:44;1.037;-0.199;-0.208;0.08185594528913498;0.045204028487205505;-0.03787364438176155
01:00:0A:00:00:00:00;1723593885;14/08/24;00:04:45;1.023;0.126;0.261;0.1576032191514969;0.3604104816913605;-0.09529497474431992
01:00:0A:00:00:00:00;1723593886;14/08/24;00:04:46;0.988;-0.147;-0.145;0.797789990901947;0.05375614017248154;0.11972958594560623
01:00:0A:00:00:00:00;1723593887;14/08/24;00:04:47;0.962;0.124;0.124;0.7892378568649292;0.028099799528717995;-0.34697145223617554
01:00:0A:00:00:00:00;1723593888;14/08/24;00:04:48;0.985;-0.002;0.043;0.2993239760398865;-0.004886921960860491;0.750142514705658
01:00:0A:00:00:00:00;1723593889;14/08/24;00:04:49;1.001;-0.141;0.18;0.19058994948863983;-0.12461651116609573;-0.5839871764183044
01:00:0A:00:00:00:00;1723593890;14/08/24;00:04:50;0.997;0.289;0.046;-0.10262535512447357;-0.11728612333536148;0.19792033731937408
01:00:0A:00:00:00:00;1723593891;14/08/24;00:04:51;1.014;-0.303;0.019;-0.02932153083384037;-0.018325956538319588;0.3604104816913605
01:00:0A:00:00:00:00;1723593892;14/08/24;00:04:52;0.995;0.027;0.161;0.2883284091949463;0.2223549485206604;-0.4813618063926697
01:00:0A:00:00:00:00;1723593893;14/08/24;00:04:53;0.962;-0.037;0.031;-0.012217304669320583;-0.17837265133857727;0.34086278080940247
01:00:0A:00:00:00:00;1723593894;14/08/24;00:04:54;0.948;-0.104;0.051;0.2724458873271942;0.3152064383029938;-0.24923302233219147
01:00:0A:00:00:00:00;1723593895;14/08/24;00:04:55;0.988;-0.017;0.124;0.03176499158143997;-0.4740314185619354;0.15271630883216858
01:00:0A:00:00:00:00;1723593896;14/08/24;00:04:56;1.052;-0.12;-0.132;0.3188716471195221;0.3933972120285034;-0.06475171446800232
01:00:0A:00:00:00:00;1723593897;14/08/24;00:04:57;0.982;0.103;0.448;0.0;-0.36163222789764404;0.2431243658065796
01:00:0A:00:00:00:00;1723593898;14/08/24;00:04:58;1.019;-0.132;-0.343;0.1417207270860672;-0.27000245451927185;0.0024434609804302454
01:00:0A:00:00:00:00;1723593899;14/08/24;00:04:59;0.998;0.122;0.38;0.27977627515792847;0.38240164518356323;-0.08429940044879913
01:00:0A:00:00:00:00;1723593900;14/08/24;00:05:00;1.011;-0.099;0.042;-0.0073303827084600925;-0.4691444933414459;0.19792033731937408
01:00:0A:00:00:00:00;1723593901;14/08/24;00:05:01;0.975;-0.04;0.016;0.34574973583221436;0.26633724570274353;-0.23579397797584534
01:00:0A:00:00:00:00;1723593902;14/08/24;00:05:02;0.981;-0.001;0.179;0.18936821818351746;0.03298672288656235;0.13316862285137177
01:00:0A:00:00:00:00;1723593903;14/08/24;00:05:03;1.028;-0.142;0.108;0.14782939851284027;-0.17104226350784302;0.028099799528717995
01:00:0A:00:00:00:00;1723593904;14/08/24;00:05:04;1.046;-0.023;0.006;0.27611109614372253;0.08918632566928864;-0.04153883829712868
01:00:0A:00:00:00:00;1723593905;14/08/24;00:05:05;1.002;-0.007;0.186;0.20525071024894714;0.20891590416431427;0.11972958594560623
01:00:0A:00:00:00:00;1723593906;14/08/24;00:05:06;0.983;-0.072;0.035;0.12217304855585098;-0.25534167885780334;0.0757472887635231
01:00:0A:00:00:00:00;1723593907;14/08/24;00:05:07;0.979;-0.025;0.035;0.32131510972976685;0.19914205372333527;-0.15393804013729095
01:00:0A:00:00:00:00;1723593908;14/08/24;00:05:08;0.995;0.008;0.143;0.12950342893600464;-0.1820378452539444;0.2015855312347412
01:00:0A:00:00:00:00;1723593909;14/08/24;00:05:09;1.052;-0.149;0.027;0.25534167885780334;-0.013439035043120384;-0.09407324343919754
01:00:0A:00:00:00:00;1723593910;14/08/24;00:05:10;1.065;0.116;0.119;0.21868975460529327;0.09285151958465576;0.012217304669320583
01:00:0A:00:00:00:00;1723593911;14/08/24;00:05:11;1.045;-0.203;0.074;0.1820378452539444;-0.004886921960860491;0.29688048362731934
01:00:0A:00:00:00:00;1723593912;14/08/24;00:05:12;0.985;0.128;0.043;0.29688048362731934;-0.030543262138962746;-0.3799581527709961
01:00:0A:00:00:00:00;1723593913;14/08/24;00:05:13;0.957;-0.111;0.084;0.08918632566928864;0.03420845419168472;0.5583308339118958
01:00:0A:00:00:00:00;1723593914;14/08/24;00:05:14;0.96;-0.053;0.089;0.35552355647087097;-0.22113320231437683;-0.533896267414093
01:00:0A:00:00:00:00;1723593915;14/08/24;00:05:15;0.982;0.081;0.041;0.1576032191514969;0.16249015927314758;0.3933972120285034
01:00:0A:00:00:00:00;1723593916;14/08/24;00:05:16;1.01;-0.185;0.179;0.2370157092809677;-0.11728612333536148;-0.1160643920302391
01:00:0A:00:00:00:00;1723593917;14/08/24;00:05:17;1.053;0.053;0.024;0.2577851116657257;-0.013439035043120384;-0.09773843735456467
01:00:0A:00:00:00:00;1723593918;14/08/24;00:05:18;1.041;-0.052;0.103;0.19792033731937408;0.1270599663257599;0.18570303916931152
01:00:0A:00:00:00:00;1723593919;14/08/24;00:05:19;0.982;-0.071;0.088;0.19547687470912933;-0.05619959905743599;0.08796459436416626
01:00:0A:00:00:00:00;1723593920;14/08/24;00:05:20;0.953;-0.005;0.043;0.23579397797584534;-0.04886921867728233;-0.030543262138962746
01:00:0A:00:00:00:00;1723593921;14/08/24;00:05:21;0.975;-0.017;0.078;0.21868975460529327;0.06963863223791122;0.1319468915462494
01:00:0A:00:00:00:00;1723593922;14/08/24;00:05:22;1.004;-0.073;0.114;0.2272418737411499;-0.3274237811565399;-0.17470745742321014
01:00:0A:00:00:00:00;1723593923;14/08/24;00:05:23;1.071;0.035;-0.058;0.2528982162475586;0.2590068578720093;0.19425514340400696
01:00:0A:00:00:00:00;1723593924;14/08/24;00:05:24;1.009;-0.155;0.414;0.13927726447582245;-0.32498031854629517;0.019547687843441963
01:00:0A:00:00:00:00;1723593925;14/08/24;00:05:25;1.017;0.127;-0.38;0.23457224667072296;-0.1111774742603302;-0.013439035043120384
01:00:0A:00:00:00:00;1723593926;14/08/24;00:05:26;0.967;-0.061;0.514;0.21868975460529327;0.3689626157283783;0.14782939851284027
01:00:0A:00:00:00:00;1723593927;14/08/24;00:05:27;1.037;-0.049;-0.091;0.07208210229873657;-0.6035348773002625;-0.07208210229873657
01:00:0A:00:00:00:00;1723593928;14/08/24;00:05:28;0.977;0.008;0.112;0.27611109614372253;0.4031710624694824;-0.04764748737215996
01:00:0A:00:00:00:00;1723593929;14/08/24;00:05:29;0.954;-0.07;0.147;0.06719517707824707;-0.2590068578720093;0.17592918872833252
01:00:0A:00:00:00:00;1723593930;14/08/24;00:05:30;0.996;-0.067;0.035;0.25534167885780334;0.0012217304902151227;-0.23945917189121246
01:00:0A:00:00:00:00;1723593931;14/08/24;00:05:31;1.027;0.049;0.099;0.16859880089759827;0.10751228034496307;0.18936821818351746
01:00:0A:00:00:00:00;1723593932;14/08/24;00:05:32;1.03;-0.154;0.149;0.13927726447582245;-0.08674286305904388;0.1270599663257599
01:00:0A:00:00:00:00;1723593933;14/08/24;00:05:33;1.032;0.022;0.001;0.2174680233001709;-0.11239919811487198;-0.09651670604944229
01:00:0A:00:00:00:00;1723593934;14/08/24;00:05:34;0.992;0.016;0.115;0.17959438264369965;0.12461651116609573;0.1417207270860672
01:00:0A:00:00:00:00;1723593935;14/08/24;00:05:35;0.976;-0.042;0.113;0.12828169763088226;-0.19547687470912933;0.0
01:00:0A:00:00:00:00;1723593936;14/08/24;00:05:36;1.009;-0.015;0.045;0.21624629199504852;-0.009773843921720982;-0.10506881773471832
01:00:0A:00:00:00:00;1723593937;14/08/24;00:05:37;1.051;0.003;0.126;0.17470745742321014;0.02076941914856434;0.07330382615327835
01:00:0A:00:00:00:00;1723593938;14/08/24;00:05:38;1.059;-0.124;0.122;0.1771509200334549;-0.05619959905743599;0.07452555745840073
01:00:0A:00:00:00:00;1723593939;14/08/24;00:05:39;1.028;0.067;0.038;0.21013763546943665;-0.04764748737215996;-0.10384709388017654
01:00:0A:00:00:00:00;1723593940;14/08/24;00:05:40;0.972;-0.075;0.145;0.16371189057826996;0.19547687470912933;0.26022857427597046
01:00:0A:00:00:00:00;1723593941;14/08/24;00:05:41;0.941;0.016;0.061;0.22113320231437683;-0.3029891550540924;-0.36163222789764404
01:00:0A:00:00:00:00;1723593942;14/08/24;00:05:42;0.969;-0.011;0.076;0.15271630883216858;0.2626720666885376;0.29688048362731934
01:00:0A:00:00:00:00;1723593943;14/08/24;00:05:43;0.992;-0.162;0.236;0.19792033731937408;-0.3090977966785431;-0.2919935882091522
01:00:0A:00:00:00:00;1723593944;14/08/24;00:05:44;1.039;0.095;-0.038;0.16859880089759827;0.1466076523065567;0.12828169763088226
01:00:0A:00:00:00:00;1723593945;14/08/24;00:05:45;1.028;-0.169;0.228;0.17959438264369965;0.17837265133857727;0.17592918872833252
01:00:0A:00:00:00:00;1723593946;14/08/24;00:05:46;1.02;0.028;0.042;0.15271630883216858;-0.2480112910270691;-0.14782939851284027
01:00:0A:00:00:00:00;1723593947;14/08/24;00:05:47;0.979;-0.04;0.063;0.13072516024112701;0.08429940044879913;0.2028072476387024
01:00:0A:00:00:00:00;1723593948;14/08/24;00:05:48;0.953;-0.027;0.137;0.16859880089759827;-0.12828169763088226;-0.13316862285137177
01:00:0A:00:00:00:00;1723593949;14/08/24;00:05:49;0.991;0.015;0.094;0.08185594528913498;-0.10873401165008545;0.07696902006864548
01:00:0A:00:00:00:00;1723593950;14/08/24;00:05:50;1.057;-0.076;0.084;0.18325956165790558;0.09773843735456467;-0.1111774742603302
01:00:0A:00:00:00:00;1723593951;14/08/24;00:05:51;1.077;0.043;0.18;0.08674286305904388;-0.08185594528913498;0.021991148591041565
01:00:0A:00:00:00:00;1723593952;14/08/24;00:05:52;1.063;-0.199;-0.065;0.1673770695924759;-0.1258382350206375;0.1869247555732727
01:00:0A:00:00:00:00;1723593953;14/08/24;00:05:53;0.976;0.237;0.299;0.18814648687839508;0.4080579876899719;-0.4153883755207062
01:00:0A:00:00:00:00;1723593954;14/08/24;00:05:54;0.945;-0.244;-0.101;-0.11362093687057495;-0.6194173693656921;0.7147123217582703
01:00:0A:00:00:00:00;1723593955;14/08/24;00:05:55;0.947;0.014;0.088;0.5583308339118958;0.5351179242134094;-0.8112289905548096
01:00:0A:00:00:00:00;1723593956;14/08/24;00:05:56;0.948;-0.016;0.081;-0.025656338781118393;-0.26511549949645996;0.6792821884155273
01:00:0A:00:00:00:00;1723593957;14/08/24;00:05:57;0.956;-0.163;0.022;0.35063666105270386;0.06352998316287994;-0.38728854060173035
01:00:0A:00:00:00:00;1723593958;14/08/24;00:05:58;1.003;0.071;0.1;0.24190263450145721;-0.009773843921720982;0.15515977144241333
01:00:0A:00:00:00:00;1723593959;14/08/24;00:05:59;1.046;-0.1;0.114;0.20891590416431427;-0.07208210229873657;0.09285151958465576
01:00:0A:00:00:00:00;1723593960;14/08/24;00:06:00;1.05;-0.061;0.076;0.313984751701355;-0.02932153083384037;-0.08185594528913498
01:00:0A:00:00:00:00;1723593961;14/08/24;00:06:01;1.02;0.028;0.103;0.2736676335334778;0.03787364438176155;-0.02321287989616394
01:00:0A:00:00:00:00;1723593962;14/08/24;00:06:02;0.983;-0.094;0.112;0.21013763546943665;0.01710422709584236;0.1966986060142517
01:00:0A:00:00:00:00;1723593963;14/08/24;00:06:03;0.982;-0.047;0.098;0.3090977966785431;-0.040317103266716;-0.15393804013729095
01:00:0A:00:00:00:00;1723593964;14/08/24;00:06:04;0.996;0.006;0.066;0.251676470041275;0.06719517707824707;0.08552113175392151
01:00:0A:00:00:00:00;1723593965;14/08/24;00:06:05;1.009;-0.08;0.12;0.24068090319633484;-0.02076941914856434;0.0073303827084600925
01:00:0A:00:00:00:00;1723593966;14/08/24;00:06:06;1.038;-0.053;0.081;0.24556782841682434;-0.06719517707824707;-0.030543262138962746
01:00:0A:00:00:00:00;1723593967;14/08/24;00:06:07;1.046;-0.014;0.056;0.23090705275535583;0.019547687843441963;0.05864306166768074
01:00:0A:00:00:00:00;1723593968;14/08/24;00:06:08;1.016;-0.069;0.135;0.2125810980796814;0.03420845419168472;0.11850785464048386
01:00:0A:00:00:00:00;1723593969;14/08/24;00:06:09;1.0;-0.021;0.059;0.2125810980796814;-0.12339477241039276;-0.01710422709584236
01:00:0A:00:00:00:00;1723593970;14/08/24;00:06:10;0.98;-0.018;0.08;0.23457224667072296;0.0757472887635231;0.07941248267889023
01:00:0A:00:00:00:00;1723593971;14/08/24;00:06:11;1.001;-0.034;0.131;0.21013763546943665;-0.1062905490398407;0.006108652334660292
01:00:0A:00:00:00:00;1723593972;14/08/24;00:06:12;1.035;-0.029;0.055;0.23579397797584534;-0.012217304669320583;-0.018325956538319588
01:00:0A:00:00:00:00;1723593973;14/08/24;00:06:13;1.054;-0.031;0.11;0.2431243658065796;0.02076941914856434;0.014660765416920185
01:00:0A:00:00:00:00;1723593974;14/08/24;00:06:14;1.056;-0.047;0.11;0.2125810980796814;-0.051312677562236786;0.045204028487205505
01:00:0A:00:00:00:00;1723593975;14/08/24;00:06:15;1.026;-0.03;0.07;0.22602014243602753;-0.0354301817715168;0.036651913076639175
01:00:0A:00:00:00:00;1723593976;14/08/24;00:06:16;0.993;-0.013;0.108;0.22846359014511108;0.05375614017248154;0.03420845419168472
01:00:0A:00:00:00:00;1723593977;14/08/24;00:06:17;0.955;-0.017;0.072;0.19303341209888458;-0.1368338167667389;0.010995574295520782
01:00:0A:00:00:00:00;1723593978;14/08/24;00:06:18;0.962;-0.008;0.076;0.24923302233219147;0.03420845419168472;-0.06963863223791122
01:00:0A:00:00:00:00;1723593979;14/08/24;00:06:19;1.004;-0.007;0.119;0.1722639948129654;-0.14049901068210602;0.01710422709584236
01:00:0A:00:00:00:00;1723593980;14/08/24;00:06:20;1.043;-0.063;0.066;0.21624629199504852;-0.006108652334660292;-0.03787364438176155
01:00:0A:00:00:00:00;1723593981;14/08/24;00:06:21;1.041;-0.021;0.13;0.21502456068992615;0.012217304669320583;0.009773843921720982
01:00:0A:00:00:00:00;1723593982;14/08/24;00:06:22;1.03;-0.039;0.093;0.17104226350784302;-0.03787364438176155;0.05742133408784866
01:00:0A:00:00:00:00;1723593983;14/08/24;00:06:23;1.016;-0.047;0.1;0.20402899384498596;0.03176499158143997;0.030543262138962746
01:00:0A:00:00:00:00;1723593984;14/08/24;00:06:24;1.002;-0.008;0.1;0.2028072476387024;0.014660765416920185;-0.02687807008624077
01:00:0A:00:00:00:00;1723593985;14/08/24;00:06:25;1.002;-0.035;0.081;0.16004669666290283;-0.0354301817715168;0.02932153083384037
01:00:0A:00:00:00:00;1723593986;14/08/24;00:06:26;1.002;-0.054;0.08;0.19547687470912933;-0.00855211354792118;-0.015882495790719986
01:00:0A:00:00:00:00;1723593986;14/08/24;00:06:26;1.003;-0.032;0.099;0.1771509200334549;-0.03176499158143997;-0.0036651913542300463
01:00:0A:00:00:00:00;1723593987;14/08/24;00:06:27;0.999;-0.048;0.091;0.1563815027475357;-0.03298672288656235;0.06352998316287994
01:00:0A:00:00:00:00;1723593988;14/08/24;00:06:28;1.005;-0.046;0.102;0.19058994948863983;-0.014660765416920185;-0.019547687843441963
01:00:0A:00:00:00:00;1723593989;14/08/24;00:06:29;1.016;-0.015;0.113;0.1673770695924759;-0.028099799528717995;0.013439035043120384
01:00:0A:00:00:00:00;1723593990;14/08/24;00:06:30;1.038;-0.041;0.091;0.16982054710388184;0.009773843921720982;-0.0036651913542300463
01:00:0A:00:00:00:00;1723593991;14/08/24;00:06:31;1.042;-0.05;0.106;0.17959438264369965;0.00855211354792118;-0.009773843921720982
01:00:0A:00:00:00:00;1723593992;14/08/24;00:06:32;1.02;-0.032;0.093;0.16371189057826996;0.0012217304902151227;0.02321287989616394
01:00:0A:00:00:00:00;1723593993;14/08/24;00:06:33;0.992;-0.051;0.086;0.16371189057826996;0.02687807008624077;0.05864306166768074
01:00:0A:00:00:00:00;1723593994;14/08/24;00:06:34;0.97;-0.035;0.081;0.1771509200334549;-0.0354301817715168;-0.03298672288656235
01:00:0A:00:00:00:00;1723593995;14/08/24;00:06:35;0.982;-0.033;0.078;0.15515977144241333;-0.02321287989616394;0.036651913076639175
01:00:0A:00:00:00:00;1723593996;14/08/24;00:06:36;1.033;-0.063;0.111;0.16982054710388184;-0.039095375686883926;-0.014660765416920185
01:00:0A:00:00:00:00;1723593997;14/08/24;00:06:37;1.066;-0.012;0.093;0.16371189057826996;0.025656338781118393;0.01710422709584236
01:00:0A:00:00:00:00;1723593998;14/08/24;00:06:38;1.063;-0.06;0.09;0.16371189057826996;0.04153883829712868;0.04642575979232788
01:00:0A:00:00:00:00;1723593999;14/08/24;00:06:39;1.017;-0.018;0.071;0.1661553531885147;-0.006108652334660292;0.004886921960860491
01:00:0A:00:00:00:00;1723594000;14/08/24;00:06:40;0.976;-0.041;0.066;0.14538592100143433;-0.024434609338641167;0.08796459436416626
01:00:0A:00:00:00:00;1723594001;14/08/24;00:06:41;0.951;-0.018;0.077;0.16982054710388184;-0.08552113175392151;-0.045204028487205505
01:00:0A:00:00:00:00;1723594002;14/08/24;00:06:42;0.976;-0.012;0.082;0.14294245839118958;-0.04886921867728233;0.06963863223791122
01:00:0A:00:00:00:00;1723594003;14/08/24;00:06:43;1.031;-0.059;0.114;0.18325956165790558;-0.04153883829712868;-0.07452555745840073
01:00:0A:00:00:00:00;1723594004;14/08/24;00:06:44;1.051;0.0;0.091;0.16982054710388184;0.0073303827084600925;0.02076941914856434
01:00:0A:00:00:00:00;1723594005;14/08/24;00:06:45;1.047;-0.08;0.106;0.17348572611808777;0.04398229718208313;0.05742133408784866
01:00:0A:00:00:00:00;1723594006;14/08/24;00:06:46;1.013;-0.023;0.076;0.1869247555732727;-0.021991148591041565;-0.018325956538319588
01:00:0A:00:00:00:00;1723594007;14/08/24;00:06:47;0.991;-0.035;0.081;0.16249015927314758;0.018325956538319588;0.09162978082895279
01:00:0A:00:00:00:00;1723594008;14/08/24;00:06:48;0.978;-0.031;0.09;0.17592918872833252;-0.05497787147760391;-0.01710422709584236
01:00:0A:00:00:00:00;1723594009;14/08/24;00:06:49;0.995;-0.01;0.074;0.16859880089759827;-0.07208210229873657;-0.006108652334660292
01:00:0A:00:00:00:00;1723594010;14/08/24;00:06:50;1.03;-0.036;0.089;0.18081611394882202;-0.0354301817715168;-0.009773843921720982
01:00:0A:00:00:00:00;1723594011;14/08/24;00:06:51;1.036;-0.048;0.129;0.17470745742321014;-0.045204028487205505;0.0036651913542300463
01:00:0A:00:00:00:00;1723594012;14/08/24;00:06:52;1.031;-0.038;0.089;0.17348572611808777;-0.018325956538319588;0.02076941914856434
01:00:0A:00:00:00:00;1723594013;14/08/24;00:06:53;1.001;-0.04;0.104;0.19303341209888458;0.06963863223791122;0.02932153083384037
01:00:0A:00:00:00:00;1723594014;14/08/24;00:06:54;0.991;-0.032;0.103;0.17470745742321014;-0.01710422709584236;0.0024434609804302454
01:00:0A:00:00:00:00;1723594015;14/08/24;00:06:55;0.994;-0.034;0.077;0.1661553531885147;-0.03420845419168472;0.0036651913542300463
01:00:0A:00:00:00:00;1723594016;14/08/24;00:06:56;1.005;-0.042;0.089;0.18081611394882202;-0.02687807008624077;-0.024434609338641167
01:00:0A:00:00:00:00;1723594017;14/08/24;00:06:57;1.03;-0.036;0.116;0.1563815027475357;-0.04642575979232788;0.00855211354792118
01:00:0A:00:00:00:00;1723594018;14/08/24;00:06:58;1.04;-0.055;0.09;0.15882496535778046;-0.013439035043120384;0.009773843921720982
01:00:0A:00:00:00:00;1723594019;14/08/24;00:06:59;1.044;-0.041;0.106;0.1673770695924759;0.04153883829712868;0.01710422709584236
01:00:0A:00:00:00:00;1723594020;14/08/24;00:07:00;1.033;-0.04;0.087;0.14905111491680145;0.018325956538319588;0.045204028487205505
01:00:0A:00:00:00:00;1723594021;14/08/24;00:07:01;1.001;-0.045;0.067;0.161268413066864;0.01710422709584236;0.04764748737215996
01:00:0A:00:00:00:00;1723594022;14/08/24;00:07:02;0.985;-0.034;0.07;0.16249015927314758;-0.05497787147760391;0.019547687843441963
01:00:0A:00:00:00:00;1723594023;14/08/24;00:07:03;0.992;-0.035;0.076;0.15515977144241333;-0.05009094998240471;0.05742133408784866
01:00:0A:00:00:00:00;1723594024;14/08/24;00:07:04;1.008;-0.036;0.096;0.17470745742321014;-0.040317103266716;0.009773843921720982
01:00:0A:00:00:00:00;1723594025;14/08/24;00:07:05;1.015;-0.02;0.099;0.16859880089759827;-0.05497787147760391;0.0036651913542300463
01:00:0A:00:00:00:00;1723594026;14/08/24;00:07:06;1.022;-0.03;0.092;0.17104226350784302;-0.01710422709584236;0.004886921960860491
01:00:0A:00:00:00:00;1723594027;14/08/24;00:07:07;1.02;-0.038;0.107;0.17104226350784302;-0.013439035043120384;-0.004886921960860491
01:00:0A:00:00:00:00;1723594028;14/08/24;00:07:08;1.02;-0.029;0.097;0.1576032191514969;-0.010995574295520782;0.010995574295520782
01:00:0A:00:00:00:00;1723594029;14/08/24;00:07:09;1.016;-0.035;0.085;0.15882496535778046;0.012217304669320583;0.028099799528717995
01:00:0A:00:00:00:00;1723594030;14/08/24;00:07:10;1.011;-0.027;0.099;0.1563815027475357;-0.004886921960860491;-0.0036651913542300463
01:00:0A:00:00:00:00;1723594031;14/08/24;00:07:11;1.007;-0.031;0.084;0.13927726447582245;-0.036651913076639175;0.0
01:00:0A:00:00:00:00;1723594032;14/08/24;00:07:12;1.002;-0.04;0.088;0.15027284622192383;-0.010995574295520782;-0.014660765416920185
01:00:0A:00:00:00:00;1723594033;14/08/24;00:07:13;1.011;-0.038;0.111;0.13805554807186127;-0.028099799528717995;-0.00855211354792118
01:00:0A:00:00:00:00;1723594034;14/08/24;00:07:14;1.027;-0.047;0.104;0.12217304855585098;-0.013439035043120384;0.014660765416920185
01:00:0A:00:00:00:00;1723594035;14/08/24;00:07:15;1.038;-0.046;0.097;0.13561207056045532;0.042760565876960754;0.02076941914856434
01:00:0A:00:00:00:00;1723594036;14/08/24;00:07:16;1.034;-0.033;0.092;0.1270599663257599;0.02932153083384037;0.028099799528717995
01:00:0A:00:00:00:00;1723594037;14/08/24;00:07:17;1.007;-0.031;0.069;0.11239919811487198;-0.012217304669320583;0.06108652427792549
01:00:0A:00:00:00:00;1723594038;14/08/24;00:07:18;0.983;-0.032;0.08;0.1258382350206375;-0.025656338781118393;0.0
01:00:0A:00:00:00:00;1723594039;14/08/24;00:07:19;0.987;-0.031;0.094;0.1160643920302391;-0.04764748737215996;0.009773843921720982
01:00:0A:00:00:00:00;1723594040;14/08/24;00:07:20;1.014;-0.04;0.099;0.11972958594560623;-0.030543262138962746;-0.004886921960860491
01:00:0A:00:00:00:00;1723594041;14/08/24;00:07:21;1.03;-0.039;0.104;0.12461651116609573;0.0012217304902151227;-0.004886921960860491
01:00:0A:00:00:00:00;1723594042;14/08/24;00:07:22;1.037;-0.035;0.089;0.11728612333536148;0.0036651913542300463;0.015882495790719986
01:00:0A:00:00:00:00;1723594043;14/08/24;00:07:23;1.023;-0.052;0.084;0.1111774742603302;-0.013439035043120384;0.03787364438176155
01:00:0A:00:00:00:00;1723594044;14/08/24;00:07:24;1.001;-0.034;0.092;0.10506881773471832;-0.02932153083384037;0.036651913076639175
01:00:0A:00:00:00:00;1723594045;14/08/24;00:07:25;0.997;-0.027;0.098;0.09162978082895279;-0.036651913076639175;0.04764748737215996
01:00:0A:00:00:00:00;1723594046;14/08/24;00:07:26;1.001;-0.018;0.107;0.10018189996480942;-0.015882495790719986;-0.010995574295520782
01:00:0A:00:00:00:00;1723594047;14/08/24;00:07:27;1.011;-0.012;0.1;0.09773843735456467;-0.0073303827084600925;-0.03176499158143997
01:00:0A:00:00:00:00;1723594048;14/08/24;00:07:28;1.013;-0.033;0.086;0.09285151958465576;0.0;-0.0354301817715168
01:00:0A:00:00:00:00;1723594049;14/08/24;00:07:29;1.01;-0.05;0.083;0.08918632566928864;-0.02321287989616394;-0.013439035043120384
01:00:0A:00:00:00:00;1723594050;14/08/24;00:07:30;1.009;-0.053;0.085;0.08307767659425735;-0.02932153083384037;0.0024434609804302454
01:00:0A:00:00:00:00;1723594051;14/08/24;00:07:31;1.029;-0.054;0.099;0.07941248267889023;-0.025656338781118393;0.036651913076639175
01:00:0A:00:00:00:00;1723594052;14/08/24;00:07:32;1.044;-0.042;0.104;0.08307767659425735;0.0012217304902151227;0.03298672288656235
01:00:0A:00:00:00:00;1723594053;14/08/24;00:07:33;1.048;-0.053;0.085;0.09773843735456467;0.04153883829712868;-0.13072516024112701
01:00:0A:00:00:00:00;1723594054;14/08/24;00:07:34;1.022;0.075;0.142;0.11972958594560623;0.06352998316287994;-0.010995574295520782
01:00:0A:00:00:00:00;1723594055;14/08/24;00:07:35;0.986;-0.105;0.056;0.03787364438176155;-0.09896016865968704;0.2431243658065796
01:00:0A:00:00:00:00;1723594056;14/08/24;00:07:36;0.973;0.011;0.072;0.22479839622974396;0.045204028487205505;-0.29077184200286865
01:00:0A:00:00:00:00;1723594057;14/08/24;00:07:37;0.979;0.033;0.082;0.014660765416920185;-0.04886921867728233;0.26511549949645996
01:00:0A:00:00:00:00;1723594058;14/08/24;00:07:38;1.015;-0.126;0.083;0.1111774742603302;-0.05619959905743599;-0.1563815027475357
01:00:0A:00:00:00:00;1723594059;14/08/24;00:07:39;1.031;0.074;0.113;0.03787364438176155;-0.06108652427792549;0.00855211354792118
01:00:0A:00:00:00:00;1723594060;14/08/24;00:07:40;1.044;-0.085;0.069;-0.004886921960860491;-0.018325956538319588;0.1319468915462494
01:00:0A:00:00:00:00;1723594061;14/08/24;00:07:41;1.031;-0.06;0.109;0.09773843735456467;0.039095375686883926;-0.06719517707824707
01:00:0A:00:00:00:00;1723594062;14/08/24;00:07:42;1.002;0.019;0.088;0.036651913076639175;-0.014660765416920185;-0.0073303827084600925
01:00:0A:00:00:00:00;1723594063;14/08/24;00:07:43;0.995;-0.066;0.077;0.0;0.012217304669320583;0.1417207270860672
01:00:0A:00:00:00:00;1723594064;14/08/24;00:07:44;1.0;-0.056;0.095;0.09285151958465576;-0.014660765416920185;-0.13439035415649414
01:00:0A:00:00:00:00;1723594065;14/08/24;00:07:45;1.013;0.014;0.083;0.015882495790719986;-0.045204028487205505;0.040317103266716
01:00:0A:00:00:00:00;1723594066;14/08/24;00:07:46;1.024;-0.086;0.082;0.021991148591041565;0.0036651913542300463;0.07208210229873657
01:00:0A:00:00:00:00;1723594067;14/08/24;00:07:47;1.015;-0.043;0.104;0.07330382615327835;0.0;-0.04764748737215996
01:00:0A:00:00:00:00;1723594068;14/08/24;00:07:48;1.003;0.0;0.077;0.018325956538319588;-0.02932153083384037;0.05619959905743599
01:00:0A:00:00:00:00;1723594069;14/08/24;00:07:49;0.995;-0.046;0.081;0.03176499158143997;0.025656338781118393;0.06108652427792549
01:00:0A:00:00:00:00;1723594070;14/08/24;00:07:50;1.0;-0.032;0.099;0.0659734457731247;-0.06108652427792549;-0.08674286305904388
01:00:0A:00:00:00:00;1723594071;14/08/24;00:07:51;1.025;0.0;0.076;0.02321287989616394;-0.05497787147760391;0.013439035043120384
01:00:0A:00:00:00:00;1723594072;14/08/24;00:07:52;1.031;-0.075;0.096;0.045204028487205505;-0.009773843921720982;-0.0036651913542300463
01:00:0A:00:00:00:00;1723594073;14/08/24;00:07:53;1.028;-0.045;0.117;0.05864306166768074;-0.021991148591041565;-0.05619959905743599
01:00:0A:00:00:00:00;1723594074;14/08/24;00:07:54;1.019;-0.038;0.089;0.02321287989616394;-0.00855211354792118;0.036651913076639175
01:00:0A:00:00:00:00;1723594075;14/08/24;00:07:55;1.0;-0.066;0.105;0.042760565876960754;0.04764748737215996;0.05619959905743599
01:00:0A:00:00:00:00;1723594076;14/08/24;00:07:56;0.999;-0.03;0.099;0.05009094998240471;-0.018325956538319588;-0.02932153083384037
01:00:0A:00:00:00:00;1723594077;14/08/24;00:07:57;1.006;-0.016;0.07;0.025656338781118393;-0.004886921960860491;0.042760565876960754
01:00:0A:00:00:00:00;1723594078;14/08/24;00:07:58;1.016;-0.048;0.084;0.04642575979232788;-0.0073303827084600925;-0.0073303827084600925
01:00:0A:00:00:00:00;1723594079;14/08/24;00:07:59;1.017;-0.021;0.089;0.039095375686883926;-0.06352998316287994;-0.025656338781118393
01:00:0A:00:00:00:00;1723594080;14/08/24;00:08:00;1.016;-0.026;0.082;0.02687807008624077;-0.028099799528717995;0.01710422709584236
01:00:0A:00:00:00:00;1723594081;14/08/24;00:08:01;1.011;-0.047;0.109;0.045204028487205505;0.00855211354792118;-0.0012217304902151227
01:00:0A:00:00:00:00;1723594082;14/08/24;00:08:02;1.006;-0.024;0.105;0.036651913076639175;-0.021991148591041565;-0.01710422709584236
01:00:0A:00:00:00:00;1723594083;14/08/24;00:08:03;1.014;-0.032;0.078;0.025656338781118393;-0.0036651913542300463;0.02932153083384037
01:00:0A:00:00:00:00;1723594084;14/08/24;00:08:04;1.018;-0.046;0.093;0.04642575979232788;-0.00855211354792118;-0.00855211354792118
01:00:0A:00:00:00:00;1723594085;14/08/24;00:08:05;1.026;-0.029;0.097;0.03420845419168472;-0.042760565876960754;-0.009773843921720982
01:00:0A:00:00:00:00;1723594086;14/08/24;00:08:06;1.028;-0.043;0.084;0.02932153083384037;-0.02687807008624077;0.019547687843441963
01:00:0A:00:00:00:00;1723594087;14/08/24;00:08:07;1.017;-0.051;0.112;0.04642575979232788;0.013439035043120384;0.0073303827084600925
01:00:0A:00:00:00:00;1723594088;14/08/24;00:08:08;1.014;-0.035;0.103;0.03298672288656235;-0.0073303827084600925;0.012217304669320583
01:00:0A:00:00:00:00;1723594089;14/08/24;00:08:09;1.001;-0.043;0.086;0.036651913076639175;0.025656338781118393;0.040317103266716
01:00:0A:00:00:00:00;1723594090;14/08/24;00:08:10;0.994;-0.038;0.093;0.05497787147760391;0.015882495790719986;-0.00855211354792118
01:00:0A:00:00:00:00;1723594091;14/08/24;00:08:11;1.003;-0.024;0.086;0.0354301817715168;-0.04398229718208313;-0.0012217304902151227
01:00:0A:00:00:00:00;1723594092;14/08/24;00:08:12;1.024;-0.045;0.083;0.045204028487205505;-0.0354301817715168;-0.006108652334660292
01:00:0A:00:00:00:00;1723594093;14/08/24;00:08:13;1.028;-0.045;0.107;0.05253440886735916;-0.025656338781118393;-0.006108652334660292
01:00:0A:00:00:00:00;1723594094;14/08/24;00:08:14;1.027;-0.035;0.098;0.03787364438176155;-0.015882495790719986;0.024434609338641167
01:00:0A:00:00:00:00;1723594095;14/08/24;00:08:15;1.02;-0.051;0.093;0.042760565876960754;0.010995574295520782;0.028099799528717995
01:00:0A:00:00:00:00;1723594096;14/08/24;00:08:16;1.007;-0.034;0.094;0.051312677562236786;0.0012217304902151227;0.0036651913542300463
01:00:0A:00:00:00:00;1723594097;14/08/24;00:08:17;1.002;-0.028;0.089;0.03420845419168472;-0.018325956538319588;0.03420845419168472
01:00:0A:00:00:00:00;1723594098;14/08/24;00:08:18;1.0;-0.033;0.087;0.042760565876960754;-0.012217304669320583;0.0073303827084600925
01:00:0A:00:00:00:00;1723594099;14/08/24;00:08:19;1.004;-0.026;0.093;0.04642575979232788;-0.02687807008624077;-0.018325956538319588
01:00:0A:00:00:00:00;1723594100;14/08/24;00:08:20;1.009;-0.028;0.094;0.03420845419168472;-0.024434609338641167;0.0012217304902151227
01:00:0A:00:00:00:00;1723594101;14/08/24;00:08:21;1.013;-0.047;0.097;0.04153883829712868;-0.010995574295520782;-0.00855211354792118
01:00:0A:00:00:00:00;1723594102;14/08/24;00:08:22;1.013;-0.032;0.1;0.042760565876960754;-0.025656338781118393;-0.019547687843441963
01:00:0A:00:00:00:00;1723594103;14/08/24;00:08:23;1.022;-0.035;0.098;0.030543262138962746;-0.010995574295520782;0.019547687843441963
01:00:0A:00:00:00:00;1723594104;14/08/24;00:08:24;1.03;-0.053;0.104;0.04398229718208313;0.004886921960860491;0.0
01:00:0A:00:00:00:00;1723594105;14/08/24;00:08:25;1.029;-0.037;0.099;0.042760565876960754;0.010995574295520782;0.0012217304902151227
01:00:0A:00:00:00:00;1723594106;14/08/24;00:08:26;1.021;-0.04;0.089;0.02932153083384037;0.013439035043120384;0.03787364438176155
01:00:0A:00:00:00:00;1723594107;14/08/24;00:08:27;1.003;-0.045;0.087;0.040317103266716;0.0024434609804302454;0.025656338781118393
01:00:0A:00:00:00:00;1723594108;14/08/24;00:08:28;0.999;-0.026;0.083;0.040317103266716;-0.025656338781118393;0.0024434609804302454
01:00:0A:00:00:00:00;1723594109;14/08/24;00:08:29;0.998;-0.029;0.082;0.02932153083384037;-0.03176499158143997;0.02687807008624077
01:00:0A:00:00:00:00;1723594110;14/08/24;00:08:30;1.011;-0.041;0.098;0.045204028487205505;-0.0354301817715168;-0.018325956538319588
01:00:0A:00:00:00:00;1723594111;14/08/24;00:08:31;1.018;-0.025;0.098;0.045204028487205505;-0.040317103266716;-0.02076941914856434
01:00:0A:00:00:00:00;1723594112;14/08/24;00:08:32;1.025;-0.038;0.097;0.036651913076639175;-0.004886921960860491;0.010995574295520782
01:00:0A:00:00:00:00;1723594113;14/08/24;00:08:33;1.023;-0.047;0.104;0.045204028487205505;0.0036651913542300463;-0.0024434609804302454
01:00:0A:00:00:00:00;1723594114;14/08/24;00:08:34;1.016;-0.031;0.092;0.042760565876960754;-0.0024434609804302454;-0.0012217304902151227
01:00:0A:00:00:00:00;1723594115;14/08/24;00:08:35;1.013;-0.038;0.086;0.0354301817715168;0.015882495790719986;0.03298672288656235
01:00:0A:00:00:00:00;1723594116;14/08/24;00:08:36;1.012;-0.043;0.091;0.04153883829712868;-0.0024434609804302454;0.006108652334660292
01:00:0A:00:00:00:00;1723594117;14/08/24;00:08:37;1.01;-0.025;0.081;0.03420845419168472;-0.028099799528717995;0.0012217304902151227
01:00:0A:00:00:00:00;1723594118;14/08/24;00:08:38;1.009;-0.035;0.081;0.02932153083384037;-0.012217304669320583;0.02687807008624077
01:00:0A:00:00:00:00;1723594119;14/08/24;00:08:39;1.013;-0.04;0.098;0.03420845419168472;-0.03298672288656235;-0.010995574295520782
01:00:0A:00:00:00:00;1723594120;14/08/24;00:08:40;1.02;-0.022;0.087;0.028099799528717995;-0.02932153083384037;-0.004886921960860491
01:00:0A:00:00:00:00;1723594121;14/08/24;00:08:41;1.021;-0.037;0.094;0.02687807008624077;-0.0012217304902151227;0.01710422709584236
01:00:0A:00:00:00:00;1723594122;14/08/24;00:08:42;1.016;-0.04;0.103;0.030543262138962746;-0.006108652334660292;-0.0036651913542300463
01:00:0A:00:00:00:00;1723594123;14/08/24;00:08:43;1.005;-0.029;0.089;0.02687807008624077;-0.014660765416920185;0.0
01:00:0A:00:00:00:00;1723594124;14/08/24;00:08:44;1.002;-0.037;0.096;0.024434609338641167;0.009773843921720982;0.021991148591041565
01:00:0A:00:00:00:00;1723594125;14/08/24;00:08:45;1.004;-0.038;0.1;0.025656338781118393;-0.028099799528717995;-0.013439035043120384
01:00:0A:00:00:00:00;1723594126;14/08/24;00:08:46;1.012;-0.026;0.087;0.021991148591041565;-0.021991148591041565;-0.00855211354792118
01:00:0A:00:00:00:00;1723594127;14/08/24;00:08:47;1.015;-0.035;0.093;0.021991148591041565;0.006108652334660292;0.004886921960860491
01:00:0A:00:00:00:00;1723594128;14/08/24;00:08:48;1.02;-0.043;0.1;0.018325956538319588;-0.025656338781118393;-0.010995574295520782
01:00:0A:00:00:00:00;1723594129;14/08/24;00:08:49;1.023;-0.034;0.082;0.013439035043120384;-0.015882495790719986;0.0073303827084600925
01:00:0A:00:00:00:00;1723594130;14/08/24;00:08:50;1.023;-0.039;0.099;0.00855211354792118;0.004886921960860491;0.036651913076639175
01:00:0A:00:00:00:00;1723594131;14/08/24;00:08:51;1.022;-0.04;0.104;0.00855211354792118;-0.02076941914856434;0.015882495790719986
01:00:0A:00:00:00:00;1723594132;14/08/24;00:08:52;1.014;-0.021;0.085;0.009773843921720982;-0.0024434609804302454;0.004886921960860491
01:00:0A:00:00:00:00;1723594133;14/08/24;00:08:53;1.0;-0.031;0.094;0.010995574295520782;0.018325956538319588;0.010995574295520782
01:00:0A:00:00:00:00;1723594134;14/08/24;00:08:54;0.994;-0.04;0.092;0.012217304669320583;-0.03298672288656235;-0.025656338781118393
01:00:0A:00:00:00:00;1723594135;14/08/24;00:08:55;1.004;-0.036;0.083;0.010995574295520782;-0.03420845419168472;-0.01710422709584236
01:00:0A:00:00:00:00;1723594136;14/08/24;00:08:56;1.016;-0.046;0.102;0.00855211354792118;-0.021991148591041565;0.015882495790719986
01:00:0A:00:00:00:00;1723594137;14/08/24;00:08:57;1.032;-0.048;0.11;0.009773843921720982;-0.02076941914856434;0.01710422709584236
01:00:0A:00:00:00:00;1723594138;14/08/24;00:08:58;1.034;-0.028;0.092;0.015882495790719986;0.0;0.014660765416920185
01:00:0A:00:00:00:00;1723594139;14/08/24;00:08:59;1.013;-0.038;0.097;0.018325956538319588;0.03298672288656235;0.02076941914856434
01:00:0A:00:00:00:00;1723594140;14/08/24;00:09:00;1.001;-0.038;0.085;0.02321287989616394;-0.00855211354792118;-0.01710422709584236
01:00:0A:00:00:00:00;1723594141;14/08/24;00:09:01;0.994;-0.039;0.076;0.028099799528717995;-0.01710422709584236;-0.00855211354792118
01:00:0A:00:00:00:00;1723594142;14/08/24;00:09:02;1.007;-0.045;0.092;0.02321287989616394;-0.04642575979232788;0.004886921960860491
01:00:0A:00:00:00:00;1723594143;14/08/24;00:09:03;1.019;-0.047;0.098;0.025656338781118393;-0.05864306166768074;0.0012217304902151227
01:00:0A:00:00:00:00;1723594144;14/08/24;00:09:04;1.029;-0.031;0.097;0.03420845419168472;-0.006108652334660292;0.024434609338641167
01:00:0A:00:00:00:00;1723594145;14/08/24;00:09:05;1.026;-0.035;0.114;0.036651913076639175;0.013439035043120384;0.02076941914856434
01:00:0A:00:00:00:00;1723594146;14/08/24;00:09:06;1.014;-0.033;0.095;0.04153883829712868;0.004886921960860491;-0.013439035043120384
01:00:0A:00:00:00:00;1723594147;14/08/24;00:09:07;1.007;-0.036;0.084;0.04886921867728233;0.021991148591041565;-0.009773843921720982
01:00:0A:00:00:00:00;1723594148;14/08/24;00:09:08;1.0;-0.047;0.089;0.045204028487205505;0.0012217304902151227;0.004886921960860491
01:00:0A:00:00:00:00;1723594149;14/08/24;00:09:09;1.003;-0.047;0.081;0.04153883829712868;-0.03787364438176155;0.0024434609804302454
01:00:0A:00:00:00:00;1723594150;14/08/24;00:09:10;1.014;-0.038;0.081;0.045204028487205505;-0.02687807008624077;0.018325956538319588
01:00:0A:00:00:00:00;1723594151;14/08/24;00:09:11;1.02;-0.035;0.106;0.045204028487205505;-0.013439035043120384;0.018325956538319588
01:00:0A:00:00:00:00;1723594152;14/08/24;00:09:12;1.023;-0.032;0.096;0.042760565876960754;-0.021991148591041565;0.004886921960860491
01:00:0A:00:00:00:00;1723594153;14/08/24;00:09:13;1.018;-0.033;0.086;0.05009094998240471;0.00855211354792118;-0.0012217304902151227
01:00:0A:00:00:00:00;1723594154;14/08/24;00:09:14;1.014;-0.04;0.097;0.045204028487205505;0.0024434609804302454;0.004886921960860491
01:00:0A:00:00:00:00;1723594155;14/08/24;00:09:15;1.011;-0.04;0.09;0.03787364438176155;-0.024434609338641167;0.012217304669320583
01:00:0A:00:00:00:00;1723594156;14/08/24;00:09:16;1.009;-0.033;0.085;0.04153883829712868;0.0;0.019547687843441963
01:00:0A:00:00:00:00;1723594157;14/08/24;00:09:17;1.006;-0.028;0.095;0.0354301817715168;-0.015882495790719986;0.00855211354792118
01:00:0A:00:00:00:00;1723594158;14/08/24;00:09:18;1.01;-0.03;0.086;0.03298672288656235;-0.02932153083384037;-0.0073303827084600925
01:00:0A:00:00:00:00;1723594159;14/08/24;00:09:19;1.016;-0.034;0.089;0.039095375686883926;-0.00855211354792118;-0.013439035043120384
01:00:0A:00:00:00:00;1723594160;14/08/24;00:09:20;1.02;-0.04;0.102;0.03176499158143997;-0.0036651913542300463;0.0024434609804302454
01:00:0A:00:00:00:00;1723594161;14/08/24;00:09:21;1.018;-0.043;0.09;0.02687807008624077;-0.013439035043120384;0.015882495790719986
01:00:0A:00:00:00:00;1723594162;14/08/24;00:09:22;1.012;-0.036;0.089;0.030543262138962746;0.009773843921720982;0.025656338781118393
01:00:0A:00:00:00:00;1723594163;14/08/24;00:09:23;1.004;-0.032;0.096;0.02321287989616394;-0.0024434609804302454;0.02321287989616394
01:00:0A:00:00:00:00;1723594164;14/08/24;00:09:24;1.001;-0.031;0.083;0.024434609338641167;-0.02321287989616394;-0.0012217304902151227
01:00:0A:00:00:00:00;1723594165;14/08/24;00:09:25;1.004;-0.029;0.086;0.030543262138962746;-0.012217304669320583;-0.013439035043120384
01:00:0A:00:00:00:00;1723594166;14/08/24;00:09:26;1.024;-0.04;0.104;0.02076941914856434;-0.03787364438176155;-0.012217304669320583
01:00:0A:00:00:00:00;1723594167;14/08/24;00:09:27;1.036;-0.045;0.096;0.02076941914856434;-0.021991148591041565;0.0
01:00:0A:00:00:00:00;1723594168;14/08/24;00:09:28;1.03;-0.04;0.101;0.024434609338641167;0.010995574295520782;0.01710422709584236
01:00:0A:00:00:00:00;1723594169;14/08/24;00:09:29;1.006;-0.038;0.096;0.01710422709584236;0.0073303827084600925;0.028099799528717995
01:00:0A:00:00:00:00;1723594170;14/08/24;00:09:30;0.994;-0.033;0.084;0.019547687843441963;-0.010995574295520782;0.00855211354792118
01:00:0A:00:00:00:00;1723594171;14/08/24;00:09:31;0.986;-0.039;0.097;0.015882495790719986;0.05253440886735916;0.04642575979232788
01:00:0A:00:00:00:00;1723594172;14/08/24;00:09:32;0.996;-0.047;0.094;-0.40194931626319885;-0.09896016865968704;-0.06841690838336945
01:00:0A:00:00:00:00;1723594173;14/08/24;00:09:33;1.016;-0.028;0.094;-0.2382374405860901;-0.013439035043120384;-0.036651913076639175
01:00:0A:00:00:00:00;1723594174;14/08/24;00:09:34;1.027;-0.041;0.103;-0.24068090319633484;-0.0354301817715168;-0.0073303827084600925
01:00:0A:00:00:00:00;1723594175;14/08/24;00:09:35;1.038;-0.05;0.087;-0.20891590416431427;0.0012217304902151227;-0.009773843921720982
01:00:0A:00:00:00:00;1723594176;14/08/24;00:09:36;1.029;-0.031;0.108;-0.19547687470912933;0.019547687843441963;-0.0073303827084600925
01:00:0A:00:00:00:00;1723594177;14/08/24;00:09:37;1.008;-0.042;0.093;-0.20036379992961884;-0.0073303827084600925;0.015882495790719986
01:00:0A:00:00:00:00;1723594178;14/08/24;00:09:38;0.995;-0.035;0.082;-0.17104226350784302;0.004886921960860491;-0.028099799528717995
01:00:0A:00:00:00:00;1723594179;14/08/24;00:09:39;0.995;-0.034;0.097;-0.16982054710388184;-0.004886921960860491;-0.006108652334660292
01:00:0A:00:00:00:00;1723594180;14/08/24;00:09:40;1.008;-0.043;0.094;-0.16859880089759827;-0.036651913076639175;-0.01710422709584236
01:00:0A:00:00:00:00;1723594181;14/08/24;00:09:41;1.019;-0.038;0.088;-0.14905111491680145;-0.00855211354792118;-0.015882495790719986
01:00:0A:00:00:00:00;1723594182;14/08/24;00:09:42;1.025;-0.037;0.108;-0.1514945775270462;-0.004886921960860491;0.010995574295520782
01:00:0A:00:00:00:00;1723594183;14/08/24;00:09:43;1.021;-0.04;0.093;-0.14294245839118958;-0.014660765416920185;-0.0012217304902151227
01:00:0A:00:00:00:00;1723594184;14/08/24;00:09:44;1.013;-0.028;0.092;-0.13072516024112701;0.010995574295520782;-0.0036651913542300463
01:00:0A:00:00:00:00;1723594185;14/08/24;00:09:45;1.005;-0.032;0.096;-0.13439035415649414;-0.0073303827084600925;0.0024434609804302454
01:00:0A:00:00:00:00;1723594186;14/08/24;00:09:46;1.009;-0.035;0.086;-0.11972958594560623;-0.018325956538319588;-0.03176499158143997
01:00:0A:00:00:00:00;1723594187;14/08/24;00:09:47;1.019;-0.034;0.09;-0.1160643920302391;-0.004886921960860491;-0.01710422709584236
01:00:0A:00:00:00:00;1723594188;14/08/24;00:09:48;1.026;-0.047;0.099;-0.11972958594560623;-0.014660765416920185;-0.0012217304902151227
01:00:0A:00:00:00:00;1723594189;14/08/24;00:09:49;1.021;-0.041;0.089;-0.11239919811487198;-0.009773843921720982;0.0036651913542300463
01:00:0A:00:00:00:00;1723594190;14/08/24;00:09:50;1.01;-0.036;0.098;-0.10995574295520782;0.00855211354792118;0.019547687843441963
01:00:0A:00:00:00:00;1723594191;14/08/24;00:09:51;0.996;-0.035;0.093;-0.1111774742603302;-0.021991148591041565;0.010995574295520782
01:00:0A:00:00:00:00;1723594192;14/08/24;00:09:52;0.995;-0.029;0.085;-0.09773843735456467;-0.02076941914856434;-0.013439035043120384
01:00:0A:00:00:00:00;1723594193;14/08/24;00:09:53;1.012;-0.03;0.096;-0.09651670604944229;-0.019547687843441963;-0.018325956538319588
01:00:0A:00:00:00:00;1723594194;14/08/24;00:09:54;1.03;-0.048;0.106;-0.09285151958465576;-0.010995574295520782;-0.02076941914856434
01:00:0A:00:00:00:00;1723594195;14/08/24;00:09:55;1.033;-0.04;0.094;-0.08674286305904388;0.00855211354792118;-0.00855211354792118
01:00:0A:00:00:00:00;1723594196;14/08/24;00:09:56;1.019;-0.043;0.094;-0.08918632566928864;0.014660765416920185;0.024434609338641167
01:00:0A:00:00:00:00;1723594197;14/08/24;00:09:57;1.007;-0.04;0.091;-0.08674286305904388;-0.0073303827084600925;0.015882495790719986
01:00:0A:00:00:00:00;1723594198;14/08/24;00:09:58;0.996;-0.029;0.088;-0.08185594528913498;-0.015882495790719986;0.0
01:00:0A:00:00:00:00;1723594199;14/08/24;00:09:59;0.997;-0.032;0.091;-0.08185594528913498;-0.018325956538319588;-0.0036651913542300463
01:00:0A:00:00:00:00;1723594200;14/08/24;00:10:00;1.013;-0.04;0.097;-0.07330382615327835;-0.02321287989616394;-0.03298672288656235
01:00:0A:00:00:00:00;1723594201;14/08/24;00:10:01;1.02;-0.034;0.095;-0.0757472887635231;-0.01710422709584236;-0.018325956538319588
01:00:0A:00:00:00:00;1723594202;14/08/24;00:10:02;1.024;-0.043;0.095;-0.07941248267889023;-0.0012217304902151227;0.014660765416920185
01:00:0A:00:00:00:00;1723594203;14/08/24;00:10:03;1.016;-0.04;0.091;-0.07452555745840073;-0.006108652334660292;0.010995574295520782
01:00:0A:00:00:00:00;1723594204;14/08/24;00:10:04;1.01;-0.027;0.091;-0.0757472887635231;-0.010995574295520782;0.00855211354792118
01:00:0A:00:00:00:00;1723594205;14/08/24;00:10:05;1.005;-0.031;0.093;-0.0757472887635231;-0.009773843921720982;0.0036651913542300463
01:00:0A:00:00:00:00;1723594206;14/08/24;00:10:06;1.007;-0.034;0.094;-0.0659734457731247;-0.004886921960860491;-0.018325956538319588
01:00:0A:00:00:00:00;1723594207;14/08/24;00:10:07;1.016;-0.031;0.093;-0.06963863223791122;-0.00855211354792118;-0.006108652334660292
01:00:0A:00:00:00:00;1723594208;14/08/24;00:10:08;1.021;-0.038;0.088;-0.0708603635430336;-0.00855211354792118;0.0024434609804302454
01:00:0A:00:00:00:00;1723594209;14/08/24;00:10:09;1.021;-0.039;0.089;-0.06352998316287994;-0.00855211354792118;-0.0073303827084600925
01:00:0A:00:00:00:00;1723594210;14/08/24;00:10:10;1.018;-0.033;0.091;-0.06719517707824707;-0.015882495790719986;0.006108652334660292
01:00:0A:00:00:00:00;1723594211;14/08/24;00:10:11;1.009;-0.038;0.091;-0.06719517707824707;-0.012217304669320583;0.012217304669320583
01:00:0A:00:00:00:00;1723594212;14/08/24;00:10:12;1.005;-0.036;0.093;-0.05619959905743599;-0.0036651913542300463;-0.00855211354792118
01:00:0A:00:00:00:00;1723594213;14/08/24;00:10:13;1.008;-0.03;0.094;-0.059864792972803116;-0.013439035043120384;-0.0012217304902151227
01:00:0A:00:00:00:00;1723594214;14/08/24;00:10:14;1.013;-0.038;0.087;-0.06108652427792549;-0.014660765416920185;0.0036651913542300463
01:00:0A:00:00:00:00;1723594215;14/08/24;00:10:15;1.016;-0.036;0.091;-0.051312677562236786;-0.010995574295520782;-0.009773843921720982
01:00:0A:00:00:00:00;1723594216;14/08/24;00:10:16;1.02;-0.031;0.095;-0.05497787147760391;-0.02076941914856434;-0.0036651913542300463
01:00:0A:00:00:00:00;1723594217;14/08/24;00:10:17;1.022;-0.039;0.09;-0.05497787147760391;-0.014660765416920185;0.0073303827084600925
01:00:0A:00:00:00:00;1723594218;14/08/24;00:10:18;1.016;-0.037;0.095;-0.045204028487205505;0.006108652334660292;-0.004886921960860491
01:00:0A:00:00:00:00;1723594219;14/08/24;00:10:19;1.011;-0.032;0.094;-0.051312677562236786;-0.0036651913542300463;0.006108652334660292
01:00:0A:00:00:00:00;1723594220;14/08/24;00:10:20;1.005;-0.035;0.086;-0.05253440886735916;-0.006108652334660292;0.00855211354792118
01:00:0A:00:00:00:00;1723594221;14/08/24;00:10:21;1.006;-0.034;0.088;-0.04398229718208313;-0.009773843921720982;-0.010995574295520782
01:00:0A:00:00:00:00;1723594222;14/08/24;00:10:22;1.012;-0.03;0.094;-0.05375614017248154;-0.03176499158143997;-0.0024434609804302454
01:00:0A:00:00:00:00;1723594223;14/08/24;00:10:23;1.019;-0.038;0.089;-0.05253440886735916;-0.02321287989616394;-0.0012217304902151227
01:00:0A:00:00:00:00;1723594224;14/08/24;00:10:24;1.019;-0.037;0.096;-0.04642575979232788;-0.009773843921720982;-0.004886921960860491
01:00:0A:00:00:00:00;1723594225;14/08/24;00:10:25;1.017;-0.032;0.099;-0.05375614017248154;-0.018325956538319588;0.0036651913542300463
01:00:0A:00:00:00:00;1723594226;14/08/24;00:10:26;1.016;-0.039;0.088;-0.05009094998240471;-0.013439035043120384;0.0036651913542300463
01:00:0A:00:00:00:00;1723594227;14/08/24;00:10:27;1.011;-0.035;0.099;-0.040317103266716;0.0073303827084600925;-0.0036651913542300463
01:00:0A:00:00:00:00;1723594228;14/08/24;00:10:28;1.01;-0.034;0.097;-0.04764748737215996;-0.014660765416920185;0.0036651913542300463
01:00:0A:00:00:00:00;1723594229;14/08/24;00:10:29;1.013;-0.039;0.087;-0.040317103266716;-0.00855211354792118;0.006108652334660292
01:00:0A:00:00:00:00;1723594230;14/08/24;00:10:30;1.015;-0.034;0.093;-0.030543262138962746;0.0073303827084600925;0.0024434609804302454
01:00:0A:00:00:00:00;1723594231;14/08/24;00:10:31;1.016;-0.033;0.091;-0.036651913076639175;-0.014660765416920185;0.009773843921720982
01:00:0A:00:00:00:00;1723594232;14/08/24;00:10:32;1.011;-0.034;0.078;-0.02932153083384037;-0.013439035043120384;0.0024434609804302454
01:00:0A:00:00:00:00;1723594233;14/08/24;00:10:33;1.009;-0.033;0.09;-0.018325956538319588;-0.0012217304902151227;-0.0036651913542300463
01:00:0A:00:00:00:00;1723594234;14/08/24;00:10:34;1.006;-0.034;0.093;-0.02687807008624077;-0.03420845419168472;-0.0036651913542300463
01:00:0A:00:00:00:00;1723594235;14/08/24;00:10:35;1.007;-0.036;0.085;-0.015882495790719986;-0.013439035043120384;-0.0073303827084600925
01:00:0A:00:00:00:00;1723594236;14/08/24;00:10:36;1.013;-0.036;0.097;-0.010995574295520782;-0.006108652334660292;-0.004886921960860491
01:00:0A:00:00:00:00;1723594237;14/08/24;00:10:37;1.022;-0.041;0.1;-0.019547687843441963;-0.024434609338641167;0.006108652334660292
01:00:0A:00:00:00:00;1723594238;14/08/24;00:10:38;1.026;-0.04;0.086;-0.010995574295520782;-0.006108652334660292;0.009773843921720982
01:00:0A:00:00:00:00;1723594239;14/08/24;00:10:39;1.021;-0.036;0.097;-0.006108652334660292;0.015882495790719986;0.014660765416920185
01:00:0A:00:00:00:00;1723594240;14/08/24;00:10:40;1.016;-0.039;0.093;-0.014660765416920185;-0.013439035043120384;0.015882495790719986
01:00:0A:00:00:00:00;1723594241;14/08/24;00:10:41;1.007;-0.035;0.081;-0.006108652334660292;-0.006108652334660292;0.006108652334660292
01:00:0A:00:00:00:00;1723594242;14/08/24;00:10:42;1.001;-0.03;0.095;-0.004886921960860491;0.0024434609804302454;0.006108652334660292
01:00:0A:00:00:00:00;1723594243;14/08/24;00:10:43;1.004;-0.035;0.094;-0.012217304669320583;-0.03420845419168472;-0.004886921960860491
01:00:0A:00:00:00:00;1723594244;14/08/24;00:10:44;1.009;-0.035;0.083;-0.0024434609804302454;-0.00855211354792118;-0.012217304669320583
01:00:0A:00:00:00:00;1723594245;14/08/24;00:10:45;1.016;-0.033;0.096;-0.004886921960860491;-0.00855211354792118;-0.0036651913542300463
01:00:0A:00:00:00:00;1723594246;14/08/24;00:10:46;1.02;-0.039;0.096;-0.012217304669320583;-0.028099799528717995;0.0012217304902151227
01:00:0A:00:00:00:00;1723594247;14/08/24;00:10:47;1.022;-0.037;0.084;-0.0036651913542300463;-0.010995574295520782;-0.004886921960860491
01:00:0A:00:00:00:00;1723594248;14/08/24;00:10:48;1.02;-0.034;0.098;-0.0036651913542300463;0.004886921960860491;0.009773843921720982
01:00:0A:00:00:00:00;1723594249;14/08/24;00:10:49;1.018;-0.04;0.093;-0.010995574295520782;-0.02076941914856434;0.012217304669320583
01:00:0A:00:00:00:00;1723594250;14/08/24;00:10:50;1.015;-0.034;0.085;0.0;-0.0024434609804302454;0.004886921960860491
01:00:0A:00:00:00:00;1723594251;14/08/24;00:10:51;1.011;-0.034;0.097;-0.0024434609804302454;0.00855211354792118;0.015882495790719986
01:00:0A:00:00:00:00;1723594252;14/08/24;00:10:52;1.01;-0.038;0.087;-0.0073303827084600925;-0.024434609338641167;0.006108652334660292
01:00:0A:00:00:00:00;1723594253;14/08/24;00:10:53;1.008;-0.033;0.081;0.0036651913542300463;-0.006108652334660292;-0.0012217304902151227
01:00:0A:00:00:00:00;1723594254;14/08/24;00:10:54;1.008;-0.033;0.097;-0.0012217304902151227;-0.013439035043120384;0.010995574295520782
01:00:0A:00:00:00:00;1723594255;14/08/24;00:10:55;1.012;-0.036;0.092;-0.004886921960860491;-0.03420845419168472;0.0
01:00:0A:00:00:00:00;1723594256;14/08/24;00:10:56;1.013;-0.03;0.085;0.006108652334660292;-0.0036651913542300463;-0.004886921960860491
01:00:0A:00:00:00:00;1723594257;14/08/24;00:10:57;1.018;-0.033;0.1;0.0;-0.00855211354792118;0.0024434609804302454
01:00:0A:00:00:00:00;1723594258;14/08/24;00:10:58;1.019;-0.039;0.09;-0.0024434609804302454;-0.02321287989616394;-0.0036651913542300463
01:00:0A:00:00:00:00;1723594259;14/08/24;00:10:59;1.018;-0.035;0.086;0.0073303827084600925;0.0024434609804302454;-0.0036651913542300463
01:00:0A:00:00:00:00;1723594260;14/08/24;00:11:00;1.017;-0.039;0.099;0.0012217304902151227;0.0;0.010995574295520782
01:00:0A:00:00:00:00;1723594261;14/08/24;00:11:01;1.013;-0.04;0.086;-0.0024434609804302454;-0.024434609338641167;0.009773843921720982
01:00:0A:00:00:00:00;1723594262;14/08/24;00:11:02;1.009;-0.032;0.085;0.0073303827084600925;-0.0024434609804302454;0.0073303827084600925
01:00:0A:00:00:00:00;1723594263;14/08/24;00:11:03;1.007;-0.033;0.099;0.0012217304902151227;-0.013439035043120384;0.013439035043120384
01:00:0A:00:00:00:00;1723594264;14/08/24;00:11:04;1.011;-0.034;0.088;0.0012217304902151227;-0.030543262138962746;-0.0012217304902151227
01:00:0A:00:00:00:00;1723594265;14/08/24;00:11:05;1.014;-0.031;0.089;0.009773843921720982;0.0012217304902151227;-0.0012217304902151227
01:00:0A:00:00:00:00;1723594266;14/08/24;00:11:06;1.016;-0.035;0.102;0.0024434609804302454;-0.013439035043120384;0.0036651913542300463
01:00:0A:00:00:00:00;1723594267;14/08/24;00:11:07;1.016;-0.037;0.087;0.0024434609804302454;-0.02321287989616394;-0.0024434609804302454
01:00:0A:00:00:00:00;1723594268;14/08/24;00:11:08;1.015;-0.033;0.088;0.009773843921720982;0.00855211354792118;0.004886921960860491
01:00:0A:00:00:00:00;1723594269;14/08/24;00:11:09;1.013;-0.034;0.098;0.0012217304902151227;-0.013439035043120384;0.00855211354792118
01:00:0A:00:00:00:00;1723594270;14/08/24;00:11:10;1.013;-0.035;0.083;0.0036651913542300463;-0.02321287989616394;-0.0036651913542300463
01:00:0A:00:00:00:00;1723594271;14/08/24;00:11:11;1.013;-0.033;0.089;0.010995574295520782;0.0036651913542300463;-0.0012217304902151227
01:00:0A:00:00:00:00;1723594272;14/08/24;00:11:12;1.013;-0.039;0.1;0.0024434609804302454;-0.015882495790719986;0.0036651913542300463
01:00:0A:00:00:00:00;1723594273;14/08/24;00:11:13;1.016;-0.038;0.083;0.0024434609804302454;-0.02321287989616394;0.0024434609804302454
01:00:0A:00:00:00:00;1723594274;14/08/24;00:11:14;1.015;-0.034;0.091;0.00855211354792118;0.0036651913542300463;0.012217304669320583
01:00:0A:00:00:00:00;1723594275;14/08/24;00:11:15;1.012;-0.035;0.1;0.0012217304902151227;-0.015882495790719986;0.014660765416920185
01:00:0A:00:00:00:00;1723594276;14/08/24;00:11:16;1.014;-0.032;0.085;0.006108652334660292;-0.01710422709584236;0.0012217304902151227
01:00:0A:00:00:00:00;1723594277;14/08/24;00:11:17;1.014;-0.031;0.089;0.012217304669320583;0.00855211354792118;0.0036651913542300463
01:00:0A:00:00:00:00;1723594278;14/08/24;00:11:18;1.013;-0.036;0.096;0.0036651913542300463;-0.021991148591041565;0.0012217304902151227
01:00:0A:00:00:00:00;1723594279;14/08/24;00:11:19;1.012;-0.038;0.084;0.00855211354792118;-0.024434609338641167;-0.006108652334660292
01:00:0A:00:00:00:00;1723594280;14/08/24;00:11:20;1.013;-0.036;0.092;0.012217304669320583;0.0024434609804302454;0.004886921960860491
01:00:0A:00:00:00:00;1723594281;14/08/24;00:11:21;1.015;-0.04;0.099;0.004886921960860491;-0.025656338781118393;0.0073303827084600925
01:00:0A:00:00:00:00;1723594282;14/08/24;00:11:22;1.018;-0.036;0.084;0.00855211354792118;-0.015882495790719986;0.006108652334660292
01:00:0A:00:00:00:00;1723594283;14/08/24;00:11:23;1.018;-0.032;0.096;0.013439035043120384;0.012217304669320583;0.010995574295520782
01:00:0A:00:00:00:00;1723594284;14/08/24;00:11:24;1.013;-0.034;0.097;0.006108652334660292;-0.012217304669320583;0.00855211354792118
01:00:0A:00:00:00:00;1723594285;14/08/24;00:11:25;1.008;-0.033;0.081;0.010995574295520782;-0.013439035043120384;0.0012217304902151227
01:00:0A:00:00:00:00;1723594286;14/08/24;00:11:26;1.005;-0.032;0.092;0.013439035043120384;0.0036651913542300463;0.0073303827084600925
01:00:0A:00:00:00:00;1723594287;14/08/24;00:11:27;1.006;-0.036;0.097;0.004886921960860491;-0.03176499158143997;0.0012217304902151227
01:00:0A:00:00:00:00;1723594288;14/08/24;00:11:28;1.014;-0.036;0.084;0.012217304669320583;-0.01710422709584236;-0.0073303827084600925
01:00:0A:00:00:00:00;1723594289;14/08/24;00:11:29;1.021;-0.034;0.095;0.014660765416920185;0.0012217304902151227;0.006108652334660292
01:00:0A:00:00:00:00;1723594290;14/08/24;00:11:30;1.021;-0.04;0.099;0.006108652334660292;-0.02321287989616394;0.0073303827084600925
01:00:0A:00:00:00:00;1723594291;14/08/24;00:11:31;1.018;-0.038;0.085;0.010995574295520782;-0.01710422709584236;0.0036651913542300463
01:00:0A:00:00:00:00;1723594292;14/08/24;00:11:32;1.015;-0.035;0.096;0.013439035043120384;0.006108652334660292;0.013439035043120384
01:00:0A:00:00:00:00;1723594293;14/08/24;00:11:33;1.012;-0.04;0.096;0.004886921960860491;-0.02076941914856434;0.012217304669320583
01:00:0A:00:00:00:00;1723594294;14/08/24;00:11:34;1.012;-0.035;0.083;0.012217304669320583;-0.010995574295520782;0.0024434609804302454
01:00:0A:00:00:00:00;1723594295;14/08/24;00:11:35;1.01;-0.031;0.095;0.013439035043120384;0.0024434609804302454;0.0073303827084600925
01:00:0A:00:00:00:00;1723594296;14/08/24;00:11:36;1.011;-0.035;0.095;0.004886921960860491;-0.024434609338641167;0.0036651913542300463
01:00:0A:00:00:00:00;1723594297;14/08/24;00:11:37;1.01;-0.032;0.082;0.012217304669320583;-0.012217304669320583;-0.004886921960860491
01:00:0A:00:00:00:00;1723594298;14/08/24;00:11:38;1.011;-0.033;0.096;0.012217304669320583;-0.0024434609804302454;0.0036651913542300463
01:00:0A:00:00:00:00;1723594299;14/08/24;00:11:39;1.012;-0.038;0.095;0.0036651913542300463;-0.03298672288656235;0.0
01:00:0A:00:00:00:00;1723594300;14/08/24;00:11:40;1.016;-0.035;0.084;0.010995574295520782;-0.013439035043120384;-0.004886921960860491
01:00:0A:00:00:00:00;1723594301;14/08/24;00:11:41;1.015;-0.034;0.097;0.009773843921720982;-0.0012217304902151227;0.006108652334660292
01:00:0A:00:00:00:00;1723594302;14/08/24;00:11:42;1.016;-0.039;0.095;0.0012217304902151227;-0.02932153083384037;0.0036651913542300463
01:00:0A:00:00:00:00;1723594303;14/08/24;00:11:43;1.018;-0.034;0.084;0.009773843921720982;-0.0073303827084600925;0.0012217304902151227
01:00:0A:00:00:00:00;1723594304;14/08/24;00:11:44;1.016;-0.034;0.098;0.0073303827084600925;0.004886921960860491;0.010995574295520782
01:00:0A:00:00:00:00;1723594305;14/08/24;00:11:45;1.017;-0.039;0.091;0.0;-0.02321287989616394;0.006108652334660292
01:00:0A:00:00:00:00;1723594306;14/08/24;00:11:46;1.016;-0.033;0.082;0.00855211354792118;-0.004886921960860491;0.0036651913542300463
01:00:0A:00:00:00:00;1723594307;14/08/24;00:11:47;1.01;-0.032;0.099;0.006108652334660292;0.004886921960860491;0.009773843921720982
01:00:0A:00:00:00:00;1723594308;14/08/24;00:11:48;1.009;-0.038;0.091;-0.0012217304902151227;-0.02321287989616394;0.0036651913542300463
01:00:0A:00:00:00:00;1723594309;14/08/24;00:11:49;1.008;-0.032;0.081;0.0073303827084600925;-0.004886921960860491;-0.0036651913542300463
01:00:0A:00:00:00:00;1723594310;14/08/24;00:11:50;1.009;-0.034;0.095;0.0036651913542300463;-0.0073303827084600925;0.004886921960860491
01:00:0A:00:00:00:00;1723594311;14/08/24;00:11:51;1.014;-0.039;0.091;-0.0024434609804302454;-0.03420845419168472;-0.0024434609804302454
01:00:0A:00:00:00:00;1723594312;14/08/24;00:11:52;1.017;-0.033;0.084;0.0073303827084600925;-0.0073303827084600925;-0.0036651913542300463
01:00:0A:00:00:00:00;1723594313;14/08/24;00:11:53;1.018;-0.034;0.101;0.0024434609804302454;-0.0024434609804302454;0.010995574295520782
01:00:0A:00:00:00:00;1723594314;14/08/24;00:11:54;1.016;-0.038;0.091;-0.0024434609804302454;-0.02321287989616394;0.006108652334660292
01:00:0A:00:00:00:00;1723594315;14/08/24;00:11:55;1.013;-0.033;0.085;0.0073303827084600925;0.0012217304902151227;0.0024434609804302454
01:00:0A:00:00:00:00;1723594316;14/08/24;00:11:56;1.01;-0.033;0.097;0.0036651913542300463;0.0012217304902151227;0.010995574295520782
01:00:0A:00:00:00:00;1723594317;14/08/24;00:11:57;1.011;-0.037;0.086;-0.0024434609804302454;-0.02687807008624077;0.0024434609804302454
01:00:0A:00:00:00:00;1723594318;14/08/24;00:11:58;1.011;-0.032;0.082;0.00855211354792118;-0.0073303827084600925;-0.0024434609804302454
01:00:0A:00:00:00:00;1723594319;14/08/24;00:11:59;1.012;-0.034;0.1;0.0024434609804302454;-0.012217304669320583;0.004886921960860491
01:00:0A:00:00:00:00;1723594320;14/08/24;00:12:00;1.014;-0.039;0.092;-0.0024434609804302454;-0.025656338781118393;0.0024434609804302454
01:00:0A:00:00:00:00;1723594321;14/08/24;00:12:01;1.016;-0.034;0.086;0.00855211354792118;0.0012217304902151227;-0.0012217304902151227
01:00:0A:00:00:00:00;1723594322;14/08/24;00:12:02;1.016;-0.028;0.101;-0.028099799528717995;0.0;-0.0012217304902151227
01:00:0A:00:00:00:00;1723594323;14/08/24;00:12:03;1.016;-0.033;0.093;-0.08429940044879913;-0.024434609338641167;0.009773843921720982
01:00:0A:00:00:00:00;1723594324;14/08/24;00:12:04;1.016;-0.032;0.087;-0.09896016865968704;0.0;0.006108652334660292
01:00:0A:00:00:00:00;1723594325;14/08/24;00:12:05;1.01;-0.039;0.095;-0.09285151958465576;0.0;0.009773843921720982
01:00:0A:00:00:00:00;1723594326;14/08/24;00:12:06;1.007;-0.034;0.089;-0.08552113175392151;-0.021991148591041565;-0.013439035043120384
01:00:0A:00:00:00:00;1723594327;14/08/24;00:12:07;1.007;-0.029;0.085;-0.08307767659425735;-0.009773843921720982;-0.004886921960860491
01:00:0A:00:00:00:00;1723594328;14/08/24;00:12:08;1.008;-0.04;0.095;-0.080634206533432;-0.012217304669320583;-0.0036651913542300463
01:00:0A:00:00:00:00;1723594329;14/08/24;00:12:09;1.016;-0.038;0.092;-0.07452555745840073;-0.021991148591041565;-0.018325956538319588
01:00:0A:00:00:00:00;1723594330;14/08/24;00:12:10;1.017;-0.032;0.089;-0.07452555745840073;-0.00855211354792118;0.0
01:00:0A:00:00:00:00;1723594331;14/08/24;00:12:11;1.019;-0.042;0.097;-0.07330382615327835;-0.0036651913542300463;0.010995574295520782
01:00:0A:00:00:00:00;1723594332;14/08/24;00:12:12;1.017;-0.037;0.092;-0.06719517707824707;-0.012217304669320583;-0.004886921960860491
01:00:0A:00:00:00:00;1723594333;14/08/24;00:12:13;1.013;-0.031;0.089;-0.06841690838336945;-0.0024434609804302454;0.009773843921720982
01:00:0A:00:00:00:00;1723594334;14/08/24;00:12:14;1.009;-0.039;0.092;-0.06841690838336945;-0.006108652334660292;0.009773843921720982
01:00:0A:00:00:00:00;1723594335;14/08/24;00:12:15;1.011;-0.034;0.09;-0.05864306166768074;-0.014660765416920185;-0.014660765416920185
01:00:0A:00:00:00:00;1723594336;14/08/24;00:12:16;1.012;-0.029;0.09;-0.06230825558304787;-0.006108652334660292;0.006108652334660292
01:00:0A:00:00:00:00;1723594337;14/08/24;00:12:17;1.011;-0.04;0.093;-0.059864792972803116;-0.009773843921720982;0.0024434609804302454
01:00:0A:00:00:00:00;1723594338;14/08/24;00:12:18;1.01;-0.033;0.09;-0.05253440886735916;-0.014660765416920185;-0.019547687843441963
01:00:0A:00:00:00:00;1723594339;14/08/24;00:12:19;1.014;-0.03;0.09;-0.05864306166768074;-0.010995574295520782;0.0024434609804302454
01:00:0A:00:00:00:00;1723594340;14/08/24;00:12:20;1.017;-0.044;0.094;-0.05497787147760391;-0.012217304669320583;-0.0012217304902151227
01:00:0A:00:00:00:00;1723594341;14/08/24;00:12:21;1.017;-0.034;0.092;-0.04886921867728233;-0.009773843921720982;-0.00855211354792118
01:00:0A:00:00:00:00;1723594342;14/08/24;00:12:22;1.016;-0.032;0.092;-0.05619959905743599;-0.0073303827084600925;0.015882495790719986
01:00:0A:00:00:00:00;1723594343;14/08/24;00:12:23;1.012;-0.041;0.091;-0.051312677562236786;-0.0073303827084600925;0.0073303827084600925
01:00:0A:00:00:00:00;1723594344;14/08/24;00:12:24;1.01;-0.029;0.091;-0.045204028487205505;-0.009773843921720982;-0.013439035043120384
01:00:0A:00:00:00:00;1723594345;14/08/24;00:12:25;1.01;-0.031;0.09;-0.05497787147760391;-0.013439035043120384;0.0073303827084600925
01:00:0A:00:00:00:00;1723594346;14/08/24;00:12:26;1.013;-0.041;0.09;-0.04642575979232788;-0.010995574295520782;-0.00855211354792118
01:00:0A:00:00:00:00;1723594347;14/08/24;00:12:27;1.017;-0.033;0.093;-0.04398229718208313;-0.009773843921720982;-0.012217304669320583
01:00:0A:00:00:00:00;1723594348;14/08/24;00:12:28;1.016;-0.034;0.091;-0.05497787147760391;-0.013439035043120384;0.015882495790719986
01:00:0A:00:00:00:00;1723594349;14/08/24;00:12:29;1.012;-0.041;0.089;-0.04642575979232788;-0.0073303827084600925;0.0036651913542300463
01:00:0A:00:00:00:00;1723594350;14/08/24;00:12:30;1.008;-0.03;0.093;-0.04398229718208313;-0.009773843921720982;-0.0073303827084600925
01:00:0A:00:00:00:00;1723594351;14/08/24;00:12:31;1.009;-0.031;0.089;-0.05497787147760391;-0.018325956538319588;0.012217304669320583
01:00:0A:00:00:00:00;1723594352;14/08/24;00:12:32;1.014;-0.04;0.089;-0.04398229718208313;-0.0073303827084600925;-0.00855211354792118
01:00:0A:00:00:00:00;1723594353;14/08/24;00:12:33;1.017;-0.03;0.096;-0.045204028487205505;-0.010995574295520782;-0.00855211354792118
01:00:0A:00:00:00:00;1723594354;14/08/24;00:12:34;1.017;-0.035;0.092;-0.05375614017248154;-0.013439035043120384;0.00855211354792118
01:00:0A:00:00:00:00;1723594355;14/08/24;00:12:35;1.017;-0.04;0.09;-0.04398229718208313;-0.0024434609804302454;-0.0012217304902151227
01:00:0A:00:00:00:00;1723594356;14/08/24;00:12:36;1.013;-0.029;0.096;-0.04642575979232788;-0.004886921960860491;-0.0036651913542300463
01:00:0A:00:00:00:00;1723594357;14/08/24;00:12:37;1.009;-0.032;0.089;-0.05619959905743599;-0.01710422709584236;0.009773843921720982
01:00:0A:00:00:00:00;1723594358;14/08/24;00:12:38;1.008;-0.038;0.089;-0.045204028487205505;-0.0024434609804302454;-0.006108652334660292
01:00:0A:00:00:00:00;1723594359;14/08/24;00:12:39;1.012;-0.02;0.09;-0.05619959905743599;-0.014660765416920185;-0.014660765416920185
01:00:0A:00:00:00:00;1723594360;14/08/24;00:12:40;1.015;-0.037;0.089;-0.07330382615327835;-0.014660765416920185;0.025656338781118393
01:00:0A:00:00:00:00;1723594361;14/08/24;00:12:41;1.016;-0.047;0.093;-0.051312677562236786;-0.0036651913542300463;-0.013439035043120384
01:00:0A:00:00:00:00;1723594362;14/08/24;00:12:42;1.014;-0.024;0.093;-0.05619959905743599;-0.015882495790719986;-0.009773843921720982
01:00:0A:00:00:00:00;1723594363;14/08/24;00:12:43;1.012;-0.035;0.089;-0.0708603635430336;-0.018325956538319588;0.024434609338641167
01:00:0A:00:00:00:00;1723594364;14/08/24;00:12:44;1.013;-0.044;0.092;-0.04886921867728233;0.0012217304902151227;-0.013439035043120384
01:00:0A:00:00:00:00;1723594365;14/08/24;00:12:45;1.014;-0.025;0.096;-0.05375614017248154;-0.012217304669320583;-0.013439035043120384
01:00:0A:00:00:00:00;1723594366;14/08/24;00:12:46;1.015;-0.034;0.086;-0.06719517707824707;-0.01710422709584236;0.018325956538319588
01:00:0A:00:00:00:00;1723594367;14/08/24;00:12:47;1.016;-0.043;0.089;-0.04886921867728233;0.0;-0.006108652334660292
01:00:0A:00:00:00:00;1723594368;14/08/24;00:12:48;1.014;-0.029;0.099;-0.051312677562236786;-0.012217304669320583;-0.010995574295520782
01:00:0A:00:00:00:00;1723594369;14/08/24;00:12:49;1.012;-0.034;0.085;-0.06352998316287994;-0.018325956538319588;0.01710422709584236
01:00:0A:00:00:00:00;1723594370;14/08/24;00:12:50;1.01;-0.042;0.089;-0.04642575979232788;0.0012217304902151227;-0.004886921960860491
01:00:0A:00:00:00:00;1723594371;14/08/24;00:12:51;1.012;-0.029;0.097;-0.05009094998240471;-0.018325956538319588;-0.010995574295520782
01:00:0A:00:00:00:00;1723594372;14/08/24;00:12:52;1.016;-0.033;0.086;-0.059864792972803116;-0.02321287989616394;0.009773843921720982
01:00:0A:00:00:00:00;1723594373;14/08/24;00:12:53;1.017;-0.042;0.092;-0.045204028487205505;0.0024434609804302454;-0.0024434609804302454
01:00:0A:00:00:00:00;1723594374;14/08/24;00:12:54;1.016;-0.031;0.098;-0.04764748737215996;-0.0073303827084600925;-0.006108652334660292
01:00:0A:00:00:00:00;1723594375;14/08/24;00:12:55;1.01;-0.033;0.087;-0.05619959905743599;-0.015882495790719986;0.012217304669320583
01:00:0A:00:00:00:00;1723594376;14/08/24;00:12:56;1.009;-0.038;0.089;-0.04398229718208313;0.004886921960860491;0.0024434609804302454
01:00:0A:00:00:00:00;1723594377;14/08/24;00:12:57;1.008;-0.033;0.096;-0.045204028487205505;-0.018325956538319588;-0.010995574295520782
01:00:0A:00:00:00:00;1723594378;14/08/24;00:12:58;1.011;-0.033;0.085;-0.05253440886735916;-0.02076941914856434;0.004886921960860491
01:00:0A:00:00:00:00;1723594379;14/08/24;00:12:59;1.016;-0.039;0.09;-0.04398229718208313;-0.006108652334660292;-0.0036651913542300463
01:00:0A:00:00:00:00;1723594380;14/08/24;00:13:00;1.018;-0.035;0.098;-0.045204028487205505;-0.018325956538319588;-0.00855211354792118
01:00:0A:00:00:00:00;1723594381;14/08/24;00:13:01;1.019;-0.033;0.087;-0.051312677562236786;-0.012217304669320583;0.00855211354792118
01:00:0A:00:00:00:00;1723594382;14/08/24;00:13:02;1.017;-0.039;0.091;-0.042760565876960754;0.004886921960860491;0.006108652334660292
01:00:0A:00:00:00:00;1723594383;14/08/24;00:13:03;1.012;-0.033;0.095;-0.042760565876960754;-0.010995574295520782;-0.004886921960860491
01:00:0A:00:00:00:00;1723594384;14/08/24;00:13:04;1.009;-0.033;0.088;-0.04886921867728233;-0.01710422709584236;0.0036651913542300463
01:00:0A:00:00:00:00;1723594385;14/08/24;00:13:05;1.009;-0.04;0.09;-0.042760565876960754;-0.0024434609804302454;0.0024434609804302454
01:00:0A:00:00:00:00;1723594386;14/08/24;00:13:06;1.013;-0.035;0.095;-0.04153883829712868;-0.015882495790719986;-0.0073303827084600925
01:00:0A:00:00:00:00;1723594387;14/08/24;00:13:07;1.016;-0.031;0.088;-0.04642575979232788;-0.01710422709584236;0.0036651913542300463
01:00:0A:00:00:00:00;1723594388;14/08/24;00:13:08;1.016;-0.038;0.092;-0.04153883829712868;-0.0036651913542300463;0.0036651913542300463
01:00:0A:00:00:00:00;1723594389;14/08/24;00:13:09;1.016;-0.035;0.095;-0.04153883829712868;-0.010995574295520782;-0.006108652334660292
01:00:0A:00:00:00:00;1723594390;14/08/24;00:13:10;1.013;-0.033;0.089;-0.04642575979232788;-0.012217304669320583;0.0073303827084600925
01:00:0A:00:00:00:00;1723594391;14/08/24;00:13:11;1.012;-0.038;0.091;-0.04153883829712868;-0.0036651913542300463;0.004886921960860491
01:00:0A:00:00:00:00;1723594392;14/08/24;00:13:12;1.011;-0.034;0.093;-0.040317103266716;-0.013439035043120384;-0.0073303827084600925
01:00:0A:00:00:00:00;1723594393;14/08/24;00:13:13;1.015;-0.031;0.09;-0.045204028487205505;-0.015882495790719986;0.0036651913542300463
01:00:0A:00:00:00:00;1723594394;14/08/24;00:13:14;1.016;-0.037;0.091;-0.04153883829712868;-0.0073303827084600925;0.0024434609804302454
01:00:0A:00:00:00:00;1723594395;14/08/24;00:13:15;1.016;-0.035;0.093;-0.040317103266716;-0.009773843921720982;-0.004886921960860491
01:00:0A:00:00:00:00;1723594396;14/08/24;00:13:16;1.015;-0.032;0.089;-0.045204028487205505;-0.010995574295520782;0.0036651913542300463
01:00:0A:00:00:00:00;1723594397;14/08/24;00:13:17;1.011;-0.038;0.09;-0.04153883829712868;-0.0073303827084600925;0.0036651913542300463
01:00:0A:00:00:00:00;1723594398;14/08/24;00:13:18;1.01;-0.032;0.094;-0.040317103266716;-0.012217304669320583;-0.006108652334660292
01:00:0A:00:00:00:00;1723594399;14/08/24;00:13:19;1.013;-0.033;0.09;-0.045204028487205505;-0.015882495790719986;0.0012217304902151227
01:00:0A:00:00:00:00;1723594400;14/08/24;00:13:20;1.015;-0.038;0.091;-0.04153883829712868;-0.00855211354792118;-0.0024434609804302454
01:00:0A:00:00:00:00;1723594401;14/08/24;00:13:21;1.016;-0.035;0.092;-0.039095375686883926;-0.00855211354792118;-0.004886921960860491
01:00:0A:00:00:00:00;1723594402;14/08/24;00:13:22;1.015;-0.034;0.092;-0.04642575979232788;-0.013439035043120384;0.00855211354792118
01:00:0A:00:00:00:00;1723594403;14/08/24;00:13:23;1.013;-0.037;0.091;-0.042760565876960754;-0.0073303827084600925;0.004886921960860491
01:00:0A:00:00:00:00;1723594404;14/08/24;00:13:24;1.01;-0.034;0.094;-0.040317103266716;-0.009773843921720982;-0.0036651913542300463
01:00:0A:00:00:00:00;1723594405;14/08/24;00:13:25;1.011;-0.033;0.089;-0.04642575979232788;-0.01710422709584236;0.0024434609804302454
01:00:0A:00:00:00:00;1723594406;14/08/24;00:13:26;1.015;-0.036;0.089;-0.042760565876960754;-0.009773843921720982;-0.0012217304902151227
01:00:0A:00:00:00:00;1723594407;14/08/24;00:13:27;1.016;-0.034;0.095;-0.04153883829712868;-0.00855211354792118;-0.0024434609804302454
01:00:0A:00:00:00:00;1723594408;14/08/24;00:13:28;1.016;-0.035;0.091;-0.045204028487205505;-0.010995574295520782;0.004886921960860491
01:00:0A:00:00:00:00;1723594409;14/08/24;00:13:29;1.012;-0.036;0.089;-0.042760565876960754;-0.0073303827084600925;0.0024434609804302454
01:00:0A:00:00:00:00;1723594410;14/08/24;00:13:30;1.01;-0.033;0.093;-0.04153883829712868;-0.0073303827084600925;0.0
01:00:0A:00:00:00:00;1723594411;14/08/24;00:13:31;1.009;-0.034;0.091;-0.045204028487205505;-0.018325956538319588;0.0012217304902151227
01:00:0A:00:00:00:00;1723594412;14/08/24;00:13:32;1.011;-0.036;0.089;-0.042760565876960754;-0.012217304669320583;-0.0036651913542300463
01:00:0A:00:00:00:00;1723594413;14/08/24;00:13:33;1.016;-0.034;0.094;-0.04153883829712868;-0.009773843921720982;-0.0012217304902151227
01:00:0A:00:00:00:00;1723594414;14/08/24;00:13:34;1.018;-0.037;0.092;-0.045204028487205505;-0.01710422709584236;0.0024434609804302454
01:00:0A:00:00:00:00;1723594415;14/08/24;00:13:35;1.018;-0.036;0.09;-0.042760565876960754;-0.004886921960860491;0.0036651913542300463
01:00:0A:00:00:00:00;1723594416;14/08/24;00:13:36;1.013;-0.034;0.093;-0.04153883829712868;-0.0012217304902151227;0.004886921960860491
01:00:0A:00:00:00:00;1723594417;14/08/24;00:13:37;1.01;-0.036;0.09;-0.04398229718208313;-0.014660765416920185;0.0024434609804302454
01:00:0A:00:00:00:00;1723594418;14/08/24;00:13:38;1.011;-0.035;0.088;-0.040317103266716;-0.013439035043120384;-0.0024434609804302454
01:00:0A:00:00:00:00;1723594419;14/08/24;00:13:39;1.014;-0.034;0.093;-0.04153883829712868;-0.013439035043120384;0.0
01:00:0A:00:00:00:00;1723594420;14/08/24;00:13:40;1.017;-0.036;0.092;-0.042760565876960754;-0.014660765416920185;0.0012217304902151227
01:00:0A:00:00:00:00;1723594421;14/08/24;00:13:41;1.016;-0.035;0.09;-0.040317103266716;-0.006108652334660292;0.0012217304902151227
01:00:0A:00:00:00:00;1723594422;14/08/24;00:13:42;1.013;-0.036;0.095;-0.040317103266716;-0.0036651913542300463;0.006108652334660292
01:00:0A:00:00:00:00;1723594423;14/08/24;00:13:43;1.01;-0.034;0.09;-0.04153883829712868;-0.013439035043120384;0.0012217304902151227
01:00:0A:00:00:00:00;1723594424;14/08/24;00:13:44;1.01;-0.034;0.088;-0.03787364438176155;-0.00855211354792118;-0.0024434609804302454
01:00:0A:00:00:00:00;1723594425;14/08/24;00:13:45;1.011;-0.035;0.093;-0.039095375686883926;-0.010995574295520782;0.0
01:00:0A:00:00:00:00;1723594426;14/08/24;00:13:46;1.016;-0.038;0.091;-0.039095375686883926;-0.018325956538319588;-0.004886921960860491
01:00:0A:00:00:00:00;1723594427;14/08/24;00:13:47;1.017;-0.034;0.09;-0.036651913076639175;-0.0073303827084600925;0.0
01:00:0A:00:00:00:00;1723594428;14/08/24;00:13:48;1.015;-0.036;0.093;-0.039095375686883926;-0.004886921960860491;0.006108652334660292
01:00:0A:00:00:00:00;1723594429;14/08/24;00:13:49;1.012;-0.037;0.09;-0.03787364438176155;-0.013439035043120384;0.0
01:00:0A:00:00:00:00;1723594430;14/08/24;00:13:50;1.012;-0.033;0.089;-0.0354301817715168;-0.00855211354792118;0.0
01:00:0A:00:00:00:00;1723594431;14/08/24;00:13:51;1.011;-0.036;0.092;-0.036651913076639175;-0.009773843921720982;0.0024434609804302454
01:00:0A:00:00:00:00;1723594432;14/08/24;00:13:52;1.014;-0.037;0.092;-0.0354301817715168;-0.014660765416920185;-0.0024434609804302454
01:00:0A:00:00:00:00;1723594433;14/08/24;00:13:53;1.015;-0.033;0.089;-0.03420845419168472;-0.00855211354792118;0.0
01:00:0A:00:00:00:00;1723594434;14/08/24;00:13:54;1.014;-0.036;0.094;-0.0354301817715168;-0.009773843921720982;0.004886921960860491
01:00:0A:00:00:00:00;1723594435;14/08/24;00:13:55;1.014;-0.037;0.092;-0.03298672288656235;-0.014660765416920185;-0.0012217304902151227
01:00:0A:00:00:00:00;1723594436;14/08/24;00:13:56;1.013;-0.034;0.089;-0.03176499158143997;-0.0073303827084600925;0.0012217304902151227
01:00:0A:00:00:00:00;1723594437;14/08/24;00:13:57;1.012;-0.035;0.092;-0.03298672288656235;-0.0073303827084600925;0.0073303827084600925
01:00:0A:00:00:00:00;1723594438;14/08/24;00:13:58;1.012;-0.036;0.09;-0.03176499158143997;-0.015882495790719986;-0.0036651913542300463
01:00:0A:00:00:00:00;1723594439;14/08/24;00:13:59;1.013;-0.033;0.09;-0.030543262138962746;-0.009773843921720982;0.0
01:00:0A:00:00:00:00;1723594440;14/08/24;00:14:00;1.013;-0.036;0.092;-0.03176499158143997;-0.00855211354792118;0.004886921960860491
01:00:0A:00:00:00:00;1723594441;14/08/24;00:14:01;1.015;-0.037;0.091;-0.02932153083384037;-0.014660765416920185;-0.0024434609804302454
01:00:0A:00:00:00:00;1723594442;14/08/24;00:14:02;1.013;-0.035;0.09;-0.01710422709584236;-0.009773843921720982;0.00855211354792118
01:00:0A:00:00:00:00;1723594443;14/08/24;00:14:03;1.014;-0.039;0.092;-0.014660765416920185;-0.00855211354792118;0.0036651913542300463
01:00:0A:00:00:00:00;1723594444;14/08/24;00:14:04;1.013;-0.036;0.091;-0.0073303827084600925;-0.013439035043120384;0.0024434609804302454
01:00:0A:00:00:00:00;1723594445;14/08/24;00:14:05;1.012;-0.035;0.089;-0.006108652334660292;-0.010995574295520782;0.0024434609804302454
01:00:0A:00:00:00:00;1723594446;14/08/24;00:14:06;1.014;-0.036;0.093;-0.0073303827084600925;-0.012217304669320583;0.0
01:00:0A:00:00:00:00;1723594447;14/08/24;00:14:07;1.016;-0.036;0.092;-0.00855211354792118;-0.015882495790719986;0.0012217304902151227
01:00:0A:00:00:00:00;1723594448;14/08/24;00:14:08;1.017;-0.036;0.091;-0.00855211354792118;-0.0073303827084600925;0.0073303827084600925
01:00:0A:00:00:00:00;1723594449;14/08/24;00:14:09;1.014;-0.036;0.092;-0.00855211354792118;-0.004886921960860491;0.00855211354792118
01:00:0A:00:00:00:00;1723594450;14/08/24;00:14:10;1.012;-0.034;0.09;-0.00855211354792118;-0.012217304669320583;0.0024434609804302454
01:00:0A:00:00:00:00;1723594451;14/08/24;00:14:11;1.009;-0.032;0.089;-0.00855211354792118;-0.010995574295520782;0.0024434609804302454
01:00:0A:00:00:00:00;1723594452;14/08/24;00:14:12;1.014;-0.036;0.092;-0.00855211354792118;-0.013439035043120384;-0.0012217304902151227
01:00:0A:00:00:00:00;1723594453;14/08/24;00:14:13;1.017;-0.036;0.091;-0.00855211354792118;-0.015882495790719986;-0.0036651913542300463
01:00:0A:00:00:00:00;1723594454;14/08/24;00:14:14;1.017;-0.034;0.091;-0.009773843921720982;-0.009773843921720982;0.004886921960860491
01:00:0A:00:00:00:00;1723594455;14/08/24;00:14:15;1.016;-0.038;0.094;-0.00855211354792118;-0.00855211354792118;0.006108652334660292
01:00:0A:00:00:00:00;1723594456;14/08/24;00:14:16;1.014;-0.034;0.091;-0.00855211354792118;-0.010995574295520782;0.0036651913542300463
01:00:0A:00:00:00:00;1723594457;14/08/24;00:14:17;1.01;-0.033;0.089;-0.009773843921720982;-0.0073303827084600925;0.00855211354792118
01:00:0A:00:00:00:00;1723594458;14/08/24;00:14:18;1.009;-0.036;0.091;-0.00855211354792118;-0.012217304669320583;0.0
01:00:0A:00:00:00:00;1723594459;14/08/24;00:14:19;1.012;-0.033;0.09;-0.0073303827084600925;-0.015882495790719986;-0.004886921960860491
01:00:0A:00:00:00:00;1723594460;14/08/24;00:14:20;1.016;-0.034;0.091;-0.009773843921720982;-0.010995574295520782;0.004886921960860491
01:00:0A:00:00:00:00;1723594461;14/08/24;00:14:21;1.016;-0.039;0.093;-0.00855211354792118;-0.00855211354792118;0.006108652334660292
01:00:0A:00:00:00:00;1723594462;14/08/24;00:14:22;1.016;-0.034;0.09;-0.0073303827084600925;-0.012217304669320583;0.0
01:00:0A:00:00:00:00;1723594463;14/08/24;00:14:23;1.012;-0.035;0.09;-0.00855211354792118;-0.00855211354792118;0.00855211354792118
01:00:0A:00:00:00:00;1723594464;14/08/24;00:14:24;1.011;-0.037;0.093;-0.0073303827084600925;-0.009773843921720982;0.0036651913542300463
01:00:0A:00:00:00:00;1723594465;14/08/24;00:14:25;1.011;-0.034;0.091;-0.0073303827084600925;-0.013439035043120384;-0.0024434609804302454
01:00:0A:00:00:00:00;1723594466;14/08/24;00:14:26;1.012;-0.034;0.091;-0.00855211354792118;-0.010995574295520782;0.006108652334660292
01:00:0A:00:00:00:00;1723594467;14/08/24;00:14:27;1.014;-0.037;0.093;-0.0073303827084600925;-0.012217304669320583;0.0012217304902151227
01:00:0A:00:00:00:00;1723594468;14/08/24;00:14:28;1.016;-0.033;0.091;-0.006108652334660292;-0.012217304669320583;0.0
01:00:0A:00:00:00:00;1723594469;14/08/24;00:14:29;1.014;-0.035;0.09;-0.00855211354792118;-0.00855211354792118;0.00855211354792118
01:00:0A:00:00:00:00;1723594470;14/08/24;00:14:30;1.011;-0.038;0.091;-0.006108652334660292;-0.010995574295520782;0.0024434609804302454
01:00:0A:00:00:00:00;1723594471;14/08/24;00:14:31;1.012;-0.033;0.09;-0.006108652334660292;-0.013439035043120384;-0.0012217304902151227
01:00:0A:00:00:00:00;1723594472;14/08/24;00:14:32;1.014;-0.033;0.091;-0.0073303827084600925;-0.010995574295520782;0.006108652334660292
01:00:0A:00:00:00:00;1723594473;14/08/24;00:14:33;1.016;-0.039;0.093;-0.006108652334660292;-0.012217304669320583;0.0012217304902151227
01:00:0A:00:00:00:00;1723594474;14/08/24;00:14:34;1.016;-0.032;0.092;-0.004886921960860491;-0.012217304669320583;0.0
01:00:0A:00:00:00:00;1723594475;14/08/24;00:14:35;1.015;-0.034;0.092;-0.0073303827084600925;-0.00855211354792118;0.009773843921720982
01:00:0A:00:00:00:00;1723594476;14/08/24;00:14:36;1.012;-0.038;0.092;-0.004886921960860491;-0.009773843921720982;0.0036651913542300463
01:00:0A:00:00:00:00;1723594477;14/08/24;00:14:37;1.011;-0.033;0.09;-0.004886921960860491;-0.010995574295520782;0.0012217304902151227
01:00:0A:00:00:00:00;1723594478;14/08/24;00:14:38;1.012;-0.034;0.09;-0.0073303827084600925;-0.012217304669320583;0.006108652334660292
01:00:0A:00:00:00:00;1723594479;14/08/24;00:14:39;1.015;-0.039;0.091;-0.0036651913542300463;-0.014660765416920185;-0.0036651913542300463
01:00:0A:00:00:00:00;1723594480;14/08/24;00:14:40;1.017;-0.034;0.091;-0.0036651913542300463;-0.012217304669320583;0.0
01:00:0A:00:00:00:00;1723594481;14/08/24;00:14:41;1.016;-0.037;0.092;-0.006108652334660292;-0.00855211354792118;0.010995574295520782
01:00:0A:00:00:00:00;1723594482;14/08/24;00:14:42;1.013;-0.038;0.091;-0.0036651913542300463;-0.009773843921720982;0.0036651913542300463
01:00:0A:00:00:00:00;1723594483;14/08/24;00:14:43;1.012;-0.032;0.09;-0.0036651913542300463;-0.010995574295520782;0.0024434609804302454
01:00:0A:00:00:00:00;1723594484;14/08/24;00:14:44;1.012;-0.036;0.091;-0.004886921960860491;-0.010995574295520782;0.0073303827084600925
01:00:0A:00:00:00:00;1723594485;14/08/24;00:14:45;1.014;-0.036;0.09;-0.0024434609804302454;-0.013439035043120384;-0.0012217304902151227
01:00:0A:00:00:00:00;1723594486;14/08/24;00:14:46;1.014;-0.033;0.092;-0.0024434609804302454;-0.013439035043120384;0.0
01:00:0A:00:00:00:00;1723594487;14/08/24;00:14:47;1.016;-0.037;0.092;-0.004886921960860491;-0.010995574295520782;0.0073303827084600925
01:00:0A:00:00:00:00;1723594488;14/08/24;00:14:48;1.015;-0.038;0.092;-0.0012217304902151227;-0.010995574295520782;0.0012217304902151227
01:00:0A:00:00:00:00;1723594489;14/08/24;00:14:49;1.014;-0.034;0.091;-0.0024434609804302454;-0.010995574295520782;0.0036651913542300463
01:00:0A:00:00:00:00;1723594490;14/08/24;00:14:50;1.013;-0.035;0.091;-0.004886921960860491;-0.009773843921720982;0.00855211354792118
01:00:0A:00:00:00:00;1723594491;14/08/24;00:14:51;1.013;-0.037;0.092;0.0;-0.010995574295520782;-0.0024434609804302454
01:00:0A:00:00:00:00;1723594492;14/08/24;00:14:52;1.014;-0.034;0.091;-0.0024434609804302454;-0.012217304669320583;0.0024434609804302454
01:00:0A:00:00:00:00;1723594493;14/08/24;00:14:53;1.013;-0.037;0.091;-0.0036651913542300463;-0.010995574295520782;0.00855211354792118
01:00:0A:00:00:00:00;1723594494;14/08/24;00:14:54;1.014;-0.037;0.091;0.0;-0.012217304669320583;0.0
01:00:0A:00:00:00:00;1723594495;14/08/24;00:14:55;1.014;-0.032;0.092;-0.0024434609804302454;-0.010995574295520782;0.0036651913542300463
01:00:0A:00:00:00:00;1723594496;14/08/24;00:14:56;1.014;-0.038;0.092;-0.0024434609804302454;-0.010995574295520782;0.006108652334660292
01:00:0A:00:00:00:00;1723594497;14/08/24;00:14:57;1.013;-0.037;0.093;0.0012217304902151227;-0.010995574295520782;0.0
01:00:0A:00:00:00:00;1723594498;14/08/24;00:14:58;1.013;-0.033;0.09;-0.0012217304902151227;-0.010995574295520782;0.0036651913542300463
01:00:0A:00:00:00:00;1723594499;14/08/24;00:14:59;1.013;-0.038;0.091;-0.0024434609804302454;-0.010995574295520782;0.006108652334660292
01:00:0A:00:00:00:00;1723594500;14/08/24;00:15:00;1.014;-0.035;0.091;0.0012217304902151227;-0.012217304669320583;-0.0024434609804302454
01:00:0A:00:00:00:00;1723594501;14/08/24;00:15:01;1.015;-0.033;0.09;-0.0012217304902151227;-0.012217304669320583;0.004886921960860491
01:00:0A:00:00:00:00;1723594502;14/08/24;00:15:02;1.015;-0.037;0.091;-0.0024434609804302454;-0.009773843921720982;0.0073303827084600925
01:00:0A:00:00:00:00;1723594503;14/08/24;00:15:03;1.013;-0.036;0.091;0.0012217304902151227;-0.010995574295520782;-0.0012217304902151227
01:00:0A:00:00:00:00;1723594504;14/08/24;00:15:04;1.013;-0.033;0.09;-0.0024434609804302454;-0.010995574295520782;0.006108652334660292
01:00:0A:00:00:00:00;1723594505;14/08/24;00:15:05;1.012;-0.038;0.091;-0.0012217304902151227;-0.010995574295520782;0.004886921960860491
01:00:0A:00:00:00:00;1723594506;14/08/24;00:15:06;1.013;-0.035;0.091;0.0012217304902151227;-0.013439035043120384;-0.0036651913542300463
01:00:0A:00:00:00:00;1723594507;14/08/24;00:15:07;1.014;-0.033;0.09;-0.0024434609804302454;-0.012217304669320583;0.004886921960860491
01:00:0A:00:00:00:00;1723594508;14/08/24;00:15:08;1.016;-0.039;0.091;-0.0012217304902151227;-0.009773843921720982;0.006108652334660292
01:00:0A:00:00:00:00;1723594509;14/08/24;00:15:09;1.015;-0.034;0.092;0.0;-0.009773843921720982;0.0012217304902151227
01:00:0A:00:00:00:00;1723594510;14/08/24;00:15:10;1.012;-0.032;0.09;-0.0024434609804302454;-0.009773843921720982;0.00855211354792118
01:00:0A:00:00:00:00;1723594511;14/08/24;00:15:11;1.012;-0.038;0.09;0.0;-0.009773843921720982;0.0036651913542300463
01:00:0A:00:00:00:00;1723594512;14/08/24;00:15:12;1.012;-0.032;0.091;0.0012217304902151227;-0.013439035043120384;-0.0024434609804302454
01:00:0A:00:00:00:00;1723594513;14/08/24;00:15:13;1.015;-0.034;0.091;-0.0024434609804302454;-0.013439035043120384;0.004886921960860491
01:00:0A:00:00:00:00;1723594514;14/08/24;00:15:14;1.015;-0.038;0.092;0.0;-0.010995574295520782;0.0036651913542300463
01:00:0A:00:00:00:00;1723594515;14/08/24;00:15:15;1.016;-0.034;0.092;0.0012217304902151227;-0.010995574295520782;0.0
