Source;Epoch timestamp (UTC);Date;Time (UTC);Accel X (G);Accel Y (G);Accel Z (G);Gyro X (rad/s);Gyro Y (rad/s);Gyro Z (rad/s)
01:00:0A:00:00:00:00;1725235209;02/09/24;00:00:09;1.025;-0.319;0.064;-1.3377948999404907;0.5290092825889587;-0.4703662395477295
01:00:0A:00:00:00:00;1725235210;02/09/24;00:00:10;0.998;-0.101;-0.04;-1.5442672967910767;-0.4740314185619354;-0.2834414541721344
01:00:0A:00:00:00:00;1725235211;02/09/24;00:00:11;1.005;0.105;0.076;-1.4184291362762451;0.31154125928878784;0.1319468915462494
01:00:0A:00:00:00:00;1725235212;02/09/24;00:00:12;0.997;-0.147;0.098;-1.2363911867141724;0.11850785464048386;-0.006108652334660292
01:00:0A:00:00:00:00;1725235213;02/09/24;00:00:13;0.998;-0.047;0.413;-1.2681562900543213;0.06963863223791122;-0.3042108714580536
01:00:0A:00:00:00:00;1725235214;02/09/24;00:00:14;0.933;-0.365;0.063;-0.9236282110214233;-0.5155702233314514;-0.34086278080940247
01:00:0A:00:00:00:00;1725235215;02/09/24;00:00:15;0.912;0.365;0.108;-0.7648032903671265;-0.41783180832862854;0.010995574295520782
01:00:0A:00:00:00:00;1725235216;02/09/24;00:00:16;0.965;0.282;-0.093;-0.8674286603927612;-0.2895500957965851;0.720820963382721
01:00:0A:00:00:00:00;1725235217;02/09/24;00:00:17;1.041;-0.165;0.112;-0.6548475623130798;0.05619959905743599;-0.2382374405860901
01:00:0A:00:00:00:00;1725235218;02/09/24;00:00:18;0.988;0.127;0.063;-1.881464958190918;-0.3017674386501312;0.1869247555732727
01:00:0A:00:00:00:00;1725235219;02/09/24;00:00:19;0.982;0.088;-0.169;-1.4257594347000122;-0.1576032191514969;-0.29565879702568054
01:00:0A:00:00:00:00;1725235220;02/09/24;00:00:20;0.818;0.467;0.151;-1.4501941204071045;-0.4190535545349121;0.1514945775270462
01:00:0A:00:00:00:00;1725235221;02/09/24;00:00:21;0.949;0.03;0.244;-1.623679757118225;-0.8319984674453735;0.38606682419776917
01:00:0A:00:00:00:00;1725235222;02/09/24;00:00:22;0.979;-0.031;-0.107;-1.1020008325576782;0.5510004162788391;0.3090977966785431
01:00:0A:00:00:00:00;1725235223;02/09/24;00:00:23;1.034;-0.173;0.123;-0.797789990901947;-0.01710422709584236;-0.33964109420776367
01:00:0A:00:00:00:00;1725235224;02/09/24;00:00:24;0.983;0.289;0.17;-0.9089674949645996;0.039095375686883926;-0.1661553531885147
01:00:0A:00:00:00:00;1725235225;02/09/24;00:00:25;0.995;-0.133;-0.007;-1.0836749076843262;-0.38606682419776917;0.33719760179519653
01:00:0A:00:00:00:00;1725235226;02/09/24;00:00:26;0.971;-0.116;0.058;-0.6621779203414917;0.4899139106273651;-0.04886921867728233
01:00:0A:00:00:00:00;1725235227;02/09/24;00:00:27;0.98;-0.01;0.178;-0.7183775305747986;0.01710422709584236;-0.3274237811565399
01:00:0A:00:00:00:00;1725235228;02/09/24;00:00:28;1.016;0.005;0.155;-0.9798278212547302;-0.2028072476387024;0.06352998316287994
01:00:0A:00:00:00:00;1725235229;02/09/24;00:00:29;1.019;-0.094;-0.084;-0.8698720932006836;-0.01710422709584236;-0.0012217304902151227
01:00:0A:00:00:00:00;1725235230;02/09/24;00:00:30;1.007;-0.057;0.155;-0.7452555894851685;0.2480112910270691;-0.10995574295520782
01:00:0A:00:00:00:00;1725235231;02/09/24;00:00:31;1.002;-0.063;0.144;-0.8136724829673767;-0.1466076523065567;-0.1771509200334549
01:00:0A:00:00:00:00;1725235232;02/09/24;00:00:32;1.012;0.049;0.066;-0.7574728727340698;0.03787364438176155;-0.009773843921720982
01:00:0A:00:00:00:00;1725235233;02/09/24;00:00:33;1.014;-0.117;0.1;-0.6963863372802734;-0.036651913076639175;0.040317103266716
01:00:0A:00:00:00:00;1725235234;02/09/24;00:00:34;1.006;-0.07;0.045;-0.5229006409645081;0.10384709388017654;-0.161268413066864
01:00:0A:00:00:00:00;1725235235;02/09/24;00:00:35;0.999;-0.03;0.098;-0.5167919993400574;-0.051312677562236786;-0.012217304669320583
01:00:0A:00:00:00:00;1725235236;02/09/24;00:00:36;1.035;-0.074;0.026;-0.4447098970413208;-0.08674286305904388;-0.040317103266716
01:00:0A:00:00:00:00;1725235237;02/09/24;00:00:37;1.024;0.042;-0.043;-0.31642818450927734;-0.322536826133728;-0.2822197377681732
01:00:0A:00:00:00:00;1725235238;02/09/24;00:00:38;1.004;0.239;-0.167;-0.9419541358947754;0.31154125928878784;0.3323107063770294
01:00:0A:00:00:00:00;1725235239;02/09/24;00:00:39;0.996;-0.379;0.068;-0.6976081132888794;0.11850785464048386;0.1160643920302391
01:00:0A:00:00:00:00;1725235240;02/09/24;00:00:40;1.036;0.105;0.147;-0.5229006409645081;0.16249015927314758;-0.35674530267715454
01:00:0A:00:00:00:00;1725235241;02/09/24;00:00:41;1.029;0.01;0.1;-0.6890559792518616;-0.1673770695924759;0.09529497474431992
01:00:0A:00:00:00:00;1725235242;02/09/24;00:00:42;1.005;-0.08;-0.078;-0.5241223573684692;-0.09651670604944229;0.019547687843441963
01:00:0A:00:00:00:00;1725235243;02/09/24;00:00:43;0.976;-0.076;0.143;-0.3787364363670349;0.3494149148464203;0.040317103266716
01:00:0A:00:00:00:00;1725235244;02/09/24;00:00:44;0.974;-0.054;0.049;-0.4495967924594879;-0.2736676335334778;-0.16371189057826996
01:00:0A:00:00:00:00;1725235245;02/09/24;00:00:45;0.973;0.051;-0.002;-0.33964109420776367;0.22479839622974396;0.12461651116609573
01:00:0A:00:00:00:00;1725235246;02/09/24;00:00:46;0.993;-0.061;0.107;-0.33597588539123535;-0.1722639948129654;-0.1368338167667389
01:00:0A:00:00:00:00;1725235247;02/09/24;00:00:47;1.054;0.007;0.013;-0.2773328125476837;-0.021991148591041565;-0.07330382615327835
01:00:0A:00:00:00:00;1725235248;02/09/24;00:00:48;1.052;-0.049;0.112;-0.2773328125476837;0.00855211354792118;0.02076941914856434
01:00:0A:00:00:00:00;1725235249;02/09/24;00:00:49;1.027;-0.049;0.057;-0.2932153046131134;-0.08429940044879913;0.02932153083384037
01:00:0A:00:00:00:00;1725235250;02/09/24;00:00:50;1.002;-0.038;0.051;-0.2590068578720093;0.009773843921720982;0.015882495790719986
01:00:0A:00:00:00:00;1725235251;02/09/24;00:00:51;1.014;-0.044;0.072;-0.2724458873271942;-0.07330382615327835;-0.02932153083384037
01:00:0A:00:00:00:00;1725235252;02/09/24;00:00:52;1.049;-0.05;0.064;-0.2565633952617645;-0.02076941914856434;0.02687807008624077
01:00:0A:00:00:00:00;1725235253;02/09/24;00:00:53;1.041;-0.033;0.1;-0.24434609711170197;0.04398229718208313;0.004886921960860491
01:00:0A:00:00:00:00;1725235254;02/09/24;00:00:54;1.003;-0.001;0.047;-0.25534167885780334;-0.03298672288656235;0.02932153083384037
01:00:0A:00:00:00:00;1725235255;02/09/24;00:00:55;0.978;-0.008;0.075;-0.21135938167572021;0.10018189996480942;-0.019547687843441963
01:00:0A:00:00:00:00;1725235256;02/09/24;00:00:56;0.987;-0.036;0.073;-0.22357667982578278;-0.0757472887635231;-0.1368338167667389
01:00:0A:00:00:00:00;1725235257;02/09/24;00:00:57;1.015;-0.066;0.034;-0.22479839622974396;0.0036651913542300463;0.015882495790719986
01:00:0A:00:00:00:00;1725235258;02/09/24;00:00:58;1.025;-0.071;0.058;-0.20036379992961884;0.02321287989616394;0.06230825558304787
01:00:0A:00:00:00:00;1725235259;02/09/24;00:00:59;1.03;-0.008;0.107;-0.2223549485206604;-0.080634206533432;0.013439035043120384
01:00:0A:00:00:00:00;1725235260;02/09/24;00:01:00;1.076;-0.01;0.079;-0.11972958594560623;-0.012217304669320583;0.05742133408784866
01:00:0A:00:00:00:00;1725235261;02/09/24;00:01:01;1.016;-0.146;0.11;0.18325956165790558;0.028099799528717995;-0.07941248267889023
01:00:0A:00:00:00:00;1725235262;02/09/24;00:01:02;1.009;-0.006;0.06;0.45814892649650574;-0.006108652334660292;0.045204028487205505
01:00:0A:00:00:00:00;1725235263;02/09/24;00:01:03;1.016;-0.048;0.1;0.36529743671417236;0.006108652334660292;0.1368338167667389
01:00:0A:00:00:00:00;1725235264;02/09/24;00:01:04;1.016;-0.014;0.046;0.34086278080940247;-0.09651670604944229;-0.015882495790719986
01:00:0A:00:00:00:00;1725235265;02/09/24;00:01:05;1.016;0.006;0.016;0.3677408695220947;0.00855211354792118;-0.04398229718208313
01:00:0A:00:00:00:00;1725235266;02/09/24;00:01:06;1.015;-0.034;0.116;0.32131510972976685;-0.014660765416920185;0.015882495790719986
01:00:0A:00:00:00:00;1725235267;02/09/24;00:01:07;1.019;-0.056;0.072;0.2834414541721344;-0.0708603635430336;0.018325956538319588
01:00:0A:00:00:00:00;1725235268;02/09/24;00:01:08;1.01;-0.003;0.038;0.3017674386501312;0.0024434609804302454;-0.030543262138962746
01:00:0A:00:00:00:00;1725235269;02/09/24;00:01:09;1.008;-0.013;0.076;0.2675589621067047;0.04398229718208313;0.04764748737215996
01:00:0A:00:00:00:00;1725235270;02/09/24;00:01:10;1.01;-0.024;0.08;0.22357667982578278;-0.06963863223791122;0.04153883829712868
01:00:0A:00:00:00:00;1725235271;02/09/24;00:01:11;1.014;-0.046;0.04;0.24068090319633484;-0.02932153083384037;-0.0024434609804302454
01:00:0A:00:00:00:00;1725235272;02/09/24;00:01:12;0.998;-0.015;0.082;0.24678954482078552;0.03420845419168472;-0.018325956538319588
01:00:0A:00:00:00:00;1725235273;02/09/24;00:01:13;0.981;-0.041;0.072;0.19303341209888458;-0.06841690838336945;0.06475171446800232
01:00:0A:00:00:00:00;1725235274;02/09/24;00:01:14;1.002;-0.04;0.062;0.2223549485206604;-0.04642575979232788;-0.07330382615327835
01:00:0A:00:00:00:00;1725235275;02/09/24;00:01:15;1.029;-0.016;0.057;0.22113320231437683;-0.012217304669320583;0.010995574295520782
01:00:0A:00:00:00:00;1725235276;02/09/24;00:01:16;1.054;-0.06;0.089;0.20647244155406952;-0.0036651913542300463;0.021991148591041565
01:00:0A:00:00:00:00;1725235277;02/09/24;00:01:17;1.036;-0.048;0.059;0.19547687470912933;-0.0036651913542300463;0.03420845419168472
01:00:0A:00:00:00:00;1725235278;02/09/24;00:01:18;1.008;-0.023;0.054;0.19547687470912933;0.02687807008624077;0.04398229718208313
01:00:0A:00:00:00:00;1725235279;02/09/24;00:01:19;0.962;-0.1;0.164;0.19547687470912933;0.1270599663257599;0.16004669666290283
01:00:0A:00:00:00:00;1725235280;02/09/24;00:01:20;0.96;-0.114;0.171;0.1014036238193512;-0.16493360698223114;-0.06719517707824707
01:00:0A:00:00:00:00;1725235281;02/09/24;00:01:21;1.005;-0.079;0.128;0.07696902006864548;-0.042760565876960754;-0.013439035043120384
01:00:0A:00:00:00:00;1725235282;02/09/24;00:01:22;1.027;-0.008;0.049;0.08307767659425735;-0.06108652427792549;-0.08307767659425735
01:00:0A:00:00:00:00;1725235283;02/09/24;00:01:23;1.039;-0.013;0.062;0.08552113175392151;0.080634206533432;0.04642575979232788
01:00:0A:00:00:00:00;1725235284;02/09/24;00:01:24;1.011;-0.087;0.107;0.05009094998240471;0.02321287989616394;0.09162978082895279
01:00:0A:00:00:00:00;1725235285;02/09/24;00:01:25;1.0;-0.022;0.023;0.04642575979232788;-0.10384709388017654;-0.040317103266716
01:00:0A:00:00:00:00;1725235286;02/09/24;00:01:26;1.007;-0.064;0.169;0.012217304669320583;0.01710422709584236;0.06963863223791122
01:00:0A:00:00:00:00;1725235287;02/09/24;00:01:27;1.016;-0.02;0.04;-0.024434609338641167;-0.2174680233001709;-0.10995574295520782
01:00:0A:00:00:00:00;1725235288;02/09/24;00:01:28;1.018;-0.027;0.075;0.00855211354792118;0.08429940044879913;0.04642575979232788
01:00:0A:00:00:00:00;1725235289;02/09/24;00:01:29;1.017;-0.06;0.126;-0.014660765416920185;-0.03298672288656235;-0.04153883829712868
01:00:0A:00:00:00:00;1725235290;02/09/24;00:01:30;1.004;-0.047;0.041;-0.3677408695220947;0.019547687843441963;0.11484266817569733
01:00:0A:00:00:00:00;1725235291;02/09/24;00:01:31;1.008;-0.068;0.054;-0.2321287840604782;0.03787364438176155;-0.06475171446800232
01:00:0A:00:00:00:00;1725235292;02/09/24;00:01:32;1.005;0.003;0.096;-0.2370157092809677;-0.04764748737215996;-0.06108652427792549
01:00:0A:00:00:00:00;1725235293;02/09/24;00:01:33;1.018;-0.017;0.052;-0.2736676335334778;-0.09162978082895279;0.05375614017248154
01:00:0A:00:00:00:00;1725235294;02/09/24;00:01:34;1.02;-0.065;0.051;-0.18448130786418915;0.045204028487205505;-0.00855211354792118
01:00:0A:00:00:00:00;1725235295;02/09/24;00:01:35;1.005;-0.019;0.102;-0.1771509200334549;0.013439035043120384;0.07452555745840073
01:00:0A:00:00:00:00;1725235296;02/09/24;00:01:36;1.014;-0.081;0.034;-0.2577851116657257;-0.036651913076639175;-0.05619959905743599
01:00:0A:00:00:00:00;1725235297;02/09/24;00:01:37;1.016;-0.025;0.034;-0.19058994948863983;0.021991148591041565;0.00855211354792118
01:00:0A:00:00:00:00;1725235298;02/09/24;00:01:38;1.022;-0.04;0.084;-0.17959438264369965;0.012217304669320583;-0.009773843921720982
01:00:0A:00:00:00:00;1725235299;02/09/24;00:01:39;1.026;-0.029;0.082;-0.19303341209888458;-0.028099799528717995;-0.02076941914856434
01:00:0A:00:00:00:00;1725235300;02/09/24;00:01:40;1.028;-0.007;0.06;-0.1918116807937622;-0.0036651913542300463;0.040317103266716
01:00:0A:00:00:00:00;1725235301;02/09/24;00:01:41;1.009;-0.042;0.088;-0.16004669666290283;0.06230825558304787;0.015882495790719986
01:00:0A:00:00:00:00;1725235302;02/09/24;00:01:42;1.007;-0.017;0.069;-0.15393804013729095;-0.025656338781118393;-0.07941248267889023
01:00:0A:00:00:00:00;1725235303;02/09/24;00:01:43;1.011;-0.021;0.039;-0.14782939851284027;0.0036651913542300463;0.012217304669320583
01:00:0A:00:00:00:00;1725235304;02/09/24;00:01:44;1.009;-0.048;0.075;-0.13439035415649414;-0.013439035043120384;0.00855211354792118
01:00:0A:00:00:00:00;1725235305;02/09/24;00:01:45;0.997;-0.025;0.073;-0.1258382350206375;-0.03420845419168472;-0.0354301817715168
01:00:0A:00:00:00:00;1725235306;02/09/24;00:01:46;1.009;-0.026;0.081;-0.12828169763088226;-0.018325956538319588;0.0073303827084600925
01:00:0A:00:00:00:00;1725235307;02/09/24;00:01:47;1.025;-0.041;0.067;-0.1062905490398407;0.03298672288656235;-0.013439035043120384
01:00:0A:00:00:00:00;1725235308;02/09/24;00:01:48;1.036;-0.04;0.081;-0.1160643920302391;-0.006108652334660292;-0.0073303827084600925
01:00:0A:00:00:00:00;1725235309;02/09/24;00:01:49;1.023;-0.019;0.047;-0.12095131725072861;-0.03787364438176155;0.013439035043120384
01:00:0A:00:00:00:00;1725235310;02/09/24;00:01:50;1.0;-0.048;0.077;-0.10873401165008545;-0.004886921960860491;0.03176499158143997
01:00:0A:00:00:00:00;1725235311;02/09/24;00:01:51;0.994;-0.027;0.079;-0.09285151958465576;-0.03420845419168472;-0.04153883829712868
01:00:0A:00:00:00:00;1725235312;02/09/24;00:01:52;1.016;-0.021;0.075;-0.10384709388017654;-0.02076941914856434;0.02932153083384037
01:00:0A:00:00:00:00;1725235313;02/09/24;00:01:53;1.033;-0.059;0.064;-0.080634206533432;-0.00855211354792118;0.006108652334660292
01:00:0A:00:00:00:00;1725235314;02/09/24;00:01:54;1.025;-0.03;0.087;-0.06230825558304787;0.010995574295520782;-0.009773843921720982
01:00:0A:00:00:00:00;1725235315;02/09/24;00:01:55;1.016;-0.024;0.06;-0.07452555745840073;-0.02932153083384037;0.02076941914856434
01:00:0A:00:00:00:00;1725235316;02/09/24;00:01:56;1.018;-0.05;0.062;-0.04886921867728233;0.015882495790719986;0.024434609338641167
01:00:0A:00:00:00:00;1725235317;02/09/24;00:01:57;1.021;-0.035;0.08;-0.040317103266716;-0.009773843921720982;-0.02076941914856434
01:00:0A:00:00:00:00;1725235318;02/09/24;00:01:58;1.014;-0.033;0.058;-0.05497787147760391;-0.02321287989616394;0.05009094998240471
01:00:0A:00:00:00:00;1725235319;02/09/24;00:01:59;0.991;-0.036;0.062;-0.03176499158143997;0.0036651913542300463;0.014660765416920185
01:00:0A:00:00:00:00;1725235320;02/09/24;00:02:00;0.992;-0.025;0.068;-0.02687807008624077;-0.030543262138962746;-0.010995574295520782
01:00:0A:00:00:00:00;1725235321;02/09/24;00:02:01;1.02;-0.023;0.07;-0.02076941914856434;-0.039095375686883926;-0.042760565876960754
01:00:0A:00:00:00:00;1725235322;02/09/24;00:02:02;1.043;-0.041;0.072;-0.01710422709584236;0.0012217304902151227;0.014660765416920185
01:00:0A:00:00:00:00;1725235323;02/09/24;00:02:03;1.033;-0.052;0.081;-0.006108652334660292;0.019547687843441963;0.02076941914856434
01:00:0A:00:00:00:00;1725235324;02/09/24;00:02:04;1.006;-0.009;0.06;-0.00855211354792118;0.0012217304902151227;0.015882495790719986
01:00:0A:00:00:00:00;1725235325;02/09/24;00:02:05;0.997;-0.022;0.06;-0.004886921960860491;-0.0036651913542300463;0.024434609338641167
01:00:0A:00:00:00:00;1725235326;02/09/24;00:02:06;1.01;-0.029;0.074;0.012217304669320583;-0.02321287989616394;-0.05619959905743599
01:00:0A:00:00:00:00;1725235327;02/09/24;00:02:07;1.023;-0.03;0.062;0.0012217304902151227;-0.025656338781118393;-0.01710422709584236
01:00:0A:00:00:00:00;1725235328;02/09/24;00:02:08;1.026;-0.035;0.071;-0.004886921960860491;-0.010995574295520782;0.045204028487205505
01:00:0A:00:00:00:00;1725235329;02/09/24;00:02:09;1.011;-0.034;0.071;0.006108652334660292;-0.006108652334660292;0.021991148591041565
01:00:0A:00:00:00:00;1725235330;02/09/24;00:02:10;1.003;-0.003;0.066;0.013439035043120384;-0.012217304669320583;-0.021991148591041565
01:00:0A:00:00:00:00;1725235331;02/09/24;00:02:11;1.005;-0.034;0.07;0.0036651913542300463;-0.028099799528717995;0.0073303827084600925
01:00:0A:00:00:00:00;1725235332;02/09/24;00:02:12;1.016;-0.052;0.063;0.02932153083384037;-0.010995574295520782;-0.040317103266716
01:00:0A:00:00:00:00;1725235333;02/09/24;00:02:13;1.023;-0.028;0.073;0.025656338781118393;-0.009773843921720982;0.025656338781118393
01:00:0A:00:00:00:00;1725235334;02/09/24;00:02:14;0.997;-0.011;-0.073;0.09040805697441101;-0.2028072476387024;0.028099799528717995
01:00:0A:00:00:00:00;1725235335;02/09/24;00:02:15;1.007;-0.038;-0.097;0.1661553531885147;0.14294245839118958;0.040317103266716
01:00:0A:00:00:00:00;1725235336;02/09/24;00:02:16;1.014;-0.025;0.089;0.25534167885780334;0.06475171446800232;-0.10018189996480942
01:00:0A:00:00:00:00;1725235337;02/09/24;00:02:17;1.016;0.017;0.065;0.15393804013729095;-0.09529497474431992;0.030543262138962746
01:00:0A:00:00:00:00;1725235338;02/09/24;00:02:18;1.015;-0.06;0.035;0.161268413066864;0.021991148591041565;0.08307767659425735
01:00:0A:00:00:00:00;1725235339;02/09/24;00:02:19;1.016;-0.077;0.043;0.38240164518356323;0.018325956538319588;-0.03787364438176155
01:00:0A:00:00:00:00;1725235340;02/09/24;00:02:20;1.016;0.022;0.06;0.37140607833862305;-0.03298672288656235;-0.045204028487205505
01:00:0A:00:00:00:00;1725235341;02/09/24;00:02:21;1.017;-0.051;0.071;0.313984751701355;0.010995574295520782;0.13072516024112701
01:00:0A:00:00:00:00;1725235342;02/09/24;00:02:22;1.005;-0.057;0.112;0.3127630054950714;-0.024434609338641167;-0.019547687843441963
01:00:0A:00:00:00:00;1725235343;02/09/24;00:02:23;1.009;0.0;0.04;0.2932153046131134;-0.018325956538319588;-0.015882495790719986
01:00:0A:00:00:00:00;1725235344;02/09/24;00:02:24;1.01;-0.041;0.063;0.2883284091949463;0.059864792972803116;0.05619959905743599
01:00:0A:00:00:00:00;1725235345;02/09/24;00:02:25;1.013;-0.053;0.089;0.25045475363731384;-0.06963863223791122;-0.00855211354792118
01:00:0A:00:00:00:00;1725235346;02/09/24;00:02:26;1.021;-0.022;0.034;0.2370157092809677;-0.05375614017248154;0.039095375686883926
01:00:0A:00:00:00:00;1725235347;02/09/24;00:02:27;1.02;-0.036;0.077;0.2590068578720093;0.03787364438176155;0.025656338781118393
01:00:0A:00:00:00:00;1725235348;02/09/24;00:02:28;1.015;-0.016;0.095;0.2174680233001709;-0.040317103266716;0.010995574295520782
01:00:0A:00:00:00:00;1725235349;02/09/24;00:02:29;1.015;-0.045;0.049;0.20891590416431427;-0.028099799528717995;0.036651913076639175
01:00:0A:00:00:00:00;1725235350;02/09/24;00:02:30;1.016;-0.024;0.074;0.23335053026676178;0.04153883829712868;-0.02687807008624077
01:00:0A:00:00:00:00;1725235351;02/09/24;00:02:31;1.016;-0.015;0.084;0.18081611394882202;-0.02076941914856434;0.059864792972803116
01:00:0A:00:00:00:00;1725235352;02/09/24;00:02:32;1.016;-0.055;0.047;0.18814648687839508;-0.0354301817715168;0.018325956538319588
01:00:0A:00:00:00:00;1725235353;02/09/24;00:02:33;1.011;-0.021;0.08;0.21135938167572021;0.02321287989616394;-0.042760565876960754
01:00:0A:00:00:00:00;1725235354;02/09/24;00:02:34;1.007;-0.025;0.073;0.16004669666290283;-0.039095375686883926;0.05253440886735916
01:00:0A:00:00:00:00;1725235355;02/09/24;00:02:35;1.01;-0.054;0.066;0.17592918872833252;-0.0073303827084600925;-0.0036651913542300463
01:00:0A:00:00:00:00;1725235356;02/09/24;00:02:36;1.02;-0.025;0.072;0.17470745742321014;-0.028099799528717995;-0.025656338781118393
01:00:0A:00:00:00:00;1725235357;02/09/24;00:02:37;1.024;-0.027;0.068;0.1576032191514969;-0.014660765416920185;0.04642575979232788
01:00:0A:00:00:00:00;1725235358;02/09/24;00:02:38;1.023;-0.05;0.071;0.16982054710388184;-0.00855211354792118;0.019547687843441963
01:00:0A:00:00:00:00;1725235359;02/09/24;00:02:39;1.02;-0.025;0.061;0.1820378452539444;-0.010995574295520782;-0.01710422709584236
01:00:0A:00:00:00:00;1725235360;02/09/24;00:02:40;1.016;-0.033;0.061;0.17470745742321014;-0.0012217304902151227;0.04886921867728233
01:00:0A:00:00:00:00;1725235361;02/09/24;00:02:41;1.01;-0.051;0.078;0.17959438264369965;-0.006108652334660292;0.0024434609804302454
01:00:0A:00:00:00:00;1725235362;02/09/24;00:02:42;1.008;-0.013;0.07;0.1576032191514969;-0.045204028487205505;-0.013439035043120384
01:00:0A:00:00:00:00;1725235363;02/09/24;00:02:43;1.007;-0.027;0.062;0.1466076523065567;-0.0012217304902151227;0.018325956538319588
01:00:0A:00:00:00:00;1725235364;02/09/24;00:02:44;1.016;-0.032;0.08;0.1368338167667389;-0.019547687843441963;-0.00855211354792118
01:00:0A:00:00:00:00;1725235365;02/09/24;00:02:45;1.02;-0.033;0.059;0.13072516024112701;-0.02932153083384037;0.0
01:00:0A:00:00:00:00;1725235366;02/09/24;00:02:46;1.021;-0.031;0.063;0.13561207056045532;0.0073303827084600925;0.02932153083384037
01:00:0A:00:00:00:00;1725235367;02/09/24;00:02:47;1.014;-0.039;0.081;0.12828169763088226;-0.006108652334660292;0.015882495790719986
01:00:0A:00:00:00:00;1725235368;02/09/24;00:02:48;1.015;-0.026;0.054;0.12217304855585098;-0.030543262138962746;0.0024434609804302454
01:00:0A:00:00:00:00;1725235369;02/09/24;00:02:49;1.011;-0.035;0.065;0.13072516024112701;0.015882495790719986;0.01710422709584236
01:00:0A:00:00:00:00;1725235370;02/09/24;00:02:50;1.01;-0.031;0.075;0.11972958594560623;-0.028099799528717995;-0.0073303827084600925
01:00:0A:00:00:00:00;1725235371;02/09/24;00:02:51;1.016;-0.036;0.059;0.1160643920302391;-0.024434609338641167;0.0073303827084600925
01:00:0A:00:00:00:00;1725235372;02/09/24;00:02:52;1.02;-0.034;0.066;0.12339477241039276;-0.0073303827084600925;0.0012217304902151227
01:00:0A:00:00:00:00;1725235373;02/09/24;00:02:53;1.024;-0.034;0.082;0.10873401165008545;-0.01710422709584236;0.02321287989616394
01:00:0A:00:00:00:00;1725235374;02/09/24;00:02:54;1.022;-0.029;0.061;0.10506881773471832;-0.019547687843441963;0.012217304669320583
01:00:0A:00:00:00:00;1725235375;02/09/24;00:02:55;1.01;-0.032;0.071;0.10873401165008545;0.01710422709584236;0.01710422709584236
01:00:0A:00:00:00:00;1725235376;02/09/24;00:02:56;1.006;-0.033;0.072;0.09162978082895279;-0.03787364438176155;0.004886921960860491
01:00:0A:00:00:00:00;1725235377;02/09/24;00:02:57;1.007;-0.027;0.058;0.09773843735456467;-0.006108652334660292;0.006108652334660292
01:00:0A:00:00:00:00;1725235378;02/09/24;00:02:58;1.015;-0.031;0.07;0.09407324343919754;-0.018325956538319588;-0.004886921960860491
01:00:0A:00:00:00:00;1725235379;02/09/24;00:02:59;1.016;-0.029;0.067;0.08429940044879913;-0.02687807008624077;-0.0012217304902151227
01:00:0A:00:00:00:00;1725235380;02/09/24;00:03:00;1.018;-0.035;0.075;0.080634206533432;-0.019547687843441963;0.012217304669320583
01:00:0A:00:00:00:00;1725235381;02/09/24;00:03:01;1.019;-0.03;0.075;0.08552113175392151;0.0073303827084600925;0.0012217304902151227
01:00:0A:00:00:00:00;1725235382;02/09/24;00:03:02;1.022;-0.027;0.075;0.07330382615327835;-0.0012217304902151227;0.009773843921720982
01:00:0A:00:00:00:00;1725235383;02/09/24;00:03:03;1.02;-0.038;0.057;0.07330382615327835;0.0012217304902151227;0.00855211354792118
01:00:0A:00:00:00:00;1725235384;02/09/24;00:03:04;1.016;-0.026;0.071;0.06719517707824707;-0.012217304669320583;0.010995574295520782
01:00:0A:00:00:00:00;1725235385;02/09/24;00:03:05;1.012;-0.031;0.069;0.05497787147760391;-0.02932153083384037;0.01710422709584236
01:00:0A:00:00:00:00;1725235386;02/09/24;00:03:06;1.012;-0.031;0.071;0.06108652427792549;-0.0073303827084600925;-0.0073303827084600925
01:00:0A:00:00:00:00;1725235387;02/09/24;00:03:07;1.01;-0.031;0.067;0.05497787147760391;-0.009773843921720982;0.0073303827084600925
01:00:0A:00:00:00:00;1725235388;02/09/24;00:03:08;1.011;-0.05;0.052;0.06108652427792549;-0.06719517707824707;0.059864792972803116
01:00:0A:00:00:00:00;1725235389;02/09/24;00:03:09;1.011;-0.098;0.038;0.3298672139644623;-0.021991148591041565;0.07452555745840073
01:00:0A:00:00:00:00;1725235390;02/09/24;00:03:10;1.015;-0.035;0.086;0.5314527750015259;-0.00855211354792118;-0.0708603635430336
01:00:0A:00:00:00:00;1725235391;02/09/24;00:03:11;1.016;-0.001;0.055;0.4862487316131592;-0.051312677562236786;0.040317103266716
01:00:0A:00:00:00:00;1725235392;02/09/24;00:03:12;1.014;-0.058;0.082;0.4740314185619354;0.02321287989616394;0.025656338781118393
01:00:0A:00:00:00:00;1725235393;02/09/24;00:03:13;1.014;-0.024;0.085;0.4300491213798523;-0.059864792972803116;0.0024434609804302454
01:00:0A:00:00:00:00;1725235394;02/09/24;00:03:14;1.018;-0.032;0.041;0.42271876335144043;0.0036651913542300463;0.040317103266716
01:00:0A:00:00:00:00;1725235395;02/09/24;00:03:15;1.017;-0.035;0.089;0.4153883755207062;0.019547687843441963;-0.0012217304902151227
01:00:0A:00:00:00:00;1725235396;02/09/24;00:03:16;1.019;-0.022;0.068;0.3579670488834381;-0.0659734457731247;0.04886921867728233
01:00:0A:00:00:00:00;1725235397;02/09/24;00:03:17;1.016;-0.048;0.06;0.37262779474258423;0.012217304669320583;0.02076941914856434
01:00:0A:00:00:00:00;1725235398;02/09/24;00:03:18;1.007;-0.012;0.083;0.35185837745666504;-0.010995574295520782;-0.014660765416920185
01:00:0A:00:00:00:00;1725235399;02/09/24;00:03:19;1.01;-0.035;0.059;0.31031954288482666;-0.03176499158143997;0.04398229718208313
01:00:0A:00:00:00:00;1725235400;02/09/24;00:03:20;1.012;-0.047;0.076;0.3176499307155609;0.004886921960860491;-0.010995574295520782
01:00:0A:00:00:00:00;1725235401;02/09/24;00:03:21;1.018;-0.016;0.073;0.28099802136421204;-0.039095375686883926;0.009773843921720982
01:00:0A:00:00:00:00;1725235402;02/09/24;00:03:22;1.018;-0.036;0.056;0.2675589621067047;0.0012217304902151227;0.039095375686883926
01:00:0A:00:00:00:00;1725235403;02/09/24;00:03:23;1.018;-0.039;0.084;0.26022857427597046;-0.015882495790719986;-0.012217304669320583
01:00:0A:00:00:00:00;1725235404;02/09/24;00:03:24;1.016;-0.023;0.055;0.23090705275535583;-0.042760565876960754;0.028099799528717995
01:00:0A:00:00:00:00;1725235405;02/09/24;00:03:25;1.012;-0.038;0.074;0.23579397797584534;0.028099799528717995;0.024434609338641167
01:00:0A:00:00:00:00;1725235406;02/09/24;00:03:26;1.012;-0.026;0.072;0.20891590416431427;-0.03176499158143997;0.0012217304902151227
01:00:0A:00:00:00:00;1725235407;02/09/24;00:03:27;1.014;-0.029;0.053;0.19914205372333527;-0.019547687843441963;0.024434609338641167
01:00:0A:00:00:00:00;1725235408;02/09/24;00:03:28;1.012;-0.038;0.071;0.19914205372333527;-0.0024434609804302454;0.00855211354792118
01:00:0A:00:00:00:00;1725235409;02/09/24;00:03:29;1.012;-0.021;0.076;0.1771509200334549;-0.0354301817715168;0.004886921960860491
01:00:0A:00:00:00:00;1725235410;02/09/24;00:03:30;1.017;-0.035;0.055;0.17348572611808777;-0.014660765416920185;0.015882495790719986
01:00:0A:00:00:00:00;1725235411;02/09/24;00:03:31;1.017;-0.033;0.076;0.1771509200334549;0.0024434609804302454;-0.00855211354792118
01:00:0A:00:00:00:00;1725235412;02/09/24;00:03:32;1.016;-0.026;0.068;0.15027284622192383;-0.0354301817715168;0.02932153083384037
01:00:0A:00:00:00:00;1725235413;02/09/24;00:03:33;1.015;-0.037;0.061;0.1563815027475357;-0.004886921960860491;0.01710422709584236
01:00:0A:00:00:00:00;1725235414;02/09/24;00:03:34;1.013;-0.023;0.074;0.1514945775270462;-0.012217304669320583;-0.0024434609804302454
01:00:0A:00:00:00:00;1725235415;02/09/24;00:03:35;1.015;-0.028;0.065;0.1368338167667389;-0.024434609338641167;0.006108652334660292
01:00:0A:00:00:00:00;1725235416;02/09/24;00:03:36;1.021;-0.04;0.066;0.13805554807186127;-0.0012217304902151227;0.013439035043120384
01:00:0A:00:00:00:00;1725235417;02/09/24;00:03:37;1.019;-0.032;0.073;0.13072516024112701;-0.013439035043120384;0.0024434609804302454
01:00:0A:00:00:00:00;1725235418;02/09/24;00:03:38;1.011;-0.027;0.063;0.11728612333536148;-0.013439035043120384;0.03420845419168472
01:00:0A:00:00:00:00;1725235419;02/09/24;00:03:39;1.006;-0.035;0.068;0.12217304855585098;-0.00855211354792118;0.0012217304902151227
01:00:0A:00:00:00:00;1725235420;02/09/24;00:03:40;1.01;-0.026;0.068;0.11239919811487198;-0.02321287989616394;-0.0012217304902151227
01:00:0A:00:00:00:00;1725235421;02/09/24;00:03:41;1.02;-0.035;0.067;0.10506881773471832;-0.018325956538319588;0.009773843921720982
01:00:0A:00:00:00:00;1725235422;02/09/24;00:03:42;1.02;-0.034;0.069;0.10506881773471832;-0.006108652334660292;0.006108652334660292
01:00:0A:00:00:00:00;1725235423;02/09/24;00:03:43;1.016;-0.029;0.074;0.09529497474431992;-0.015882495790719986;0.0073303827084600925
01:00:0A:00:00:00:00;1725235424;02/09/24;00:03:44;1.014;-0.033;0.062;0.09162978082895279;-0.010995574295520782;0.010995574295520782
01:00:0A:00:00:00:00;1725235425;02/09/24;00:03:45;1.017;-0.036;0.075;0.09285151958465576;-0.0012217304902151227;0.0012217304902151227
01:00:0A:00:00:00:00;1725235426;02/09/24;00:03:46;1.02;-0.029;0.066;0.08307767659425735;-0.015882495790719986;0.00855211354792118
01:00:0A:00:00:00:00;1725235427;02/09/24;00:03:47;1.017;-0.036;0.067;0.08185594528913498;-0.004886921960860491;0.019547687843441963
01:00:0A:00:00:00:00;1725235428;02/09/24;00:03:48;1.01;-0.03;0.068;0.080634206533432;-0.013439035043120384;0.0036651913542300463
01:00:0A:00:00:00:00;1725235429;02/09/24;00:03:49;1.009;-0.029;0.071;0.07452555745840073;-0.012217304669320583;0.010995574295520782
01:00:0A:00:00:00:00;1725235430;02/09/24;00:03:50;1.011;-0.031;0.065;0.07330382615327835;-0.01710422709584236;0.0012217304902151227
01:00:0A:00:00:00:00;1725235431;02/09/24;00:03:51;1.015;-0.031;0.068;0.07330382615327835;-0.0073303827084600925;-0.0024434609804302454
01:00:0A:00:00:00:00;1725235432;02/09/24;00:03:52;1.016;-0.031;0.069;0.06352998316287994;-0.024434609338641167;0.009773843921720982
01:00:0A:00:00:00:00;1725235433;02/09/24;00:03:53;1.016;-0.033;0.069;0.0659734457731247;-0.00855211354792118;0.0073303827084600925
01:00:0A:00:00:00:00;1725235434;02/09/24;00:03:54;1.017;-0.031;0.074;0.06230825558304787;-0.012217304669320583;0.0
01:00:0A:00:00:00:00;1725235435;02/09/24;00:03:55;1.017;-0.03;0.066;0.05864306166768074;-0.0024434609804302454;0.0073303827084600925
01:00:0A:00:00:00:00;1725235436;02/09/24;00:03:56;1.016;-0.037;0.068;0.05375614017248154;-0.013439035043120384;0.010995574295520782
01:00:0A:00:00:00:00;1725235437;02/09/24;00:03:57;1.015;-0.031;0.065;0.051312677562236786;-0.013439035043120384;0.006108652334660292
01:00:0A:00:00:00:00;1725235438;02/09/24;00:03:58;1.012;-0.029;0.071;0.045204028487205505;-0.01710422709584236;0.010995574295520782
01:00:0A:00:00:00:00;1725235439;02/09/24;00:03:59;1.012;-0.035;0.069;0.04642575979232788;-0.006108652334660292;-0.0012217304902151227
01:00:0A:00:00:00:00;1725235440;02/09/24;00:04:00;1.015;-0.029;0.068;0.04153883829712868;-0.00855211354792118;0.0036651913542300463
01:00:0A:00:00:00:00;1725235441;02/09/24;00:04:01;1.016;-0.036;0.064;0.03787364438176155;-0.015882495790719986;0.00855211354792118
01:00:0A:00:00:00:00;1725235442;02/09/24;00:04:02;1.016;-0.03;0.069;0.0354301817715168;-0.018325956538319588;0.006108652334660292
01:00:0A:00:00:00:00;1725235443;02/09/24;00:04:03;1.016;-0.031;0.07;0.03298672288656235;-0.015882495790719986;0.004886921960860491
01:00:0A:00:00:00:00;1725235444;02/09/24;00:04:04;1.016;-0.029;0.07;0.03298672288656235;-0.0024434609804302454;0.0024434609804302454
01:00:0A:00:00:00:00;1725235445;02/09/24;00:04:05;1.015;-0.033;0.064;0.02932153083384037;-0.00855211354792118;0.004886921960860491
01:00:0A:00:00:00:00;1725235446;02/09/24;00:04:06;1.015;-0.033;0.067;0.028099799528717995;-0.014660765416920185;0.0024434609804302454
01:00:0A:00:00:00:00;1725235447;02/09/24;00:04:07;1.013;-0.031;0.065;0.02321287989616394;-0.019547687843441963;0.015882495790719986
01:00:0A:00:00:00:00;1725235448;02/09/24;00:04:08;1.014;-0.028;0.072;0.024434609338641167;-0.00855211354792118;0.0
01:00:0A:00:00:00:00;1725235449;02/09/24;00:04:09;1.015;-0.029;0.067;0.02076941914856434;-0.012217304669320583;0.0024434609804302454
01:00:0A:00:00:00:00;1725235450;02/09/24;00:04:10;1.015;-0.033;0.064;0.021991148591041565;-0.0036651913542300463;0.0012217304902151227
01:00:0A:00:00:00:00;1725235451;02/09/24;00:04:11;1.015;-0.033;0.065;0.015882495790719986;-0.02076941914856434;0.004886921960860491
01:00:0A:00:00:00:00;1725235452;02/09/24;00:04:12;1.016;-0.03;0.066;0.01710422709584236;-0.012217304669320583;0.0073303827084600925
01:00:0A:00:00:00:00;1725235453;02/09/24;00:04:13;1.015;-0.03;0.069;0.014660765416920185;-0.015882495790719986;0.004886921960860491
01:00:0A:00:00:00:00;1725235454;02/09/24;00:04:14;1.015;-0.031;0.067;0.01710422709584236;-0.0036651913542300463;-0.0012217304902151227
01:00:0A:00:00:00:00;1725235455;02/09/24;00:04:15;1.016;-0.033;0.068;0.013439035043120384;-0.012217304669320583;0.006108652334660292
01:00:0A:00:00:00:00;1725235456;02/09/24;00:04:16;1.016;-0.033;0.064;0.013439035043120384;-0.013439035043120384;0.006108652334660292
01:00:0A:00:00:00:00;1725235457;02/09/24;00:04:17;1.015;-0.028;0.069;0.012217304669320583;-0.013439035043120384;0.0073303827084600925
01:00:0A:00:00:00:00;1725235458;02/09/24;00:04:18;1.013;-0.031;0.067;0.013439035043120384;-0.00855211354792118;-0.0012217304902151227
01:00:0A:00:00:00:00;1725235459;02/09/24;00:04:19;1.016;-0.03;0.066;0.012217304669320583;-0.006108652334660292;0.0024434609804302454
01:00:0A:00:00:00:00;1725235460;02/09/24;00:04:20;1.014;-0.036;0.065;0.010995574295520782;-0.012217304669320583;0.0012217304902151227
01:00:0A:00:00:00:00;1725235461;02/09/24;00:04:21;1.016;-0.03;0.067;0.00855211354792118;-0.015882495790719986;0.006108652334660292
01:00:0A:00:00:00:00;1725235462;02/09/24;00:04:22;1.014;-0.032;0.068;0.00855211354792118;-0.013439035043120384;0.0073303827084600925
01:00:0A:00:00:00:00;1725235463;02/09/24;00:04:23;1.015;-0.027;0.07;0.00855211354792118;-0.009773843921720982;-0.0012217304902151227
01:00:0A:00:00:00:00;1725235464;02/09/24;00:04:24;1.015;-0.034;0.066;0.004886921960860491;-0.009773843921720982;0.006108652334660292
01:00:0A:00:00:00:00;1725235465;02/09/24;00:04:25;1.016;-0.032;0.068;0.004886921960860491;-0.012217304669320583;0.0012217304902151227
01:00:0A:00:00:00:00;1725235466;02/09/24;00:04:26;1.015;-0.031;0.066;0.0012217304902151227;-0.01710422709584236;0.0073303827084600925
01:00:0A:00:00:00:00;1725235467;02/09/24;00:04:27;1.016;-0.03;0.071;0.0024434609804302454;-0.0073303827084600925;0.0012217304902151227
01:00:0A:00:00:00:00;1725235468;02/09/24;00:04:28;1.016;-0.029;0.067;0.0;-0.009773843921720982;0.0036651913542300463
01:00:0A:00:00:00:00;1725235469;02/09/24;00:04:29;1.016;-0.031;0.068;0.0;-0.006108652334660292;-0.0012217304902151227
01:00:0A:00:00:00:00;1725235470;02/09/24;00:04:30;1.016;-0.031;0.067;-0.004886921960860491;-0.018325956538319588;0.006108652334660292
01:00:0A:00:00:00:00;1725235471;02/09/24;00:04:31;1.016;-0.031;0.068;-0.0036651913542300463;-0.0073303827084600925;0.004886921960860491
01:00:0A:00:00:00:00;1725235472;02/09/24;00:04:32;1.014;-0.03;0.07;-0.0073303827084600925;-0.013439035043120384;0.004886921960860491
01:00:0A:00:00:00:00;1725235473;02/09/24;00:04:33;1.015;-0.031;0.065;-0.006108652334660292;-0.00855211354792118;0.0
01:00:0A:00:00:00:00;1725235474;02/09/24;00:04:34;1.015;-0.031;0.07;-0.010995574295520782;-0.015882495790719986;0.004886921960860491
01:00:0A:00:00:00:00;1725235475;02/09/24;00:04:35;1.016;-0.031;0.067;-0.009773843921720982;-0.009773843921720982;0.0012217304902151227
01:00:0A:00:00:00:00;1725235476;02/09/24;00:04:36;1.015;-0.03;0.07;-0.012217304669320583;-0.012217304669320583;0.006108652334660292
01:00:0A:00:00:00:00;1725235477;02/09/24;00:04:37;1.016;-0.033;0.065;-0.010995574295520782;-0.009773843921720982;-0.0012217304902151227
01:00:0A:00:00:00:00;1725235478;02/09/24;00:04:38;1.016;-0.031;0.069;-0.013439035043120384;-0.010995574295520782;0.0024434609804302454
01:00:0A:00:00:00:00;1725235479;02/09/24;00:04:39;1.016;-0.034;0.065;-0.013439035043120384;-0.012217304669320583;0.0036651913542300463
01:00:0A:00:00:00:00;1725235480;02/09/24;00:04:40;1.015;-0.029;0.07;-0.014660765416920185;-0.010995574295520782;0.006108652334660292
01:00:0A:00:00:00:00;1725235481;02/09/24;00:04:41;1.013;-0.032;0.065;-0.015882495790719986;-0.013439035043120384;0.004886921960860491
01:00:0A:00:00:00:00;1725235482;02/09/24;00:04:42;1.013;-0.031;0.071;-0.014660765416920185;-0.00855211354792118;0.0
01:00:0A:00:00:00:00;1725235483;02/09/24;00:04:43;1.015;-0.032;0.066;-0.01710422709584236;-0.013439035043120384;0.0036651913542300463
01:00:0A:00:00:00:00;1725235484;02/09/24;00:04:44;1.016;-0.03;0.069;-0.014660765416920185;-0.009773843921720982;-0.0012217304902151227
01:00:0A:00:00:00:00;1725235485;02/09/24;00:04:45;1.015;-0.031;0.066;-0.01710422709584236;-0.013439035043120384;0.006108652334660292
01:00:0A:00:00:00:00;1725235486;02/09/24;00:04:46;1.015;-0.032;0.07;-0.015882495790719986;-0.0073303827084600925;0.0012217304902151227
01:00:0A:00:00:00:00;1725235487;02/09/24;00:04:47;1.016;-0.032;0.067;-0.018325956538319588;-0.015882495790719986;0.0036651913542300463
01:00:0A:00:00:00:00;1725235488;02/09/24;00:04:48;1.016;-0.032;0.069;-0.015882495790719986;-0.006108652334660292;0.0
01:00:0A:00:00:00:00;1725235489;02/09/24;00:04:49;1.016;-0.032;0.069;-0.019547687843441963;-0.015882495790719986;0.0036651913542300463
01:00:0A:00:00:00:00;1725235490;02/09/24;00:04:50;1.016;-0.033;0.067;-0.01710422709584236;-0.004886921960860491;0.006108652334660292
01:00:0A:00:00:00:00;1725235491;02/09/24;00:04:51;1.014;-0.03;0.068;-0.018325956538319588;-0.014660765416920185;0.0036651913542300463
01:00:0A:00:00:00:00;1725235492;02/09/24;00:04:52;1.013;-0.03;0.066;-0.014660765416920185;-0.0073303827084600925;0.0
01:00:0A:00:00:00:00;1725235493;02/09/24;00:04:53;1.013;-0.03;0.068;-0.015882495790719986;-0.01710422709584236;0.0012217304902151227
01:00:0A:00:00:00:00;1725235494;02/09/24;00:04:54;1.015;-0.031;0.066;-0.013439035043120384;-0.00855211354792118;0.0012217304902151227
01:00:0A:00:00:00:00;1725235495;02/09/24;00:04:55;1.016;-0.032;0.071;-0.014660765416920185;-0.013439035043120384;0.004886921960860491
01:00:0A:00:00:00:00;1725235496;02/09/24;00:04:56;1.016;-0.031;0.068;-0.013439035043120384;-0.009773843921720982;0.0
01:00:0A:00:00:00:00;1725235497;02/09/24;00:04:57;1.016;-0.031;0.071;-0.014660765416920185;-0.009773843921720982;0.0036651913542300463
01:00:0A:00:00:00:00;1725235498;02/09/24;00:04:58;1.016;-0.032;0.067;-0.014660765416920185;-0.009773843921720982;0.0024434609804302454
01:00:0A:00:00:00:00;1725235499;02/09/24;00:04:59;1.015;-0.031;0.07;-0.014660765416920185;-0.009773843921720982;0.004886921960860491
01:00:0A:00:00:00:00;1725235500;02/09/24;00:05:00;1.014;-0.032;0.066;-0.014660765416920185;-0.012217304669320583;0.0036651913542300463
01:00:0A:00:00:00:00;1725235501;02/09/24;00:05:01;1.014;-0.031;0.071;-0.013439035043120384;-0.009773843921720982;0.0012217304902151227
01:00:0A:00:00:00:00;1725235502;02/09/24;00:05:02;1.015;-0.032;0.066;-0.015882495790719986;-0.014660765416920185;0.0036651913542300463
01:00:0A:00:00:00:00;1725235503;02/09/24;00:05:03;1.015;-0.031;0.07;-0.013439035043120384;-0.009773843921720982;0.0012217304902151227
01:00:0A:00:00:00:00;1725235504;02/09/24;00:05:04;1.016;-0.032;0.067;-0.014660765416920185;-0.014660765416920185;0.004886921960860491
01:00:0A:00:00:00:00;1725235505;02/09/24;00:05:05;1.016;-0.032;0.07;-0.012217304669320583;-0.0073303827084600925;0.0024434609804302454
01:00:0A:00:00:00:00;1725235506;02/09/24;00:05:06;1.016;-0.03;0.066;-0.012217304669320583;-0.014660765416920185;0.0024434609804302454
01:00:0A:00:00:00:00;1725235507;02/09/24;00:05:07;1.016;-0.033;0.069;-0.010995574295520782;-0.009773843921720982;0.0036651913542300463
01:00:0A:00:00:00:00;1725235508;02/09/24;00:05:08;1.016;-0.031;0.069;-0.010995574295520782;-0.014660765416920185;0.0024434609804302454
01:00:0A:00:00:00:00;1725235509;02/09/24;00:05:09;1.016;-0.033;0.069;-0.009773843921720982;-0.006108652334660292;0.006108652334660292
01:00:0A:00:00:00:00;1725235510;02/09/24;00:05:10;1.013;-0.032;0.069;-0.009773843921720982;-0.013439035043120384;0.0012217304902151227
01:00:0A:00:00:00:00;1725235511;02/09/24;00:05:11;1.015;-0.031;0.066;-0.00855211354792118;-0.00855211354792118;0.0024434609804302454
01:00:0A:00:00:00:00;1725235512;02/09/24;00:05:12;1.015;-0.032;0.068;-0.009773843921720982;-0.01710422709584236;0.0024434609804302454
01:00:0A:00:00:00:00;1725235513;02/09/24;00:05:13;1.015;-0.03;0.069;-0.0073303827084600925;-0.009773843921720982;0.0036651913542300463
01:00:0A:00:00:00:00;1725235514;02/09/24;00:05:14;1.015;-0.032;0.069;-0.0073303827084600925;-0.010995574295520782;0.0036651913542300463
01:00:0A:00:00:00:00;1725235515;02/09/24;00:05:15;1.016;-0.031;0.066;-0.006108652334660292;-0.00855211354792118;0.0012217304902151227
01:00:0A:00:00:00:00;1725235516;02/09/24;00:05:16;1.015;-0.031;0.068;-0.0073303827084600925;-0.013439035043120384;0.004886921960860491
01:00:0A:00:00:00:00;1725235517;02/09/24;00:05:17;1.015;-0.031;0.066;-0.006108652334660292;-0.013439035043120384;0.0024434609804302454
01:00:0A:00:00:00:00;1725235518;02/09/24;00:05:18;1.014;-0.031;0.071;-0.006108652334660292;-0.009773843921720982;0.0036651913542300463
01:00:0A:00:00:00:00;1725235519;02/09/24;00:05:19;1.016;-0.033;0.067;-0.006108652334660292;-0.009773843921720982;0.0024434609804302454
01:00:0A:00:00:00:00;1725235520;02/09/24;00:05:20;1.014;-0.03;0.069;-0.006108652334660292;-0.009773843921720982;0.0036651913542300463
01:00:0A:00:00:00:00;1725235521;02/09/24;00:05:21;1.015;-0.031;0.066;-0.0073303827084600925;-0.013439035043120384;0.004886921960860491
01:00:0A:00:00:00:00;1725235522;02/09/24;00:05:22;1.015;-0.033;0.071;-0.004886921960860491;-0.010995574295520782;0.0012217304902151227
01:00:0A:00:00:00:00;1725235523;02/09/24;00:05:23;1.012;-0.03;0.076;0.08796459436416626;0.04398229718208313;-0.0036651913542300463
01:00:0A:00:00:00:00;1725235524;02/09/24;00:05:24;1.012;-0.018;0.111;0.17470745742321014;0.004886921960860491;-0.0012217304902151227
01:00:0A:00:00:00:00;1725235525;02/09/24;00:05:25;1.013;-0.014;0.084;0.2638937830924988;-0.059864792972803116;0.045204028487205505
01:00:0A:00:00:00:00;1725235526;02/09/24;00:05:26;1.015;-0.053;0.052;0.2687807083129883;-0.024434609338641167;0.0354301817715168
01:00:0A:00:00:00:00;1725235527;02/09/24;00:05:27;1.015;-0.03;0.074;0.27977627515792847;0.0012217304902151227;-0.03176499158143997
01:00:0A:00:00:00:00;1725235528;02/09/24;00:05:28;1.015;-0.013;0.071;0.23457224667072296;-0.019547687843441963;0.042760565876960754
01:00:0A:00:00:00:00;1725235529;02/09/24;00:05:29;1.015;-0.054;0.069;0.22846359014511108;-0.013439035043120384;0.030543262138962746
01:00:0A:00:00:00:00;1725235530;02/09/24;00:05:30;1.016;-0.025;0.07;0.23090705275535583;-0.021991148591041565;-0.02932153083384037
01:00:0A:00:00:00:00;1725235531;02/09/24;00:05:31;1.016;-0.018;0.063;0.20647244155406952;-0.0073303827084600925;0.045204028487205505
01:00:0A:00:00:00:00;1725235532;02/09/24;00:05:32;1.014;-0.046;0.077;0.20402899384498596;-0.0073303827084600925;0.013439035043120384
01:00:0A:00:00:00:00;1725235533;02/09/24;00:05:33;1.016;-0.023;0.066;0.19303341209888458;-0.03787364438176155;-0.015882495790719986
01:00:0A:00:00:00:00;1725235534;02/09/24;00:05:34;1.016;-0.028;0.06;0.1869247555732727;0.0036651913542300463;0.030543262138962746
01:00:0A:00:00:00:00;1725235535;02/09/24;00:05:35;1.015;-0.039;0.082;0.18081611394882202;-0.006108652334660292;0.009773843921720982
01:00:0A:00:00:00:00;1725235536;02/09/24;00:05:36;1.016;-0.026;0.065;0.16493360698223114;-0.04153883829712868;0.0012217304902151227
01:00:0A:00:00:00:00;1725235537;02/09/24;00:05:37;1.014;-0.028;0.059;0.17104226350784302;0.010995574295520782;0.019547687843441963
01:00:0A:00:00:00:00;1725235538;02/09/24;00:05:38;1.015;-0.034;0.084;0.15882496535778046;-0.010995574295520782;0.0073303827084600925
01:00:0A:00:00:00:00;1725235539;02/09/24;00:05:39;1.015;-0.029;0.059;0.14538592100143433;-0.03787364438176155;0.009773843921720982
01:00:0A:00:00:00:00;1725235540;02/09/24;00:05:40;1.015;-0.03;0.064;0.1563815027475357;0.013439035043120384;0.00855211354792118
01:00:0A:00:00:00:00;1725235541;02/09/24;00:05:41;1.015;-0.029;0.079;0.13805554807186127;-0.02076941914856434;0.00855211354792118
01:00:0A:00:00:00:00;1725235542;02/09/24;00:05:42;1.016;-0.033;0.061;0.13072516024112701;-0.028099799528717995;0.014660765416920185
01:00:0A:00:00:00:00;1725235543;02/09/24;00:05:43;1.015;-0.032;0.065;0.14049901068210602;0.0024434609804302454;0.0036651913542300463
01:00:0A:00:00:00:00;1725235544;02/09/24;00:05:44;1.016;-0.026;0.078;0.1258382350206375;-0.01710422709584236;0.009773843921720982
01:00:0A:00:00:00:00;1725235545;02/09/24;00:05:45;1.015;-0.034;0.061;0.11850785464048386;-0.025656338781118393;0.015882495790719986
01:00:0A:00:00:00:00;1725235546;02/09/24;00:05:46;1.015;-0.032;0.068;0.12950342893600464;0.006108652334660292;-0.0024434609804302454
01:00:0A:00:00:00:00;1725235547;02/09/24;00:05:47;1.014;-0.024;0.072;0.11239919811487198;-0.02321287989616394;0.013439035043120384
01:00:0A:00:00:00:00;1725235548;02/09/24;00:05:48;1.014;-0.037;0.062;0.11239919811487198;-0.015882495790719986;0.014660765416920185
01:00:0A:00:00:00:00;1725235549;02/09/24;00:05:49;1.016;-0.031;0.069;0.11728612333536148;-0.006108652334660292;-0.0024434609804302454
01:00:0A:00:00:00:00;1725235550;02/09/24;00:05:50;1.015;-0.025;0.069;0.10506881773471832;-0.015882495790719986;0.012217304669320583
01:00:0A:00:00:00:00;1725235551;02/09/24;00:05:51;1.016;-0.038;0.064;0.10384709388017654;-0.014660765416920185;0.013439035043120384
01:00:0A:00:00:00:00;1725235552;02/09/24;00:05:52;1.015;-0.031;0.067;0.10751228034496307;-0.00855211354792118;-0.004886921960860491
01:00:0A:00:00:00:00;1725235553;02/09/24;00:05:53;1.016;-0.025;0.069;0.09651670604944229;-0.015882495790719986;0.018325956538319588
01:00:0A:00:00:00:00;1725235554;02/09/24;00:05:54;1.015;-0.038;0.065;0.09773843735456467;-0.012217304669320583;0.009773843921720982
01:00:0A:00:00:00:00;1725235555;02/09/24;00:05:55;1.015;-0.027;0.068;0.10018189996480942;-0.010995574295520782;-0.0024434609804302454
01:00:0A:00:00:00:00;1725235556;02/09/24;00:05:56;1.016;-0.03;0.067;0.09162978082895279;-0.014660765416920185;0.014660765416920185
01:00:0A:00:00:00:00;1725235557;02/09/24;00:05:57;1.015;-0.037;0.067;0.09285151958465576;-0.010995574295520782;0.0073303827084600925
01:00:0A:00:00:00:00;1725235558;02/09/24;00:05:58;1.015;-0.03;0.068;0.09162978082895279;-0.013439035043120384;0.0012217304902151227
01:00:0A:00:00:00:00;1725235559;02/09/24;00:05:59;1.015;-0.029;0.066;0.08552113175392151;-0.012217304669320583;0.014660765416920185
01:00:0A:00:00:00:00;1725235560;02/09/24;00:06:00;1.015;-0.036;0.07;0.08552113175392151;-0.010995574295520782;0.006108652334660292
01:00:0A:00:00:00:00;1725235561;02/09/24;00:06:01;1.016;-0.027;0.068;0.08307767659425735;-0.015882495790719986;0.0
01:00:0A:00:00:00:00;1725235562;02/09/24;00:06:02;1.015;-0.032;0.067;0.07819075137376785;-0.00855211354792118;0.015882495790719986
01:00:0A:00:00:00:00;1725235563;02/09/24;00:06:03;1.015;-0.033;0.07;0.07819075137376785;-0.012217304669320583;0.0036651913542300463
01:00:0A:00:00:00:00;1725235564;02/09/24;00:06:04;1.015;-0.03;0.068;0.0757472887635231;-0.013439035043120384;0.004886921960860491
01:00:0A:00:00:00:00;1725235565;02/09/24;00:06:05;1.015;-0.031;0.067;0.07330382615327835;-0.012217304669320583;0.00855211354792118
01:00:0A:00:00:00:00;1725235566;02/09/24;00:06:06;1.015;-0.034;0.07;0.0708603635430336;-0.010995574295520782;0.006108652334660292
01:00:0A:00:00:00:00;1725235567;02/09/24;00:06:07;1.016;-0.029;0.068;0.06841690838336945;-0.015882495790719986;0.0036651913542300463
01:00:0A:00:00:00:00;1725235568;02/09/24;00:06:08;1.015;-0.031;0.067;0.0659734457731247;-0.0073303827084600925;0.012217304669320583
01:00:0A:00:00:00:00;1725235569;02/09/24;00:06:09;1.014;-0.031;0.069;0.06475171446800232;-0.014660765416920185;0.0012217304902151227
01:00:0A:00:00:00:00;1725235570;02/09/24;00:06:10;1.016;-0.029;0.067;0.06230825558304787;-0.013439035043120384;0.006108652334660292
01:00:0A:00:00:00:00;1725235571;02/09/24;00:06:11;1.016;-0.033;0.069;0.06108652427792549;-0.009773843921720982;0.00855211354792118
01:00:0A:00:00:00:00;1725235572;02/09/24;00:06:12;1.016;-0.032;0.067;0.059864792972803116;-0.010995574295520782;0.004886921960860491
01:00:0A:00:00:00:00;1725235573;02/09/24;00:06:13;1.016;-0.03;0.068;0.05619959905743599;-0.013439035043120384;0.006108652334660292
01:00:0A:00:00:00:00;1725235574;02/09/24;00:06:14;1.014;-0.03;0.067;0.05619959905743599;-0.009773843921720982;0.006108652334660292
01:00:0A:00:00:00:00;1725235575;02/09/24;00:06:15;1.016;-0.032;0.072;0.05375614017248154;-0.015882495790719986;0.0036651913542300463
01:00:0A:00:00:00:00;1725235576;02/09/24;00:06:16;1.016;-0.031;0.066;0.05253440886735916;-0.013439035043120384;0.004886921960860491
01:00:0A:00:00:00:00;1725235577;02/09/24;00:06:17;1.015;-0.033;0.069;0.05253440886735916;-0.00855211354792118;0.00855211354792118
01:00:0A:00:00:00:00;1725235578;02/09/24;00:06:18;1.014;-0.031;0.066;0.051312677562236786;-0.014660765416920185;0.004886921960860491
01:00:0A:00:00:00:00;1725235579;02/09/24;00:06:19;1.014;-0.029;0.068;0.05009094998240471;-0.010995574295520782;0.006108652334660292
01:00:0A:00:00:00:00;1725235580;02/09/24;00:06:20;1.016;-0.032;0.068;0.04886921867728233;-0.013439035043120384;0.006108652334660292
01:00:0A:00:00:00:00;1725235581;02/09/24;00:06:21;1.016;-0.033;0.069;0.04886921867728233;-0.010995574295520782;0.004886921960860491
01:00:0A:00:00:00:00;1725235582;02/09/24;00:06:22;1.015;-0.03;0.067;0.04764748737215996;-0.013439035043120384;0.0073303827084600925
01:00:0A:00:00:00:00;1725235583;02/09/24;00:06:23;1.014;-0.031;0.068;0.04886921867728233;-0.0073303827084600925;0.004886921960860491
01:00:0A:00:00:00:00;1725235584;02/09/24;00:06:24;1.015;-0.032;0.068;0.045204028487205505;-0.01710422709584236;0.004886921960860491
01:00:0A:00:00:00:00;1725235585;02/09/24;00:06:25;1.015;-0.031;0.067;0.04642575979232788;-0.00855211354792118;0.006108652334660292
01:00:0A:00:00:00:00;1725235586;02/09/24;00:06:26;1.016;-0.031;0.068;0.04398229718208313;-0.013439035043120384;0.004886921960860491
01:00:0A:00:00:00:00;1725235587;02/09/24;00:06:27;1.013;-0.032;0.067;0.04398229718208313;-0.010995574295520782;0.006108652334660292
01:00:0A:00:00:00:00;1725235588;02/09/24;00:06:28;1.014;-0.032;0.069;0.042760565876960754;-0.013439035043120384;0.004886921960860491
01:00:0A:00:00:00:00;1725235589;02/09/24;00:06:29;1.016;-0.032;0.069;0.042760565876960754;-0.009773843921720982;0.004886921960860491
01:00:0A:00:00:00:00;1725235590;02/09/24;00:06:30;1.015;-0.032;0.069;0.040317103266716;-0.014660765416920185;0.006108652334660292
01:00:0A:00:00:00:00;1725235591;02/09/24;00:06:31;1.015;-0.031;0.067;0.04153883829712868;-0.010995574295520782;0.004886921960860491
01:00:0A:00:00:00:00;1725235592;02/09/24;00:06:32;1.015;-0.031;0.071;0.039095375686883926;-0.010995574295520782;0.006108652334660292
01:00:0A:00:00:00:00;1725235593;02/09/24;00:06:33;1.015;-0.032;0.067;0.039095375686883926;-0.013439035043120384;0.0036651913542300463
01:00:0A:00:00:00:00;1725235594;02/09/24;00:06:34;1.016;-0.031;0.069;0.03787364438176155;-0.009773843921720982;0.004886921960860491
01:00:0A:00:00:00:00;1725235595;02/09/24;00:06:35;1.016;-0.032;0.067;0.036651913076639175;-0.012217304669320583;0.004886921960860491
01:00:0A:00:00:00:00;1725235596;02/09/24;00:06:36;1.014;-0.03;0.069;0.0354301817715168;-0.012217304669320583;0.006108652334660292
01:00:0A:00:00:00:00;1725235597;02/09/24;00:06:37;1.014;-0.032;0.067;0.0354301817715168;-0.010995574295520782;0.006108652334660292
01:00:0A:00:00:00:00;1725235598;02/09/24;00:06:38;1.015;-0.031;0.069;0.0354301817715168;-0.010995574295520782;0.0024434609804302454
01:00:0A:00:00:00:00;1725235599;02/09/24;00:06:39;1.016;-0.031;0.067;0.03298672288656235;-0.013439035043120384;0.006108652334660292
01:00:0A:00:00:00:00;1725235600;02/09/24;00:06:40;1.015;-0.032;0.068;0.03298672288656235;-0.009773843921720982;0.0036651913542300463
01:00:0A:00:00:00:00;1725235601;02/09/24;00:06:41;1.015;-0.031;0.068;0.030543262138962746;-0.013439035043120384;0.0073303827084600925
01:00:0A:00:00:00:00;1725235602;02/09/24;00:06:42;1.014;-0.031;0.068;0.030543262138962746;-0.010995574295520782;0.0036651913542300463
01:00:0A:00:00:00:00;1725235603;02/09/24;00:06:43;1.016;-0.03;0.067;0.02932153083384037;-0.013439035043120384;0.004886921960860491
01:00:0A:00:00:00:00;1725235604;02/09/24;00:06:44;1.015;-0.032;0.069;0.02932153083384037;-0.009773843921720982;0.0024434609804302454
01:00:0A:00:00:00:00;1725235605;02/09/24;00:06:45;1.015;-0.031;0.067;0.02687807008624077;-0.014660765416920185;0.006108652334660292
01:00:0A:00:00:00:00;1725235606;02/09/24;00:06:46;1.015;-0.031;0.068;0.02687807008624077;-0.009773843921720982;0.004886921960860491
01:00:0A:00:00:00:00;1725235607;02/09/24;00:06:47;1.015;-0.03;0.068;0.025656338781118393;-0.013439035043120384;0.004886921960860491
01:00:0A:00:00:00:00;1725235608;02/09/24;00:06:48;1.015;-0.032;0.067;0.025656338781118393;-0.010995574295520782;0.0036651913542300463
01:00:0A:00:00:00:00;1725235609;02/09/24;00:06:49;1.015;-0.031;0.069;0.024434609338641167;-0.012217304669320583;0.004886921960860491
01:00:0A:00:00:00:00;1725235610;02/09/24;00:06:50;1.015;-0.032;0.067;0.02321287989616394;-0.012217304669320583;0.0036651913542300463
01:00:0A:00:00:00:00;1725235611;02/09/24;00:06:51;1.015;-0.031;0.069;0.021991148591041565;-0.012217304669320583;0.006108652334660292
01:00:0A:00:00:00:00;1725235612;02/09/24;00:06:52;1.016;-0.031;0.067;0.021991148591041565;-0.010995574295520782;0.0036651913542300463
01:00:0A:00:00:00:00;1725235613;02/09/24;00:06:53;1.016;-0.03;0.069;0.02076941914856434;-0.010995574295520782;0.004886921960860491
01:00:0A:00:00:00:00;1725235614;02/09/24;00:06:54;1.016;-0.032;0.067;0.019547687843441963;-0.012217304669320583;0.004886921960860491
01:00:0A:00:00:00:00;1725235615;02/09/24;00:06:55;1.015;-0.028;0.069;0.019547687843441963;-0.010995574295520782;0.004886921960860491
01:00:0A:00:00:00:00;1725235616;02/09/24;00:06:56;1.014;-0.031;0.067;0.018325956538319588;-0.012217304669320583;0.006108652334660292
01:00:0A:00:00:00:00;1725235617;02/09/24;00:06:57;1.016;-0.031;0.068;0.018325956538319588;-0.010995574295520782;0.0024434609804302454
01:00:0A:00:00:00:00;1725235618;02/09/24;00:06:58;1.016;-0.032;0.068;0.01710422709584236;-0.012217304669320583;0.004886921960860491
01:00:0A:00:00:00:00;1725235619;02/09/24;00:06:59;1.016;-0.031;0.068;0.01710422709584236;-0.010995574295520782;0.0024434609804302454
01:00:0A:00:00:00:00;1725235620;02/09/24;00:07:00;1.016;-0.032;0.068;0.015882495790719986;-0.012217304669320583;0.006108652334660292
01:00:0A:00:00:00:00;1725235621;02/09/24;00:07:01;1.015;-0.031;0.069;0.015882495790719986;-0.010995574295520782;0.0024434609804302454
01:00:0A:00:00:00:00;1725235622;02/09/24;00:07:02;1.016;-0.031;0.067;0.014660765416920185;-0.012217304669320583;0.004886921960860491
01:00:0A:00:00:00:00;1725235623;02/09/24;00:07:03;1.015;-0.032;0.068;0.015882495790719986;-0.009773843921720982;0.0024434609804302454
01:00:0A:00:00:00:00;1725235624;02/09/24;00:07:04;1.014;-0.03;0.068;0.013439035043120384;-0.012217304669320583;0.004886921960860491
01:00:0A:00:00:00:00;1725235625;02/09/24;00:07:05;1.015;-0.032;0.068;0.014660765416920185;-0.009773843921720982;0.0036651913542300463
01:00:0A:00:00:00:00;1725235626;02/09/24;00:07:06;1.014;-0.031;0.068;0.013439035043120384;-0.013439035043120384;0.004886921960860491
01:00:0A:00:00:00:00;1725235627;02/09/24;00:07:07;1.015;-0.03;0.067;0.014660765416920185;-0.009773843921720982;0.0024434609804302454
01:00:0A:00:00:00:00;1725235628;02/09/24;00:07:08;1.015;-0.03;0.069;0.013439035043120384;-0.012217304669320583;0.004886921960860491
01:00:0A:00:00:00:00;1725235629;02/09/24;00:07:09;1.015;-0.032;0.067;0.013439035043120384;-0.010995574295520782;0.0036651913542300463
01:00:0A:00:00:00:00;1725235630;02/09/24;00:07:10;1.015;-0.031;0.068;0.012217304669320583;-0.010995574295520782;0.004886921960860491
01:00:0A:00:00:00:00;1725235631;02/09/24;00:07:11;1.014;-0.032;0.067;0.012217304669320583;-0.012217304669320583;0.0036651913542300463
01:00:0A:00:00:00:00;1725235632;02/09/24;00:07:12;1.015;-0.03;0.069;0.012217304669320583;-0.010995574295520782;0.004886921960860491
01:00:0A:00:00:00:00;1725235633;02/09/24;00:07:13;1.015;-0.033;0.067;0.012217304669320583;-0.012217304669320583;0.0024434609804302454
01:00:0A:00:00:00:00;1725235634;02/09/24;00:07:14;1.016;-0.03;0.068;0.010995574295520782;-0.010995574295520782;0.004886921960860491
01:00:0A:00:00:00:00;1725235635;02/09/24;00:07:15;1.016;-0.032;0.068;0.010995574295520782;-0.012217304669320583;0.004886921960860491
01:00:0A:00:00:00:00;1725235636;02/09/24;00:07:16;1.015;-0.03;0.068;0.010995574295520782;-0.010995574295520782;0.0036651913542300463
01:00:0A:00:00:00:00;1725235637;02/09/24;00:07:17;1.014;-0.032;0.068;0.009773843921720982;-0.012217304669320583;0.004886921960860491
01:00:0A:00:00:00:00;1725235638;02/09/24;00:07:18;1.016;-0.031;0.069;0.009773843921720982;-0.010995574295520782;0.0024434609804302454
01:00:0A:00:00:00:00;1725235639;02/09/24;00:07:19;1.016;-0.032;0.067;0.00855211354792118;-0.012217304669320583;0.006108652334660292
01:00:0A:00:00:00:00;1725235640;02/09/24;00:07:20;1.015;-0.03;0.069;0.00855211354792118;-0.012217304669320583;0.0024434609804302454
01:00:0A:00:00:00:00;1725235641;02/09/24;00:07:21;1.015;-0.03;0.069;0.0073303827084600925;-0.012217304669320583;0.004886921960860491
01:00:0A:00:00:00:00;1725235642;02/09/24;00:07:22;1.015;-0.031;0.068;0.0073303827084600925;-0.009773843921720982;0.0024434609804302454
01:00:0A:00:00:00:00;1725235643;02/09/24;00:07:23;1.015;-0.032;0.068;0.006108652334660292;-0.012217304669320583;0.004886921960860491
01:00:0A:00:00:00:00;1725235644;02/09/24;00:07:24;1.015;-0.033;0.069;0.0073303827084600925;-0.009773843921720982;0.0036651913542300463
01:00:0A:00:00:00:00;1725235645;02/09/24;00:07:25;1.015;-0.031;0.069;0.004886921960860491;-0.013439035043120384;0.004886921960860491
01:00:0A:00:00:00:00;1725235646;02/09/24;00:07:26;1.015;-0.031;0.067;0.006108652334660292;-0.009773843921720982;0.0036651913542300463
01:00:0A:00:00:00:00;1725235647;02/09/24;00:07:27;1.015;-0.03;0.068;0.004886921960860491;-0.012217304669320583;0.0036651913542300463
01:00:0A:00:00:00:00;1725235648;02/09/24;00:07:28;1.015;-0.032;0.068;0.004886921960860491;-0.010995574295520782;0.0036651913542300463
01:00:0A:00:00:00:00;1725235649;02/09/24;00:07:29;1.016;-0.03;0.068;0.0036651913542300463;-0.012217304669320583;0.004886921960860491
01:00:0A:00:00:00:00;1725235650;02/09/24;00:07:30;1.016;-0.031;0.067;0.004886921960860491;-0.012217304669320583;0.0036651913542300463
01:00:0A:00:00:00:00;1725235651;02/09/24;00:07:31;1.014;-0.031;0.069;0.004886921960860491;-0.010995574295520782;0.004886921960860491
01:00:0A:00:00:00:00;1725235652;02/09/24;00:07:32;1.015;-0.032;0.067;0.0036651913542300463;-0.012217304669320583;0.0024434609804302454
01:00:0A:00:00:00:00;1725235653;02/09/24;00:07:33;1.016;-0.03;0.068;0.0036651913542300463;-0.010995574295520782;0.0036651913542300463
01:00:0A:00:00:00:00;1725235654;02/09/24;00:07:34;1.015;-0.033;0.068;0.0036651913542300463;-0.012217304669320583;0.004886921960860491
01:00:0A:00:00:00:00;1725235655;02/09/24;00:07:35;1.015;-0.03;0.067;0.004886921960860491;-0.010995574295520782;0.0024434609804302454
01:00:0A:00:00:00:00;1725235656;02/09/24;00:07:36;1.014;-0.032;0.069;0.0036651913542300463;-0.010995574295520782;0.004886921960860491
01:00:0A:00:00:00:00;1725235657;02/09/24;00:07:37;1.015;-0.031;0.068;0.0036651913542300463;-0.010995574295520782;0.0024434609804302454
01:00:0A:00:00:00:00;1725235658;02/09/24;00:07:38;1.015;-0.032;0.069;0.0036651913542300463;-0.012217304669320583;0.004886921960860491
01:00:0A:00:00:00:00;1725235659;02/09/24;00:07:39;1.016;-0.032;0.067;0.004886921960860491;-0.010995574295520782;0.0024434609804302454
01:00:0A:00:00:00:00;1725235660;02/09/24;00:07:40;1.016;-0.031;0.066;0.0036651913542300463;-0.012217304669320583;0.004886921960860491
01:00:0A:00:00:00:00;1725235661;02/09/24;00:07:41;1.015;-0.031;0.068;0.004886921960860491;-0.009773843921720982;0.0024434609804302454
01:00:0A:00:00:00:00;1725235662;02/09/24;00:07:42;1.016;-0.032;0.068;0.0036651913542300463;-0.012217304669320583;0.004886921960860491
01:00:0A:00:00:00:00;1725235663;02/09/24;00:07:43;1.016;-0.032;0.068;0.004886921960860491;-0.010995574295520782;0.0024434609804302454
01:00:0A:00:00:00:00;1725235664;02/09/24;00:07:44;1.015;-0.031;0.068;0.0036651913542300463;-0.012217304669320583;0.004886921960860491
01:00:0A:00:00:00:00;1725235665;02/09/24;00:07:45;1.014;-0.03;0.068;0.004886921960860491;-0.009773843921720982;0.0036651913542300463
01:00:0A:00:00:00:00;1725235666;02/09/24;00:07:46;1.015;-0.031;0.068;0.004886921960860491;-0.012217304669320583;0.004886921960860491
01:00:0A:00:00:00:00;1725235667;02/09/24;00:07:47;1.016;-0.032;0.068;0.004886921960860491;-0.010995574295520782;0.0036651913542300463
01:00:0A:00:00:00:00;1725235668;02/09/24;00:07:48;1.015;-0.032;0.069;0.004886921960860491;-0.010995574295520782;0.004886921960860491
01:00:0A:00:00:00:00;1725235669;02/09/24;00:07:49;1.015;-0.032;0.067;0.004886921960860491;-0.010995574295520782;0.0036651913542300463
01:00:0A:00:00:00:00;1725235670;02/09/24;00:07:50;1.015;-0.031;0.069;0.004886921960860491;-0.010995574295520782;0.004886921960860491
01:00:0A:00:00:00:00;1725235671;02/09/24;00:07:51;1.016;-0.033;0.068;0.004886921960860491;-0.012217304669320583;0.0036651913542300463
01:00:0A:00:00:00:00;1725235672;02/09/24;00:07:52;1.016;-0.031;0.069;0.004886921960860491;-0.010995574295520782;0.0036651913542300463
01:00:0A:00:00:00:00;1725235673;02/09/24;00:07:53;1.016;-0.032;0.068;0.0036651913542300463;-0.012217304669320583;0.0036651913542300463
01:00:0A:00:00:00:00;1725235674;02/09/24;00:07:54;1.016;-0.03;0.068;0.004886921960860491;-0.010995574295520782;0.0036651913542300463
01:00:0A:00:00:00:00;1725235675;02/09/24;00:07:55;1.015;-0.033;0.068;0.0036651913542300463;-0.012217304669320583;0.004886921960860491
01:00:0A:00:00:00:00;1725235676;02/09/24;00:07:56;1.015;-0.031;0.068;0.004886921960860491;-0.010995574295520782;0.0024434609804302454
01:00:0A:00:00:00:00;1725235677;02/09/24;00:07:57;1.015;-0.032;0.067;0.0036651913542300463;-0.012217304669320583;0.004886921960860491
01:00:0A:00:00:00:00;1725235678;02/09/24;00:07:58;1.016;-0.032;0.069;0.004886921960860491;-0.010995574295520782;0.0024434609804302454
01:00:0A:00:00:00:00;1725235679;02/09/24;00:07:59;1.015;-0.032;0.068;0.0036651913542300463;-0.012217304669320583;0.004886921960860491
01:00:0A:00:00:00:00;1725235680;02/09/24;00:08:00;1.016;-0.031;0.068;0.0036651913542300463;-0.009773843921720982;0.0024434609804302454
01:00:0A:00:00:00:00;1725235681;02/09/24;00:08:01;1.016;-0.031;0.068;0.0024434609804302454;-0.012217304669320583;0.004886921960860491
01:00:0A:00:00:00:00;1725235682;02/09/24;00:08:02;1.014;-0.031;0.068;0.0036651913542300463;-0.009773843921720982;0.0024434609804302454
01:00:0A:00:00:00:00;1725235683;02/09/24;00:08:03;1.016;-0.03;0.068;0.0024434609804302454;-0.012217304669320583;0.004886921960860491
01:00:0A:00:00:00:00;1725235684;02/09/24;00:08:04;1.015;-0.031;0.068;0.0036651913542300463;-0.009773843921720982;0.0036651913542300463
01:00:0A:00:00:00:00;1725235685;02/09/24;00:08:05;1.013;-0.031;0.069;0.0024434609804302454;-0.012217304669320583;0.0036651913542300463
01:00:0A:00:00:00:00;1725235686;02/09/24;00:08:06;1.016;-0.03;0.068;0.0024434609804302454;-0.010995574295520782;0.0024434609804302454
01:00:0A:00:00:00:00;1725235687;02/09/24;00:08:07;1.016;-0.03;0.069;0.0024434609804302454;-0.010995574295520782;0.004886921960860491
01:00:0A:00:00:00:00;1725235688;02/09/24;00:08:08;1.015;-0.031;0.067;0.0024434609804302454;-0.010995574295520782;0.0036651913542300463
01:00:0A:00:00:00:00;1725235689;02/09/24;00:08:09;1.015;-0.03;0.07;0.0012217304902151227;-0.010995574295520782;0.0036651913542300463
01:00:0A:00:00:00:00;1725235690;02/09/24;00:08:10;1.015;-0.032;0.068;0.0012217304902151227;-0.012217304669320583;0.0036651913542300463
01:00:0A:00:00:00:00;1725235691;02/09/24;00:08:11;1.015;-0.031;0.069;0.0012217304902151227;-0.010995574295520782;0.0036651913542300463
01:00:0A:00:00:00:00;1725235692;02/09/24;00:08:12;1.016;-0.032;0.069;0.0;-0.010995574295520782;0.0036651913542300463
01:00:0A:00:00:00:00;1725235693;02/09/24;00:08:13;1.014;-0.03;0.07;0.0;-0.010995574295520782;0.0036651913542300463
01:00:0A:00:00:00:00;1725235694;02/09/24;00:08:14;1.015;-0.031;0.069;0.0;-0.012217304669320583;0.0036651913542300463
01:00:0A:00:00:00:00;1725235695;02/09/24;00:08:15;1.015;-0.031;0.069;0.0;-0.010995574295520782;0.0024434609804302454
01:00:0A:00:00:00:00;1725235696;02/09/24;00:08:16;1.016;-0.031;0.068;-0.0012217304902151227;-0.012217304669320583;0.004886921960860491
01:00:0A:00:00:00:00;1725235697;02/09/24;00:08:17;1.016;-0.031;0.069;-0.0012217304902151227;-0.010995574295520782;0.0024434609804302454
01:00:0A:00:00:00:00;1725235698;02/09/24;00:08:18;1.015;-0.031;0.068;-0.0024434609804302454;-0.012217304669320583;0.004886921960860491
01:00:0A:00:00:00:00;1725235699;02/09/24;00:08:19;1.015;-0.032;0.069;-0.0012217304902151227;-0.010995574295520782;0.0024434609804302454
01:00:0A:00:00:00:00;1725235700;02/09/24;00:08:20;1.015;-0.031;0.069;-0.0024434609804302454;-0.012217304669320583;0.0036651913542300463
01:00:0A:00:00:00:00;1725235701;02/09/24;00:08:21;1.016;-0.032;0.069;-0.0024434609804302454;-0.009773843921720982;0.0024434609804302454
01:00:0A:00:00:00:00;1725235702;02/09/24;00:08:22;1.015;-0.031;0.068;-0.0036651913542300463;-0.012217304669320583;0.004886921960860491
01:00:0A:00:00:00:00;1725235703;02/09/24;00:08:23;1.016;-0.031;0.069;-0.0024434609804302454;-0.010995574295520782;0.0024434609804302454
01:00:0A:00:00:00:00;1725235704;02/09/24;00:08:24;1.015;-0.032;0.068;-0.0036651913542300463;-0.012217304669320583;0.0036651913542300463
01:00:0A:00:00:00:00;1725235705;02/09/24;00:08:25;1.015;-0.031;0.068;-0.0036651913542300463;-0.010995574295520782;0.0024434609804302454
01:00:0A:00:00:00:00;1725235706;02/09/24;00:08:26;1.015;-0.031;0.068;-0.0036651913542300463;-0.012217304669320583;0.0036651913542300463
01:00:0A:00:00:00:00;1725235707;02/09/24;00:08:27;1.015;-0.031;0.068;-0.0036651913542300463;-0.010995574295520782;0.0036651913542300463
01:00:0A:00:00:00:00;1725235708;02/09/24;00:08:28;1.015;-0.031;0.068;-0.0036651913542300463;-0.010995574295520782;0.0036651913542300463
01:00:0A:00:00:00:00;1725235709;02/09/24;00:08:29;1.015;-0.032;0.067;-0.004886921960860491;-0.010995574295520782;0.0036651913542300463
01:00:0A:00:00:00:00;1725235710;02/09/24;00:08:30;1.015;-0.031;0.068;-0.004886921960860491;-0.010995574295520782;0.0036651913542300463
01:00:0A:00:00:00:00;1725235711;02/09/24;00:08:31;1.015;-0.031;0.068;-0.004886921960860491;-0.010995574295520782;0.0036651913542300463
01:00:0A:00:00:00:00;1725235712;02/09/24;00:08:32;1.015;-0.03;0.069;-0.004886921960860491;-0.010995574295520782;0.0024434609804302454
01:00:0A:00:00:00:00;1725235713;02/09/24;00:08:33;1.015;-0.032;0.069;-0.006108652334660292;-0.012217304669320583;0.0036651913542300463
01:00:0A:00:00:00:00;1725235714;02/09/24;00:08:34;1.016;-0.03;0.068;-0.006108652334660292;-0.010995574295520782;0.0024434609804302454
01:00:0A:00:00:00:00;1725235715;02/09/24;00:08:35;1.016;-0.031;0.068;-0.006108652334660292;-0.012217304669320583;0.0036651913542300463
01:00:0A:00:00:00:00;1725235716;02/09/24;00:08:36;1.015;-0.031;0.069;-0.006108652334660292;-0.010995574295520782;0.0024434609804302454
01:00:0A:00:00:00:00;1725235717;02/09/24;00:08:37;1.015;-0.031;0.068;-0.006108652334660292;-0.012217304669320583;0.0036651913542300463
01:00:0A:00:00:00:00;1725235718;02/09/24;00:08:38;1.015;-0.032;0.068;-0.006108652334660292;-0.009773843921720982;0.0024434609804302454
01:00:0A:00:00:00:00;1725235719;02/09/24;00:08:39;1.015;-0.031;0.068;-0.0073303827084600925;-0.012217304669320583;0.0036651913542300463
01:00:0A:00:00:00:00;1725235720;02/09/24;00:08:40;1.015;-0.031;0.068;-0.006108652334660292;-0.009773843921720982;0.0024434609804302454
01:00:0A:00:00:00:00;1725235721;02/09/24;00:08:41;1.015;-0.031;0.068;-0.0073303827084600925;-0.012217304669320583;0.0024434609804302454
01:00:0A:00:00:00:00;1725235722;02/09/24;00:08:42;1.015;-0.032;0.068;-0.006108652334660292;-0.010995574295520782;0.0024434609804302454
01:00:0A:00:00:00:00;1725235723;02/09/24;00:08:43;1.014;-0.032;0.068;-0.0073303827084600925;-0.012217304669320583;0.0036651913542300463
01:00:0A:00:00:00:00;1725235724;02/09/24;00:08:44;1.015;-0.033;0.068;-0.006108652334660292;-0.010995574295520782;0.0036651913542300463
01:00:0A:00:00:00:00;1725235725;02/09/24;00:08:45;1.016;-0.031;0.069;-0.0073303827084600925;-0.012217304669320583;0.0036651913542300463
01:00:0A:00:00:00:00;1725235726;02/09/24;00:08:46;1.014;-0.031;0.067;-0.006108652334660292;-0.010995574295520782;0.0024434609804302454
01:00:0A:00:00:00:00;1725235727;02/09/24;00:08:47;1.014;-0.031;0.069;-0.006108652334660292;-0.010995574295520782;0.0036651913542300463
01:00:0A:00:00:00:00;1725235728;02/09/24;00:08:48;1.014;-0.03;0.067;-0.006108652334660292;-0.010995574295520782;0.0024434609804302454
01:00:0A:00:00:00:00;1725235729;02/09/24;00:08:49;1.015;-0.032;0.068;-0.006108652334660292;-0.010995574295520782;0.0036651913542300463
01:00:0A:00:00:00:00;1725235730;02/09/24;00:08:50;1.015;-0.031;0.067;-0.006108652334660292;-0.012217304669320583;0.0024434609804302454
01:00:0A:00:00:00:00;1725235731;02/09/24;00:08:51;1.016;-0.031;0.069;-0.006108652334660292;-0.010995574295520782;0.0024434609804302454
01:00:0A:00:00:00:00;1725235732;02/09/24;00:08:52;1.015;-0.033;0.068;-0.006108652334660292;-0.012217304669320583;0.0036651913542300463
01:00:0A:00:00:00:00;1725235733;02/09/24;00:08:53;1.016;-0.031;0.068;-0.004886921960860491;-0.010995574295520782;0.0024434609804302454
01:00:0A:00:00:00:00;1725235734;02/09/24;00:08:54;1.015;-0.031;0.068;-0.006108652334660292;-0.012217304669320583;0.0036651913542300463
01:00:0A:00:00:00:00;1725235735;02/09/24;00:08:55;1.015;-0.031;0.069;-0.006108652334660292;-0.010995574295520782;0.0024434609804302454
01:00:0A:00:00:00:00;1725235736;02/09/24;00:08:56;1.016;-0.03;0.068;-0.006108652334660292;-0.012217304669320583;0.0036651913542300463
01:00:0A:00:00:00:00;1725235737;02/09/24;00:08:57;1.016;-0.032;0.068;-0.006108652334660292;-0.010995574295520782;0.0024434609804302454
01:00:0A:00:00:00:00;1725235738;02/09/24;00:08:58;1.014;-0.03;0.067;-0.006108652334660292;-0.012217304669320583;0.0036651913542300463
01:00:0A:00:00:00:00;1725235739;02/09/24;00:08:59;1.016;-0.032;0.068;-0.004886921960860491;-0.010995574295520782;0.0024434609804302454
01:00:0A:00:00:00:00;1725235740;02/09/24;00:09:00;1.016;-0.031;0.067;-0.006108652334660292;-0.012217304669320583;0.0036651913542300463
01:00:0A:00:00:00:00;1725235741;02/09/24;00:09:01;1.015;-0.031;0.067;-0.004886921960860491;-0.010995574295520782;0.0036651913542300463
01:00:0A:00:00:00:00;1725235742;02/09/24;00:09:02;1.016;-0.032;0.068;-0.006108652334660292;-0.012217304669320583;0.0036651913542300463
01:00:0A:00:00:00:00;1725235743;02/09/24;00:09:03;1.016;-0.031;0.067;-0.004886921960860491;-0.010995574295520782;0.0024434609804302454
01:00:0A:00:00:00:00;1725235744;02/09/24;00:09:04;1.014;-0.032;0.069;-0.004886921960860491;-0.012217304669320583;0.0024434609804302454
01:00:0A:00:00:00:00;1725235745;02/09/24;00:09:05;1.015;-0.031;0.067;-0.004886921960860491;-0.010995574295520782;0.0024434609804302454
01:00:0A:00:00:00:00;1725235746;02/09/24;00:09:06;1.015;-0.031;0.069;-0.004886921960860491;-0.010995574295520782;0.0036651913542300463
01:00:0A:00:00:00:00;1725235747;02/09/24;00:09:07;1.015;-0.031;0.068;-0.004886921960860491;-0.010995574295520782;0.0036651913542300463
01:00:0A:00:00:00:00;1725235748;02/09/24;00:09:08;1.015;-0.031;0.069;-0.0036651913542300463;-0.012217304669320583;0.0036651913542300463
01:00:0A:00:00:00:00;1725235749;02/09/24;00:09:09;1.015;-0.032;0.067;-0.0036651913542300463;-0.012217304669320583;0.0024434609804302454
01:00:0A:00:00:00:00;1725235750;02/09/24;00:09:10;1.014;-0.032;0.07;-0.0036651913542300463;-0.010995574295520782;0.0036651913542300463
01:00:0A:00:00:00:00;1725235751;02/09/24;00:09:11;1.015;-0.032;0.068;-0.0036651913542300463;-0.012217304669320583;0.0036651913542300463
01:00:0A:00:00:00:00;1725235752;02/09/24;00:09:12;1.015;-0.031;0.068;-0.0036651913542300463;-0.010995574295520782;0.0024434609804302454
01:00:0A:00:00:00:00;1725235753;02/09/24;00:09:13;1.015;-0.032;0.068;-0.0036651913542300463;-0.012217304669320583;0.0036651913542300463
01:00:0A:00:00:00:00;1725235754;02/09/24;00:09:14;1.015;-0.031;0.068;-0.0024434609804302454;-0.010995574295520782;0.0024434609804302454
01:00:0A:00:00:00:00;1725235755;02/09/24;00:09:15;1.016;-0.031;0.067;-0.0036651913542300463;-0.012217304669320583;0.0036651913542300463
01:00:0A:00:00:00:00;1725235756;02/09/24;00:09:16;1.014;-0.033;0.068;-0.0024434609804302454;-0.010995574295520782;0.0036651913542300463
01:00:0A:00:00:00:00;1725235757;02/09/24;00:09:17;1.016;-0.031;0.068;-0.0024434609804302454;-0.012217304669320583;0.0036651913542300463
01:00:0A:00:00:00:00;1725235758;02/09/24;00:09:18;1.015;-0.031;0.068;-0.0024434609804302454;-0.010995574295520782;0.0036651913542300463
01:00:0A:00:00:00:00;1725235759;02/09/24;00:09:19;1.015;-0.031;0.068;-0.0024434609804302454;-0.012217304669320583;0.0036651913542300463
01:00:0A:00:00:00:00;1725235760;02/09/24;00:09:20;1.015;-0.031;0.069;-0.0024434609804302454;-0.010995574295520782;0.0036651913542300463
01:00:0A:00:00:00:00;1725235761;02/09/24;00:09:21;1.014;-0.031;0.068;-0.0024434609804302454;-0.012217304669320583;0.0024434609804302454
01:00:0A:00:00:00:00;1725235762;02/09/24;00:09:22;1.016;-0.031;0.068;-0.0012217304902151227;-0.010995574295520782;0.0036651913542300463
01:00:0A:00:00:00:00;1725235763;02/09/24;00:09:23;1.015;-0.032;0.068;-0.0012217304902151227;-0.012217304669320583;0.0036651913542300463
01:00:0A:00:00:00:00;1725235764;02/09/24;00:09:24;1.015;-0.031;0.067;-0.0012217304902151227;-0.010995574295520782;0.0036651913542300463
01:00:0A:00:00:00:00;1725235765;02/09/24;00:09:25;1.015;-0.03;0.069;-0.0012217304902151227;-0.010995574295520782;0.0036651913542300463
01:00:0A:00:00:00:00;1725235766;02/09/24;00:09:26;1.014;-0.031;0.067;0.0;-0.010995574295520782;0.0036651913542300463
01:00:0A:00:00:00:00;1725235767;02/09/24;00:09:27;1.015;-0.03;0.068;-0.0012217304902151227;-0.010995574295520782;0.0036651913542300463
01:00:0A:00:00:00:00;1725235768;02/09/24;00:09:28;1.016;-0.032;0.068;0.0;-0.012217304669320583;0.0036651913542300463
01:00:0A:00:00:00:00;1725235769;02/09/24;00:09:29;1.016;-0.03;0.068;0.0;-0.010995574295520782;0.0036651913542300463
01:00:0A:00:00:00:00;1725235770;02/09/24;00:09:30;1.015;-0.031;0.068;0.0;-0.012217304669320583;0.0036651913542300463
01:00:0A:00:00:00:00;1725235771;02/09/24;00:09:31;1.015;-0.03;0.069;0.0012217304902151227;-0.010995574295520782;0.0036651913542300463
01:00:0A:00:00:00:00;1725235772;02/09/24;00:09:32;1.015;-0.031;0.067;0.0;-0.012217304669320583;0.0036651913542300463
01:00:0A:00:00:00:00;1725235773;02/09/24;00:09:33;1.015;-0.031;0.068;0.0012217304902151227;-0.010995574295520782;0.0036651913542300463
01:00:0A:00:00:00:00;1725235773;02/09/24;00:09:33;1.015;-0.032;0.068;0.0012217304902151227;-0.012217304669320583;0.0036651913542300463
01:00:0A:00:00:00:00;1725235774;02/09/24;00:09:34;1.015;-0.03;0.069;0.0024434609804302454;-0.010995574295520782;0.0036651913542300463
01:00:0A:00:00:00:00;1725235775;02/09/24;00:09:35;1.016;-0.031;0.069;0.0012217304902151227;-0.012217304669320583;0.0036651913542300463
01:00:0A:00:00:00:00;1725235776;02/09/24;00:09:36;1.015;-0.032;0.067;0.0024434609804302454;-0.010995574295520782;0.0036651913542300463
01:00:0A:00:00:00:00;1725235777;02/09/24;00:09:37;1.015;-0.032;0.069;0.0024434609804302454;-0.012217304669320583;0.0036651913542300463
01:00:0A:00:00:00:00;1725235778;02/09/24;00:09:38;1.015;-0.031;0.068;0.0024434609804302454;-0.010995574295520782;0.0036651913542300463
01:00:0A:00:00:00:00;1725235779;02/09/24;00:09:39;1.015;-0.032;0.068;0.0036651913542300463;-0.012217304669320583;0.0024434609804302454
01:00:0A:00:00:00:00;1725235780;02/09/24;00:09:40;1.014;-0.031;0.067;0.0036651913542300463;-0.010995574295520782;0.0036651913542300463
01:00:0A:00:00:00:00;1725235781;02/09/24;00:09:41;1.016;-0.031;0.068;0.0036651913542300463;-0.012217304669320583;0.0036651913542300463
01:00:0A:00:00:00:00;1725235782;02/09/24;00:09:42;1.016;-0.032;0.068;0.0036651913542300463;-0.010995574295520782;0.0036651913542300463
01:00:0A:00:00:00:00;1725235783;02/09/24;00:09:43;1.015;-0.032;0.068;0.004886921960860491;-0.010995574295520782;0.0036651913542300463
01:00:0A:00:00:00:00;1725235784;02/09/24;00:09:44;1.016;-0.031;0.068;0.004886921960860491;-0.010995574295520782;0.0024434609804302454
01:00:0A:00:00:00:00;1725235785;02/09/24;00:09:45;1.014;-0.031;0.069;0.004886921960860491;-0.012217304669320583;0.0036651913542300463
01:00:0A:00:00:00:00;1725235786;02/09/24;00:09:46;1.016;-0.031;0.068;0.004886921960860491;-0.012217304669320583;0.0036651913542300463
01:00:0A:00:00:00:00;1725235787;02/09/24;00:09:47;1.015;-0.031;0.07;0.006108652334660292;-0.010995574295520782;0.0036651913542300463
01:00:0A:00:00:00:00;1725235788;02/09/24;00:09:48;1.015;-0.032;0.068;0.006108652334660292;-0.010995574295520782;0.0036651913542300463
01:00:0A:00:00:00:00;1725235789;02/09/24;00:09:49;1.016;-0.031;0.069;0.006108652334660292;-0.010995574295520782;0.0036651913542300463
01:00:0A:00:00:00:00;1725235790;02/09/24;00:09:50;1.016;-0.032;0.068;0.006108652334660292;-0.012217304669320583;0.0036651913542300463
01:00:0A:00:00:00:00;1725235791;02/09/24;00:09:51;1.016;-0.031;0.068;0.006108652334660292;-0.010995574295520782;0.0036651913542300463
01:00:0A:00:00:00:00;1725235792;02/09/24;00:09:52;1.014;-0.032;0.068;0.006108652334660292;-0.012217304669320583;0.0036651913542300463
01:00:0A:00:00:00:00;1725235793;02/09/24;00:09:53;1.016;-0.031;0.069;0.0073303827084600925;-0.010995574295520782;0.0036651913542300463
01:00:0A:00:00:00:00;1725235794;02/09/24;00:09:54;1.015;-0.031;0.068;0.0073303827084600925;-0.012217304669320583;0.0036651913542300463
01:00:0A:00:00:00:00;1725235795;02/09/24;00:09:55;1.015;-0.032;0.068;0.0073303827084600925;-0.010995574295520782;0.0036651913542300463
01:00:0A:00:00:00:00;1725235796;02/09/24;00:09:56;1.016;-0.032;0.068;0.0073303827084600925;-0.012217304669320583;0.0036651913542300463
01:00:0A:00:00:00:00;1725235797;02/09/24;00:09:57;1.014;-0.03;0.068;0.0073303827084600925;-0.010995574295520782;0.0036651913542300463
01:00:0A:00:00:00:00;1725235798;02/09/24;00:09:58;1.015;-0.031;0.069;0.0073303827084600925;-0.012217304669320583;0.0036651913542300463
01:00:0A:00:00:00:00;1725235799;02/09/24;00:09:59;1.015;-0.032;0.068;0.0073303827084600925;-0.010995574295520782;0.0036651913542300463
01:00:0A:00:00:00:00;1725235800;02/09/24;00:10:00;1.014;-0.031;0.069;0.0073303827084600925;-0.012217304669320583;0.0036651913542300463
01:00:0A:00:00:00:00;1725235801;02/09/24;00:10:01;1.016;-0.031;0.069;0.0073303827084600925;-0.010995574295520782;0.0036651913542300463
01:00:0A:00:00:00:00;1725235802;02/09/24;00:10:02;1.016;-0.031;0.068;0.0073303827084600925;-0.010995574295520782;0.0036651913542300463
01:00:0A:00:00:00:00;1725235803;02/09/24;00:10:03;1.014;-0.031;0.069;0.0073303827084600925;-0.010995574295520782;0.0036651913542300463
01:00:0A:00:00:00:00;1725235804;02/09/24;00:10:04;1.016;-0.031;0.067;0.0073303827084600925;-0.010995574295520782;0.0036651913542300463
01:00:0A:00:00:00:00;1725235805;02/09/24;00:10:05;1.015;-0.032;0.068;0.00855211354792118;-0.012217304669320583;0.0036651913542300463
01:00:0A:00:00:00:00;1725235806;02/09/24;00:10:06;1.015;-0.032;0.069;0.00855211354792118;-0.010995574295520782;0.0036651913542300463
01:00:0A:00:00:00:00;1725235807;02/09/24;00:10:07;1.015;-0.033;0.068;0.00855211354792118;-0.010995574295520782;0.0036651913542300463
01:00:0A:00:00:00:00;1725235808;02/09/24;00:10:08;1.015;-0.032;0.068;0.00855211354792118;-0.010995574295520782;0.0036651913542300463
01:00:0A:00:00:00:00;1725235809;02/09/24;00:10:09;1.016;-0.032;0.069;0.00855211354792118;-0.012217304669320583;0.0036651913542300463
01:00:0A:00:00:00:00;1725235810;02/09/24;00:10:10;1.015;-0.031;0.067;0.00855211354792118;-0.010995574295520782;0.0036651913542300463
01:00:0A:00:00:00:00;1725235811;02/09/24;00:10:11;1.015;-0.031;0.068;0.00855211354792118;-0.012217304669320583;0.0036651913542300463
01:00:0A:00:00:00:00;1725235812;02/09/24;00:10:12;1.016;-0.031;0.069;0.009773843921720982;-0.010995574295520782;0.0036651913542300463
01:00:0A:00:00:00:00;1725235813;02/09/24;00:10:13;1.015;-0.031;0.068;0.00855211354792118;-0.012217304669320583;0.0036651913542300463
01:00:0A:00:00:00:00;1725235814;02/09/24;00:10:14;1.015;-0.031;0.068;0.009773843921720982;-0.010995574295520782;0.0036651913542300463
01:00:0A:00:00:00:00;1725235815;02/09/24;00:10:15;1.015;-0.03;0.068;0.00855211354792118;-0.012217304669320583;0.0036651913542300463
01:00:0A:00:00:00:00;1725235816;02/09/24;00:10:16;1.015;-0.031;0.068;0.009773843921720982;-0.010995574295520782;0.0036651913542300463
01:00:0A:00:00:00:00;1725235817;02/09/24;00:10:17;1.015;-0.03;0.068;0.009773843921720982;-0.012217304669320583;0.0036651913542300463
01:00:0A:00:00:00:00;1725235818;02/09/24;00:10:18;1.015;-0.031;0.069;0.009773843921720982;-0.010995574295520782;0.0036651913542300463
01:00:0A:00:00:00:00;1725235819;02/09/24;00:10:19;1.015;-0.032;0.068;0.009773843921720982;-0.012217304669320583;0.0036651913542300463
01:00:0A:00:00:00:00;1725235820;02/09/24;00:10:20;1.016;-0.031;0.068;0.009773843921720982;-0.010995574295520782;0.0036651913542300463
01:00:0A:00:00:00:00;1725235821;02/09/24;00:10:21;1.015;-0.031;0.068;0.009773843921720982;-0.012217304669320583;0.0036651913542300463
01:00:0A:00:00:00:00;1725235822;02/09/24;00:10:22;1.015;-0.031;0.067;0.009773843921720982;-0.010995574295520782;0.0036651913542300463
01:00:0A:00:00:00:00;1725235823;02/09/24;00:10:23;1.015;-0.033;0.067;0.009773843921720982;-0.010995574295520782;0.0036651913542300463
01:00:0A:00:00:00:00;1725235824;02/09/24;00:10:24;1.015;-0.032;0.069;0.009773843921720982;-0.010995574295520782;0.0036651913542300463
01:00:0A:00:00:00:00;1725235825;02/09/24;00:10:25;1.016;-0.031;0.068;0.00855211354792118;-0.012217304669320583;0.0036651913542300463
01:00:0A:00:00:00:00;1725235826;02/09/24;00:10:26;1.016;-0.031;0.068;0.00855211354792118;-0.012217304669320583;0.0036651913542300463
01:00:0A:00:00:00:00;1725235827;02/09/24;00:10:27;1.014;-0.031;0.068;0.009773843921720982;-0.010995574295520782;0.0036651913542300463
01:00:0A:00:00:00:00;1725235828;02/09/24;00:10:28;1.015;-0.032;0.068;0.00855211354792118;-0.012217304669320583;0.0036651913542300463
01:00:0A:00:00:00:00;1725235829;02/09/24;00:10:29;1.016;-0.032;0.068;0.00855211354792118;-0.010995574295520782;0.0036651913542300463
01:00:0A:00:00:00:00;1725235830;02/09/24;00:10:30;1.015;-0.032;0.069;0.00855211354792118;-0.012217304669320583;0.0036651913542300463
01:00:0A:00:00:00:00;1725235831;02/09/24;00:10:31;1.015;-0.032;0.068;0.00855211354792118;-0.010995574295520782;0.0036651913542300463
01:00:0A:00:00:00:00;1725235832;02/09/24;00:10:32;1.015;-0.031;0.068;0.00855211354792118;-0.010995574295520782;0.0036651913542300463
01:00:0A:00:00:00:00;1725235833;02/09/24;00:10:33;1.015;-0.031;0.069;0.00855211354792118;-0.010995574295520782;0.0036651913542300463
01:00:0A:00:00:00:00;1725235834;02/09/24;00:10:34;1.015;-0.031;0.068;0.00855211354792118;-0.012217304669320583;0.0036651913542300463
01:00:0A:00:00:00:00;1725235835;02/09/24;00:10:35;1.015;-0.032;0.068;0.00855211354792118;-0.010995574295520782;0.0036651913542300463
01:00:0A:00:00:00:00;1725235836;02/09/24;00:10:36;1.016;-0.031;0.068;0.00855211354792118;-0.012217304669320583;0.0036651913542300463
01:00:0A:00:00:00:00;1725235837;02/09/24;00:10:37;1.014;-0.031;0.068;0.00855211354792118;-0.010995574295520782;0.0036651913542300463
01:00:0A:00:00:00:00;1725235838;02/09/24;00:10:38;1.015;-0.033;0.069;0.00855211354792118;-0.010995574295520782;0.0036651913542300463
01:00:0A:00:00:00:00;1725235839;02/09/24;00:10:39;1.015;-0.031;0.068;0.00855211354792118;-0.010995574295520782;0.0036651913542300463
01:00:0A:00:00:00:00;1725235840;02/09/24;00:10:40;1.015;-0.031;0.068;0.00855211354792118;-0.012217304669320583;0.0036651913542300463
01:00:0A:00:00:00:00;1725235841;02/09/24;00:10:41;1.015;-0.031;0.069;0.00855211354792118;-0.010995574295520782;0.0036651913542300463
01:00:0A:00:00:00:00;1725235842;02/09/24;00:10:42;1.014;-0.031;0.069;0.0073303827084600925;-0.010995574295520782;0.0036651913542300463
01:00:0A:00:00:00:00;1725235843;02/09/24;00:10:43;1.015;-0.031;0.067;0.00855211354792118;-0.010995574295520782;0.0036651913542300463
01:00:0A:00:00:00:00;1725235844;02/09/24;00:10:44;1.016;-0.031;0.068;0.00855211354792118;-0.010995574295520782;0.0036651913542300463
01:00:0A:00:00:00:00;1725235845;02/09/24;00:10:45;1.015;-0.031;0.069;0.0073303827084600925;-0.012217304669320583;0.0036651913542300463
01:00:0A:00:00:00:00;1725235846;02/09/24;00:10:46;1.016;-0.031;0.068;0.00855211354792118;-0.010995574295520782;0.0036651913542300463
01:00:0A:00:00:00:00;1725235847;02/09/24;00:10:47;1.015;-0.031;0.068;0.00855211354792118;-0.012217304669320583;0.0036651913542300463
01:00:0A:00:00:00:00;1725235848;02/09/24;00:10:48;1.014;-0.031;0.068;0.00855211354792118;-0.010995574295520782;0.0036651913542300463
01:00:0A:00:00:00:00;1725235849;02/09/24;00:10:49;1.015;-0.032;0.067;0.0073303827084600925;-0.012217304669320583;0.0036651913542300463
01:00:0A:00:00:00:00;1725235850;02/09/24;00:10:50;1.014;-0.031;0.068;0.00855211354792118;-0.010995574295520782;0.0036651913542300463
01:00:0A:00:00:00:00;1725235851;02/09/24;00:10:51;1.015;-0.032;0.068;0.00855211354792118;-0.012217304669320583;0.0036651913542300463
01:00:0A:00:00:00:00;1725235852;02/09/24;00:10:52;1.016;-0.031;0.068;0.00855211354792118;-0.010995574295520782;0.0036651913542300463
01:00:0A:00:00:00:00;1725235853;02/09/24;00:10:53;1.016;-0.031;0.068;0.00855211354792118;-0.012217304669320583;0.0036651913542300463
01:00:0A:00:00:00:00;1725235854;02/09/24;00:10:54;1.014;-0.031;0.069;0.00855211354792118;-0.010995574295520782;0.0036651913542300463
01:00:0A:00:00:00:00;1725235855;02/09/24;00:10:55;1.014;-0.032;0.069;0.00855211354792118;-0.012217304669320583;0.0036651913542300463
01:00:0A:00:00:00:00;1725235856;02/09/24;00:10:56;1.015;-0.031;0.069;0.00855211354792118;-0.010995574295520782;0.0036651913542300463
01:00:0A:00:00:00:00;1725235857;02/09/24;00:10:57;1.015;-0.031;0.069;0.00855211354792118;-0.012217304669320583;0.0036651913542300463
01:00:0A:00:00:00:00;1725235858;02/09/24;00:10:58;1.015;-0.031;0.068;0.00855211354792118;-0.010995574295520782;0.0036651913542300463
01:00:0A:00:00:00:00;1725235859;02/09/24;00:10:59;1.014;-0.032;0.069;0.00855211354792118;-0.010995574295520782;0.0036651913542300463
01:00:0A:00:00:00:00;1725235860;02/09/24;00:11:00;1.015;-0.031;0.069;0.00855211354792118;-0.010995574295520782;0.0036651913542300463
01:00:0A:00:00:00:00;1725235861;02/09/24;00:11:01;1.016;-0.031;0.068;0.009773843921720982;-0.010995574295520782;0.0036651913542300463
01:00:0A:00:00:00:00;1725235862;02/09/24;00:11:02;1.014;-0.033;0.069;0.009773843921720982;-0.010995574295520782;0.0036651913542300463
01:00:0A:00:00:00:00;1725235863;02/09/24;00:11:03;1.015;-0.032;0.07;0.009773843921720982;-0.010995574295520782;0.0036651913542300463
01:00:0A:00:00:00:00;1725235864;02/09/24;00:11:04;1.015;-0.032;0.069;0.009773843921720982;-0.012217304669320583;0.0036651913542300463
01:00:0A:00:00:00:00;1725235865;02/09/24;00:11:05;1.014;-0.032;0.068;0.009773843921720982;-0.010995574295520782;0.0036651913542300463
01:00:0A:00:00:00:00;1725235866;02/09/24;00:11:06;1.014;-0.031;0.068;0.009773843921720982;-0.012217304669320583;0.0036651913542300463
01:00:0A:00:00:00:00;1725235867;02/09/24;00:11:07;1.016;-0.032;0.068;0.009773843921720982;-0.010995574295520782;0.0036651913542300463
01:00:0A:00:00:00:00;1725235868;02/09/24;00:11:08;1.016;-0.032;0.068;0.009773843921720982;-0.012217304669320583;0.0036651913542300463
01:00:0A:00:00:00:00;1725235869;02/09/24;00:11:09;1.015;-0.03;0.068;0.009773843921720982;-0.010995574295520782;0.0036651913542300463
01:00:0A:00:00:00:00;1725235870;02/09/24;00:11:10;1.015;-0.031;0.068;0.009773843921720982;-0.012217304669320583;0.0036651913542300463
01:00:0A:00:00:00:00;1725235871;02/09/24;00:11:11;1.014;-0.032;0.068;0.009773843921720982;-0.010995574295520782;0.0036651913542300463
01:00:0A:00:00:00:00;1725235872;02/09/24;00:11:12;1.015;-0.031;0.069;0.009773843921720982;-0.012217304669320583;0.0036651913542300463
01:00:0A:00:00:00:00;1725235873;02/09/24;00:11:13;1.015;-0.032;0.068;0.009773843921720982;-0.010995574295520782;0.0036651913542300463
01:00:0A:00:00:00:00;1725235874;02/09/24;00:11:14;1.014;-0.032;0.068;0.009773843921720982;-0.012217304669320583;0.0036651913542300463
01:00:0A:00:00:00:00;1725235875;02/09/24;00:11:15;1.016;-0.032;0.067;0.009773843921720982;-0.010995574295520782;0.0036651913542300463
01:00:0A:00:00:00:00;1725235876;02/09/24;00:11:16;1.015;-0.032;0.069;0.009773843921720982;-0.012217304669320583;0.0036651913542300463
01:00:0A:00:00:00:00;1725235877;02/09/24;00:11:17;1.014;-0.031;0.069;0.009773843921720982;-0.010995574295520782;0.0036651913542300463
01:00:0A:00:00:00:00;1725235878;02/09/24;00:11:18;1.015;-0.032;0.068;0.009773843921720982;-0.012217304669320583;0.0036651913542300463
01:00:0A:00:00:00:00;1725235879;02/09/24;00:11:19;1.015;-0.031;0.068;0.009773843921720982;-0.010995574295520782;0.0036651913542300463
01:00:0A:00:00:00:00;1725235880;02/09/24;00:11:20;1.015;-0.03;0.068;0.009773843921720982;-0.010995574295520782;0.0036651913542300463
01:00:0A:00:00:00:00;1725235881;02/09/24;00:11:21;1.015;-0.031;0.068;0.009773843921720982;-0.010995574295520782;0.0036651913542300463
01:00:0A:00:00:00:00;1725235882;02/09/24;00:11:22;1.015;-0.031;0.068;0.009773843921720982;-0.010995574295520782;0.0036651913542300463
01:00:0A:00:00:00:00;1725235883;02/09/24;00:11:23;1.016;-0.031;0.068;0.009773843921720982;-0.010995574295520782;0.0036651913542300463
01:00:0A:00:00:00:00;1725235884;02/09/24;00:11:24;1.016;-0.031;0.068;0.009773843921720982;-0.010995574295520782;0.0036651913542300463
01:00:0A:00:00:00:00;1725235885;02/09/24;00:11:25;1.016;-0.032;0.07;0.009773843921720982;-0.012217304669320583;0.0036651913542300463
01:00:0A:00:00:00:00;1725235886;02/09/24;00:11:26;1.015;-0.03;0.069;0.009773843921720982;-0.010995574295520782;0.0036651913542300463
01:00:0A:00:00:00:00;1725235887;02/09/24;00:11:27;1.015;-0.031;0.068;0.009773843921720982;-0.012217304669320583;0.0036651913542300463
01:00:0A:00:00:00:00;1725235888;02/09/24;00:11:28;1.016;-0.03;0.068;0.009773843921720982;-0.010995574295520782;0.0036651913542300463
01:00:0A:00:00:00:00;1725235889;02/09/24;00:11:29;1.015;-0.031;0.068;0.00855211354792118;-0.012217304669320583;0.0036651913542300463
01:00:0A:00:00:00:00;1725235890;02/09/24;00:11:30;1.014;-0.032;0.068;0.00855211354792118;-0.010995574295520782;0.0036651913542300463
01:00:0A:00:00:00:00;1725235891;02/09/24;00:11:31;1.015;-0.032;0.069;0.00855211354792118;-0.012217304669320583;0.0036651913542300463
01:00:0A:00:00:00:00;1725235892;02/09/24;00:11:32;1.015;-0.03;0.068;0.00855211354792118;-0.010995574295520782;0.0036651913542300463
01:00:0A:00:00:00:00;1725235893;02/09/24;00:11:33;1.014;-0.03;0.069;0.00855211354792118;-0.012217304669320583;0.0036651913542300463
01:00:0A:00:00:00:00;1725235894;02/09/24;00:11:34;1.016;-0.032;0.068;0.00855211354792118;-0.010995574295520782;0.0036651913542300463
01:00:0A:00:00:00:00;1725235895;02/09/24;00:11:35;1.016;-0.031;0.069;0.00855211354792118;-0.012217304669320583;0.0036651913542300463
01:00:0A:00:00:00:00;1725235896;02/09/24;00:11:36;1.016;-0.031;0.068;0.0073303827084600925;-0.010995574295520782;0.0036651913542300463
01:00:0A:00:00:00:00;1725235897;02/09/24;00:11:37;1.015;-0.031;0.069;0.00855211354792118;-0.012217304669320583;0.0036651913542300463
01:00:0A:00:00:00:00;1725235898;02/09/24;00:11:38;1.014;-0.031;0.068;0.0073303827084600925;-0.012217304669320583;0.004886921960860491
01:00:0A:00:00:00:00;1725235899;02/09/24;00:11:39;1.015;-0.031;0.068;0.0073303827084600925;-0.010995574295520782;0.0036651913542300463
01:00:0A:00:00:00:00;1725235900;02/09/24;00:11:40;1.015;-0.032;0.069;0.0073303827084600925;-0.010995574295520782;0.0036651913542300463
01:00:0A:00:00:00:00;1725235901;02/09/24;00:11:41;1.016;-0.032;0.068;0.0073303827084600925;-0.010995574295520782;0.0036651913542300463
01:00:0A:00:00:00:00;1725235902;02/09/24;00:11:42;1.016;-0.031;0.068;0.0073303827084600925;-0.012217304669320583;0.0036651913542300463
01:00:0A:00:00:00:00;1725235903;02/09/24;00:11:43;1.015;-0.031;0.069;0.0073303827084600925;-0.010995574295520782;0.0036651913542300463
01:00:0A:00:00:00:00;1725235904;02/09/24;00:11:44;1.016;-0.031;0.068;0.0073303827084600925;-0.012217304669320583;0.0036651913542300463
01:00:0A:00:00:00:00;1725235905;02/09/24;00:11:45;1.015;-0.031;0.069;0.0073303827084600925;-0.010995574295520782;0.0036651913542300463
01:00:0A:00:00:00:00;1725235906;02/09/24;00:11:46;1.015;-0.031;0.069;0.0073303827084600925;-0.010995574295520782;0.0036651913542300463
01:00:0A:00:00:00:00;1725235907;02/09/24;00:11:47;1.015;-0.03;0.069;0.0073303827084600925;-0.010995574295520782;0.0036651913542300463
01:00:0A:00:00:00:00;1725235908;02/09/24;00:11:48;1.014;-0.031;0.069;0.006108652334660292;-0.012217304669320583;0.0036651913542300463
01:00:0A:00:00:00:00;1725235909;02/09/24;00:11:49;1.015;-0.032;0.068;0.006108652334660292;-0.010995574295520782;0.0036651913542300463
01:00:0A:00:00:00:00;1725235910;02/09/24;00:11:50;1.016;-0.032;0.068;0.006108652334660292;-0.012217304669320583;0.0036651913542300463
01:00:0A:00:00:00:00;1725235911;02/09/24;00:11:51;1.015;-0.032;0.068;0.006108652334660292;-0.010995574295520782;0.0036651913542300463
01:00:0A:00:00:00:00;1725235912;02/09/24;00:11:52;1.015;-0.032;0.069;0.006108652334660292;-0.012217304669320583;0.0036651913542300463
01:00:0A:00:00:00:00;1725235913;02/09/24;00:11:53;1.015;-0.032;0.068;0.006108652334660292;-0.010995574295520782;0.0036651913542300463
01:00:0A:00:00:00:00;1725235914;02/09/24;00:11:54;1.015;-0.03;0.068;0.006108652334660292;-0.012217304669320583;0.0036651913542300463
01:00:0A:00:00:00:00;1725235915;02/09/24;00:11:55;1.015;-0.031;0.068;0.006108652334660292;-0.010995574295520782;0.0036651913542300463
01:00:0A:00:00:00:00;1725235916;02/09/24;00:11:56;1.016;-0.032;0.068;0.006108652334660292;-0.012217304669320583;0.0036651913542300463
01:00:0A:00:00:00:00;1725235917;02/09/24;00:11:57;1.016;-0.031;0.069;0.006108652334660292;-0.010995574295520782;0.0036651913542300463
01:00:0A:00:00:00:00;1725235918;02/09/24;00:11:58;1.015;-0.032;0.068;0.004886921960860491;-0.012217304669320583;0.0036651913542300463
01:00:0A:00:00:00:00;1725235919;02/09/24;00:11:59;1.014;-0.032;0.068;0.004886921960860491;-0.010995574295520782;0.0036651913542300463
01:00:0A:00:00:00:00;1725235920;02/09/24;00:12:00;1.015;-0.032;0.068;0.004886921960860491;-0.010995574295520782;0.0036651913542300463
01:00:0A:00:00:00:00;1725235921;02/09/24;00:12:01;1.016;-0.031;0.067;0.004886921960860491;-0.012217304669320583;0.0036651913542300463
01:00:0A:00:00:00:00;1725235922;02/09/24;00:12:02;1.015;-0.031;0.068;0.004886921960860491;-0.010995574295520782;0.0036651913542300463
01:00:0A:00:00:00:00;1725235923;02/09/24;00:12:03;1.015;-0.031;0.068;0.004886921960860491;-0.012217304669320583;0.0036651913542300463
01:00:0A:00:00:00:00;1725235924;02/09/24;00:12:04;1.015;-0.032;0.07;0.004886921960860491;-0.010995574295520782;0.0036651913542300463
01:00:0A:00:00:00:00;1725235925;02/09/24;00:12:05;1.015;-0.032;0.068;0.0036651913542300463;-0.010995574295520782;0.0036651913542300463
01:00:0A:00:00:00:00;1725235926;02/09/24;00:12:06;1.014;-0.032;0.069;0.0036651913542300463;-0.010995574295520782;0.0036651913542300463
01:00:0A:00:00:00:00;1725235927;02/09/24;00:12:07;1.014;-0.031;0.068;0.0036651913542300463;-0.012217304669320583;0.0036651913542300463
01:00:0A:00:00:00:00;1725235928;02/09/24;00:12:08;1.015;-0.03;0.068;0.0036651913542300463;-0.010995574295520782;0.0036651913542300463
01:00:0A:00:00:00:00;1725235929;02/09/24;00:12:09;1.015;-0.031;0.068;0.0036651913542300463;-0.012217304669320583;0.0036651913542300463
01:00:0A:00:00:00:00;1725235930;02/09/24;00:12:10;1.014;-0.031;0.068;0.0036651913542300463;-0.010995574295520782;0.0036651913542300463
01:00:0A:00:00:00:00;1725235931;02/09/24;00:12:11;1.015;-0.031;0.069;0.0036651913542300463;-0.012217304669320583;0.0036651913542300463
01:00:0A:00:00:00:00;1725235932;02/09/24;00:12:12;1.016;-0.031;0.068;0.0036651913542300463;-0.010995574295520782;0.0036651913542300463
01:00:0A:00:00:00:00;1725235933;02/09/24;00:12:13;1.016;-0.032;0.069;0.0036651913542300463;-0.012217304669320583;0.0036651913542300463
01:00:0A:00:00:00:00;1725235934;02/09/24;00:12:14;1.015;-0.032;0.068;0.0036651913542300463;-0.010995574295520782;0.0036651913542300463
01:00:0A:00:00:00:00;1725235935;02/09/24;00:12:15;1.015;-0.032;0.068;0.0036651913542300463;-0.010995574295520782;0.0036651913542300463
01:00:0A:00:00:00:00;1725235936;02/09/24;00:12:16;1.015;-0.032;0.068;0.0036651913542300463;-0.010995574295520782;0.0036651913542300463
01:00:0A:00:00:00:00;1725235937;02/09/24;00:12:17;1.015;-0.031;0.069;0.0036651913542300463;-0.010995574295520782;0.0036651913542300463
01:00:0A:00:00:00:00;1725235938;02/09/24;00:12:18;1.016;-0.031;0.068;0.0036651913542300463;-0.010995574295520782;0.0036651913542300463
01:00:0A:00:00:00:00;1725235939;02/09/24;00:12:19;1.016;-0.031;0.068;0.0036651913542300463;-0.010995574295520782;0.0036651913542300463
01:00:0A:00:00:00:00;1725235940;02/09/24;00:12:20;1.016;-0.032;0.068;0.0036651913542300463;-0.010995574295520782;0.0036651913542300463
01:00:0A:00:00:00:00;1725235941;02/09/24;00:12:21;1.015;-0.031;0.069;0.0036651913542300463;-0.010995574295520782;0.0036651913542300463
01:00:0A:00:00:00:00;1725235942;02/09/24;00:12:22;1.016;-0.031;0.068;0.0036651913542300463;-0.010995574295520782;0.0036651913542300463
01:00:0A:00:00:00:00;1725235943;02/09/24;00:12:23;1.014;-0.031;0.068;0.0036651913542300463;-0.010995574295520782;0.0036651913542300463
01:00:0A:00:00:00:00;1725235944;02/09/24;00:12:24;1.015;-0.032;0.068;0.0036651913542300463;-0.012217304669320583;0.0036651913542300463
01:00:0A:00:00:00:00;1725235945;02/09/24;00:12:25;1.015;-0.032;0.069;0.0036651913542300463;-0.010995574295520782;0.0036651913542300463
01:00:0A:00:00:00:00;1725235946;02/09/24;00:12:26;1.014;-0.032;0.069;0.0036651913542300463;-0.012217304669320583;0.0036651913542300463
01:00:0A:00:00:00:00;1725235947;02/09/24;00:12:27;1.015;-0.03;0.068;0.0036651913542300463;-0.010995574295520782;0.0036651913542300463
01:00:0A:00:00:00:00;1725235948;02/09/24;00:12:28;1.016;-0.031;0.068;0.0036651913542300463;-0.012217304669320583;0.0036651913542300463
01:00:0A:00:00:00:00;1725235949;02/09/24;00:12:29;1.015;-0.032;0.069;0.0036651913542300463;-0.010995574295520782;0.0036651913542300463
01:00:0A:00:00:00:00;1725235950;02/09/24;00:12:30;1.015;-0.032;0.068;0.0036651913542300463;-0.012217304669320583;0.0036651913542300463
01:00:0A:00:00:00:00;1725235951;02/09/24;00:12:31;1.016;-0.031;0.067;0.0036651913542300463;-0.010995574295520782;0.0036651913542300463
01:00:0A:00:00:00:00;1725235952;02/09/24;00:12:32;1.015;-0.03;0.068;0.0036651913542300463;-0.010995574295520782;0.0036651913542300463
01:00:0A:00:00:00:00;1725235953;02/09/24;00:12:33;1.015;-0.032;0.068;0.0036651913542300463;-0.010995574295520782;0.0036651913542300463
01:00:0A:00:00:00:00;1725235954;02/09/24;00:12:34;1.015;-0.031;0.069;0.0036651913542300463;-0.010995574295520782;0.0036651913542300463
01:00:0A:00:00:00:00;1725235955;02/09/24;00:12:35;1.015;-0.032;0.068;0.0036651913542300463;-0.010995574295520782;0.0036651913542300463
01:00:0A:00:00:00:00;1725235956;02/09/24;00:12:36;1.015;-0.032;0.069;0.0036651913542300463;-0.010995574295520782;0.0036651913542300463
01:00:0A:00:00:00:00;1725235957;02/09/24;00:12:37;1.015;-0.03;0.068;0.0036651913542300463;-0.010995574295520782;0.0036651913542300463
01:00:0A:00:00:00:00;1725235958;02/09/24;00:12:38;1.015;-0.032;0.068;0.0036651913542300463;-0.010995574295520782;0.0036651913542300463
01:00:0A:00:00:00:00;1725235959;02/09/24;00:12:39;1.016;-0.031;0.068;0.0036651913542300463;-0.010995574295520782;0.0036651913542300463
01:00:0A:00:00:00:00;1725235960;02/09/24;00:12:40;1.015;-0.031;0.069;0.0036651913542300463;-0.010995574295520782;0.0036651913542300463
01:00:0A:00:00:00:00;1725235961;02/09/24;00:12:41;1.016;-0.031;0.068;0.0036651913542300463;-0.012217304669320583;0.0036651913542300463
01:00:0A:00:00:00:00;1725235962;02/09/24;00:12:42;1.015;-0.032;0.069;0.0036651913542300463;-0.010995574295520782;0.0036651913542300463
01:00:0A:00:00:00:00;1725235963;02/09/24;00:12:43;1.016;-0.032;0.068;0.0036651913542300463;-0.012217304669320583;0.0036651913542300463
01:00:0A:00:00:00:00;1725235964;02/09/24;00:12:44;1.016;-0.031;0.069;0.0036651913542300463;-0.010995574295520782;0.0036651913542300463
01:00:0A:00:00:00:00;1725235965;02/09/24;00:12:45;1.016;-0.031;0.068;0.0024434609804302454;-0.012217304669320583;0.0036651913542300463
01:00:0A:00:00:00:00;1725235966;02/09/24;00:12:46;1.015;-0.031;0.069;0.0024434609804302454;-0.010995574295520782;0.0036651913542300463
01:00:0A:00:00:00:00;1725235967;02/09/24;00:12:47;1.016;-0.032;0.068;0.0024434609804302454;-0.010995574295520782;0.0036651913542300463
01:00:0A:00:00:00:00;1725235968;02/09/24;00:12:48;1.016;-0.032;0.068;0.0024434609804302454;-0.010995574295520782;0.0036651913542300463
01:00:0A:00:00:00:00;1725235969;02/09/24;00:12:49;1.015;-0.032;0.068;0.0024434609804302454;-0.012217304669320583;0.0036651913542300463
01:00:0A:00:00:00:00;1725235970;02/09/24;00:12:50;1.016;-0.031;0.068;0.0024434609804302454;-0.010995574295520782;0.0036651913542300463
01:00:0A:00:00:00:00;1725235971;02/09/24;00:12:51;1.015;-0.031;0.068;0.0024434609804302454;-0.012217304669320583;0.0036651913542300463
01:00:0A:00:00:00:00;1725235972;02/09/24;00:12:52;1.015;-0.031;0.068;0.0024434609804302454;-0.010995574295520782;0.0036651913542300463
01:00:0A:00:00:00:00;1725235973;02/09/24;00:12:53;1.015;-0.031;0.068;0.0024434609804302454;-0.012217304669320583;0.0036651913542300463
01:00:0A:00:00:00:00;1725235974;02/09/24;00:12:54;1.015;-0.032;0.067;0.0024434609804302454;-0.010995574295520782;0.0036651913542300463
01:00:0A:00:00:00:00;1725235975;02/09/24;00:12:55;1.015;-0.03;0.068;0.0024434609804302454;-0.010995574295520782;0.0036651913542300463
01:00:0A:00:00:00:00;1725235976;02/09/24;00:12:56;1.015;-0.031;0.068;0.0012217304902151227;-0.010995574295520782;0.0036651913542300463
01:00:0A:00:00:00:00;1725235977;02/09/24;00:12:57;1.015;-0.031;0.068;0.0012217304902151227;-0.010995574295520782;0.0036651913542300463
01:00:0A:00:00:00:00;1725235978;02/09/24;00:12:58;1.014;-0.032;0.067;0.0012217304902151227;-0.010995574295520782;0.0036651913542300463
01:00:0A:00:00:00:00;1725235979;02/09/24;00:12:59;1.016;-0.03;0.067;0.0012217304902151227;-0.010995574295520782;0.0036651913542300463
01:00:0A:00:00:00:00;1725235980;02/09/24;00:13:00;1.015;-0.03;0.068;0.0012217304902151227;-0.010995574295520782;0.0036651913542300463
01:00:0A:00:00:00:00;1725235981;02/09/24;00:13:01;1.016;-0.031;0.069;0.0012217304902151227;-0.010995574295520782;0.0036651913542300463
01:00:0A:00:00:00:00;1725235982;02/09/24;00:13:02;1.015;-0.032;0.068;0.0012217304902151227;-0.012217304669320583;0.0036651913542300463
01:00:0A:00:00:00:00;1725235983;02/09/24;00:13:03;1.016;-0.031;0.068;0.0012217304902151227;-0.010995574295520782;0.0036651913542300463
01:00:0A:00:00:00:00;1725235984;02/09/24;00:13:04;1.015;-0.031;0.067;0.0;-0.010995574295520782;0.0036651913542300463
01:00:0A:00:00:00:00;1725235985;02/09/24;00:13:05;1.016;-0.032;0.068;0.0012217304902151227;-0.010995574295520782;0.0036651913542300463
01:00:0A:00:00:00:00;1725235986;02/09/24;00:13:06;1.015;-0.031;0.068;0.0;-0.012217304669320583;0.0036651913542300463
01:00:0A:00:00:00:00;1725235987;02/09/24;00:13:07;1.016;-0.031;0.068;0.0;-0.010995574295520782;0.0036651913542300463
01:00:0A:00:00:00:00;1725235988;02/09/24;00:13:08;1.015;-0.032;0.067;0.0;-0.012217304669320583;0.0036651913542300463
01:00:0A:00:00:00:00;1725235989;02/09/24;00:13:09;1.015;-0.031;0.068;0.0;-0.010995574295520782;0.0036651913542300463
01:00:0A:00:00:00:00;1725235990;02/09/24;00:13:10;1.015;-0.031;0.068;0.0;-0.010995574295520782;0.0036651913542300463
01:00:0A:00:00:00:00;1725235991;02/09/24;00:13:11;1.015;-0.032;0.067;0.0;-0.010995574295520782;0.0036651913542300463
01:00:0A:00:00:00:00;1725235992;02/09/24;00:13:12;1.015;-0.031;0.068;0.0;-0.010995574295520782;0.0036651913542300463
01:00:0A:00:00:00:00;1725235993;02/09/24;00:13:13;1.015;-0.03;0.068;0.0;-0.010995574295520782;0.0036651913542300463
01:00:0A:00:00:00:00;1725235994;02/09/24;00:13:14;1.015;-0.031;0.068;-0.0012217304902151227;-0.010995574295520782;0.0036651913542300463
01:00:0A:00:00:00:00;1725235995;02/09/24;00:13:15;1.016;-0.031;0.068;-0.0012217304902151227;-0.010995574295520782;0.0036651913542300463
01:00:0A:00:00:00:00;1725235996;02/09/24;00:13:16;1.016;-0.032;0.068;0.0;-0.010995574295520782;0.0036651913542300463
01:00:0A:00:00:00:00;1725235997;02/09/24;00:13:17;1.015;-0.032;0.069;-0.0012217304902151227;-0.010995574295520782;0.0036651913542300463
01:00:0A:00:00:00:00;1725235998;02/09/24;00:13:18;1.015;-0.031;0.068;-0.0012217304902151227;-0.010995574295520782;0.0036651913542300463
01:00:0A:00:00:00:00;1725235999;02/09/24;00:13:19;1.006;-0.04;0.06;-0.0012217304902151227;-0.03298672288656235;0.025656338781118393
01:00:0A:00:00:00:00;1725236000;02/09/24;00:13:20;0.998;-0.019;0.082;-0.010995574295520782;-0.04642575979232788;0.0
01:00:0A:00:00:00:00;1725236001;02/09/24;00:13:21;1.013;-0.057;0.112;-0.0073303827084600925;-0.24190263450145721;-0.15515977144241333
01:00:0A:00:00:00:00;1725236002;02/09/24;00:13:22;1.016;0.01;0.166;0.012217304669320583;0.6927211880683899;0.0036651913542300463
01:00:0A:00:00:00:00;1725236003;02/09/24;00:13:23;0.966;-0.125;0.43;-0.33108896017074585;-0.2883284091949463;0.07819075137376785
01:00:0A:00:00:00:00;1725236004;02/09/24;00:13:24;0.976;0.389;-0.035;-0.3543018400669098;0.27000245451927185;-0.5082398653030396
01:00:0A:00:00:00:00;1725236005;02/09/24;00:13:25;0.838;-0.352;0.447;-0.8417722582817078;-0.21502456068992615;0.8588765263557434
01:00:0A:00:00:00:00;1725236006;02/09/24;00:13:26;0.926;-0.14;-0.382;-0.28588491678237915;-0.17104226350784302;-0.7049384713172913
01:00:0A:00:00:00:00;1725236007;02/09/24;00:13:27;0.997;0.072;0.105;-0.07330382615327835;0.0354301817715168;-0.1563815027475357
01:00:0A:00:00:00:00;1725236008;02/09/24;00:13:28;0.929;-0.122;0.086;-0.29077184200286865;-0.3689626157283783;0.4764748811721802
01:00:0A:00:00:00:00;1725236009;02/09/24;00:13:29;0.886;0.077;0.151;-0.4092797040939331;0.2272418737411499;-0.22846359014511108
01:00:0A:00:00:00:00;1725236010;02/09/24;00:13:30;0.92;0.09;0.017;-0.62796950340271;-0.6597344279289246;0.06475171446800232
01:00:0A:00:00:00:00;1725236011;02/09/24;00:13:31;0.95;-0.112;0.048;-0.3677408695220947;0.45692718029022217;0.31642818450927734
01:00:0A:00:00:00:00;1725236012;02/09/24;00:13:32;1.005;-0.202;0.158;-0.18936821818351746;-0.5277875661849976;-1.127657175064087
01:00:0A:00:00:00:00;1725236013;02/09/24;00:13:33;0.795;0.404;-0.367;-0.19425514340400696;-0.39828410744667053;0.807563841342926
01:00:0A:00:00:00:00;1725236014;02/09/24;00:13:34;0.949;-0.162;-0.208;0.1319468915462494;1.1264355182647705;0.07941248267889023
01:00:0A:00:00:00:00;1725236015;02/09/24;00:13:35;1.025;0.095;0.036;-0.1062905490398407;-0.1966986060142517;-0.013439035043120384
01:00:0A:00:00:00:00;1725236016;02/09/24;00:13:36;1.006;-0.192;0.027;-0.27488934993743896;-0.0708603635430336;0.31031954288482666
01:00:0A:00:00:00:00;1725236017;02/09/24;00:13:37;0.967;0.042;0.217;-0.6963863372802734;0.2724458873271942;-0.2431243658065796
01:00:0A:00:00:00:00;1725236018;02/09/24;00:13:38;0.961;-0.086;-0.045;-0.8588765263557434;-0.09896016865968704;0.17348572611808777
01:00:0A:00:00:00:00;1725236019;02/09/24;00:13:39;0.989;-0.039;0.056;-0.6414085030555725;0.05864306166768074;-0.8857545852661133
01:00:0A:00:00:00:00;1725236020;02/09/24;00:13:40;0.926;0.226;0.325;-1.0531316995620728;-0.3029891550540924;-0.36651912331581116
01:00:0A:00:00:00:00;1725236021;02/09/24;00:13:41;0.935;0.316;-0.254;-1.57481050491333;-1.459967851638794;1.0299187898635864
01:00:0A:00:00:00:00;1725236022;02/09/24;00:13:42;0.893;0.324;-0.193;-0.8246681094169617;-1.0555751323699951;-0.6658430695533752
01:00:0A:00:00:00:00;1725236023;02/09/24;00:13:43;1.008;0.154;0.058;-0.5045746564865112;-0.15393804013729095;0.3494149148464203
01:00:0A:00:00:00:00;1725236024;02/09/24;00:13:44;0.856;0.465;-0.221;-1.6762142181396484;-1.260825753211975;0.20525071024894714
01:00:0A:00:00:00:00;1725236025;02/09/24;00:13:45;0.934;0.071;-0.355;-2.1319196224212646;-0.4495967924594879;0.9150761365890503
01:00:0A:00:00:00:00;1725236026;02/09/24;00:13:46;0.87;0.415;-0.072;-1.038470983505249;0.43249258399009705;-0.09529497474431992
01:00:0A:00:00:00:00;1725236027;02/09/24;00:13:47;0.827;0.533;-0.164;-1.0128145217895508;-0.8784241676330566;0.32498031854629517
01:00:0A:00:00:00:00;1725236028;02/09/24;00:13:48;0.893;0.312;-0.246;-1.6725490093231201;-0.7257078886032104;0.9798278212547302
01:00:0A:00:00:00:00;1725236029;02/09/24;00:13:49;1.008;-0.166;-0.131;-1.6896531581878662;0.4190535545349121;-0.15882496535778046
01:00:0A:00:00:00:00;1725236030;02/09/24;00:13:50;1.02;0.06;0.245;-1.6920967102050781;-0.23945917189121246;-0.5204571485519409
01:00:0A:00:00:00:00;1725236031;02/09/24;00:13:51;0.946;0.265;0.347;-2.6975808143615723;-0.1160643920302391;-0.7073819637298584
01:00:0A:00:00:00:00;1725236032;02/09/24;00:13:52;0.942;-0.1;0.438;-2.426356792449951;0.09773843735456467;-0.9517280459403992
01:00:0A:00:00:00:00;1725236033;02/09/24;00:13:53;1.001;0.007;0.213;-2.107485055923462;-0.16982054710388184;-0.9932668209075928
01:00:0A:00:00:00:00;1725236034;02/09/24;00:13:54;1.026;0.202;-0.016;-2.059837579727173;-0.40194931626319885;-0.5192354917526245
01:00:0A:00:00:00:00;1725236035;02/09/24;00:13:55;1.006;-0.311;0.08;-1.8460347652435303;0.43249258399009705;0.40194931626319885
01:00:0A:00:00:00:00;1725236036;02/09/24;00:13:56;0.882;-0.488;0.076;-1.1398744583129883;0.8820894360542297;-0.4251621961593628
01:00:0A:00:00:00:00;1725236037;02/09/24;00:13:57;0.977;0.022;0.225;-0.7965682148933411;-0.040317103266716;-0.5717698335647583
01:00:0A:00:00:00:00;1725236038;02/09/24;00:13:58;1.003;0.245;0.126;-0.9272934198379517;-0.3017674386501312;0.39217546582221985
01:00:0A:00:00:00:00;1725236039;02/09/24;00:13:59;1.056;0.006;-0.253;-0.720820963382721;0.6255260109901428;0.161268413066864
01:00:0A:00:00:00:00;1725236040;02/09/24;00:14:00;0.854;-0.279;0.657;-0.6878342032432556;-0.3897320330142975;-0.5143485069274902
01:00:0A:00:00:00:00;1725236041;02/09/24;00:14:01;0.912;0.318;-0.244;-0.7452555894851685;0.10873401165008545;0.6976081132888794
01:00:0A:00:00:00:00;1725236042;02/09/24;00:14:02;0.986;-0.339;0.091;-0.4960225820541382;0.6914994716644287;0.1417207270860672
01:00:0A:00:00:00:00;1725236043;02/09/24;00:14:03;0.97;-0.396;0.157;-0.15027284622192383;0.34574973583221436;-1.5906931161880493
01:00:0A:00:00:00:00;1725236044;02/09/24;00:14:04;0.829;0.561;0.378;-0.6035348773002625;-0.13805554807186127;-0.21868975460529327
01:00:0A:00:00:00:00;1725236045;02/09/24;00:14:05;0.789;0.446;-0.406;-0.8295549750328064;-0.5644394755363464;0.4337143301963806
01:00:0A:00:00:00:00;1725236046;02/09/24;00:14:06;0.556;0.795;0.074;-2.1099283695220947;-1.2693779468536377;0.7855727076530457
01:00:0A:00:00:00:00;1725236047;02/09/24;00:14:07;0.834;0.285;0.217;-1.5137239694595337;-0.313984751701355;0.27488934993743896
01:00:0A:00:00:00:00;1725236048;02/09/24;00:14:08;1.012;-0.06;-0.052;-1.684766411781311;-0.2687807083129883;0.26022857427597046
01:00:0A:00:00:00:00;1725236049;02/09/24;00:14:09;1.024;-0.062;-0.109;-4.0830230712890625;0.2577851116657257;0.4300491213798523
01:00:0A:00:00:00:00;1725236050;02/09/24;00:14:10;0.934;0.076;-0.297;-2.554638385772705;1.1606439352035522;0.4312708377838135
01:00:0A:00:00:00:00;1725236051;02/09/24;00:14:11;0.955;0.098;0.0;-1.4624114036560059;-0.6120869517326355;-1.695761799812317
01:00:0A:00:00:00:00;1725236052;02/09/24;00:14:12;0.73;0.718;0.159;-2.1563541889190674;-0.9578366875648499;-0.9541715383529663
01:00:0A:00:00:00:00;1725236053;02/09/24;00:14:13;0.99;0.055;0.409;-2.5057692527770996;-0.5326744914054871;-0.4105014204978943
01:00:0A:00:00:00:00;1725236054;02/09/24;00:14:14;1.005;0.299;0.137;-2.2015583515167236;-0.09285151958465576;-0.2028072476387024
01:00:0A:00:00:00:00;1725236055;02/09/24;00:14:15;0.903;0.224;-0.432;-2.2956316471099854;-0.028099799528717995;-0.5082398653030396
01:00:0A:00:00:00:00;1725236056;02/09/24;00:14:16;0.96;0.144;-0.049;-2.5106561183929443;-0.24678954482078552;-0.28099802136421204
01:00:0A:00:00:00:00;1725236057;02/09/24;00:14:17;1.012;-0.144;0.127;-2.2455406188964844;-0.45814892649650574;-0.24678954482078552
01:00:0A:00:00:00:00;1725236058;02/09/24;00:14:18;1.026;-0.085;0.283;-1.8020524978637695;0.32498031854629517;0.645073652267456
01:00:0A:00:00:00:00;1725236059;02/09/24;00:14:19;0.942;-0.317;-0.352;-0.8979718685150146;-0.13439035415649414;0.2125810980796814
01:00:0A:00:00:00:00;1725236060;02/09/24;00:14:20;0.93;-0.064;0.484;-0.45204028487205505;0.47280970215797424;-0.08552113175392151
01:00:0A:00:00:00:00;1725236061;02/09/24;00:14:21;0.994;0.025;0.192;-0.42149701714515686;-0.6206390857696533;-0.6572909951210022
01:00:0A:00:00:00:00;1725236062;02/09/24;00:14:22;0.964;0.231;-0.097;-0.6389650106430054;-0.02687807008624077;0.15515977144241333
01:00:0A:00:00:00:00;1725236063;02/09/24;00:14:23;1.079;-0.149;0.113;-0.5583308339118958;0.21502456068992615;0.16859880089759827
01:00:0A:00:00:00:00;1725236064;02/09/24;00:14:24;1.003;-0.199;0.423;-2.8759536743164062;0.5522221922874451;-0.3152064383029938
01:00:0A:00:00:00:00;1725236065;02/09/24;00:14:25;0.95;-0.193;0.539;-2.4911084175109863;0.20402899384498596;-0.2736676335334778
01:00:0A:00:00:00:00;1725236066;02/09/24;00:14:26;1.111;0.122;0.01;-1.9853119850158691;-0.12828169763088226;-0.29688048362731934
01:00:0A:00:00:00:00;1725236067;02/09/24;00:14:27;1.022;0.081;0.099;-1.7959437370300293;-0.05253440886735916;-0.1514945775270462
01:00:0A:00:00:00:00;1725236068;02/09/24;00:14:28;0.863;0.404;0.046;-2.087937355041504;-0.37629297375679016;0.7904595732688904
01:00:0A:00:00:00:00;1725236069;02/09/24;00:14:29;0.951;0.204;-0.131;-1.6859880685806274;-0.3298672139644623;-0.35063666105270386
01:00:0A:00:00:00:00;1725236070;02/09/24;00:14:30;0.829;0.577;0.065;-0.313984751701355;-0.2125810980796814;0.4495967924594879
01:00:0A:00:00:00:00;1725236071;02/09/24;00:14:31;1.036;-0.204;0.088;-0.45326200127601624;0.2382374405860901;-0.1576032191514969
01:00:0A:00:00:00:00;1725236072;02/09/24;00:14:32;0.827;0.344;0.534;-0.6023131012916565;-0.1563815027475357;-0.3543018400669098
01:00:0A:00:00:00:00;1725236073;02/09/24;00:14:33;1.024;0.016;0.162;-0.7513642311096191;-0.9162978529930115;0.13927726447582245
01:00:0A:00:00:00:00;1725236074;02/09/24;00:14:34;1.0;-0.04;-0.126;-0.5461135506629944;0.7855727076530457;-0.14049901068210602
01:00:0A:00:00:00:00;1725236075;02/09/24;00:14:35;0.993;-0.007;0.278;-0.5180137157440186;-0.6475171446800232;-0.1062905490398407
01:00:0A:00:00:00:00;1725236076;02/09/24;00:14:36;0.875;-0.695;-0.117;0.21991148591041565;0.6230825185775757;0.6841690540313721
01:00:0A:00:00:00:00;1725236077;02/09/24;00:14:37;0.943;0.414;0.025;0.09407324343919754;0.10262535512447357;-0.22846359014511108
01:00:0A:00:00:00:00;1725236078;02/09/24;00:14:38;1.014;-0.172;-0.017;-0.0659734457731247;0.021991148591041565;0.8136724829673767
01:00:0A:00:00:00:00;1725236079;02/09/24;00:14:39;1.0;-0.13;0.006;0.29077184200286865;-0.06352998316287994;-0.48869219422340393
01:00:0A:00:00:00:00;1725236080;02/09/24;00:14:40;1.04;-0.052;0.088;0.2883284091949463;0.17959438264369965;0.2687807083129883
01:00:0A:00:00:00:00;1725236081;02/09/24;00:14:41;0.983;-0.096;0.175;0.21624629199504852;-0.11362093687057495;-0.10384709388017654
01:00:0A:00:00:00:00;1725236082;02/09/24;00:14:42;0.939;-0.252;-0.038;0.08918632566928864;0.1160643920302391;0.5900958180427551
01:00:0A:00:00:00:00;1725236083;02/09/24;00:14:43;0.931;0.141;0.428;0.18448130786418915;-0.004886921960860491;-1.1875219345092773
01:00:0A:00:00:00:00;1725236084;02/09/24;00:14:44;0.837;0.458;0.205;-0.5070181488990784;-0.00855211354792118;-0.41172316670417786
01:00:0A:00:00:00:00;1725236085;02/09/24;00:14:45;1.0;-0.018;-0.145;-0.7696901559829712;-0.46181410551071167;0.4605923891067505
01:00:0A:00:00:00:00;1725236086;02/09/24;00:14:46;1.049;0.004;0.087;-0.5363396406173706;0.40072759985923767;0.14049901068210602
01:00:0A:00:00:00:00;1725236087;02/09/24;00:14:47;1.019;-0.109;-0.097;-0.3738495111465454;-0.39217546582221985;-0.0354301817715168
01:00:0A:00:00:00:00;1725236088;02/09/24;00:14:48;0.992;0.211;-0.081;-0.13805554807186127;-0.018325956538319588;-0.18570303916931152
01:00:0A:00:00:00:00;1725236089;02/09/24;00:14:49;0.998;-0.178;-0.06;-0.04398229718208313;-0.08552113175392151;0.3701843321323395
01:00:0A:00:00:00:00;1725236090;02/09/24;00:14:50;1.003;0.019;-0.018;0.1722639948129654;0.019547687843441963;-0.4251621961593628
01:00:0A:00:00:00:00;1725236091;02/09/24;00:14:51;0.891;0.077;0.127;-0.0659734457731247;0.06475171446800232;0.17837265133857727
01:00:0A:00:00:00:00;1725236092;02/09/24;00:14:52;0.925;-0.204;0.172;-0.1062905490398407;-0.17470745742321014;0.02076941914856434
01:00:0A:00:00:00:00;1725236093;02/09/24;00:14:53;1.046;0.019;-0.09;-0.05375614017248154;-0.5192354917526245;-0.5229006409645081
01:00:0A:00:00:00:00;1725236094;02/09/24;00:14:54;0.69;0.529;-0.434;-0.16249015927314758;0.02687807008624077;0.6120869517326355
01:00:0A:00:00:00:00;1725236095;02/09/24;00:14:55;0.998;-0.27;0.203;-0.08918632566928864;1.1423180103302002;0.5021312236785889
01:00:0A:00:00:00:00;1725236096;02/09/24;00:14:56;0.989;-0.251;0.303;-0.31154125928878784;-0.4080579876899719;-0.43860122561454773
01:00:0A:00:00:00:00;1725236097;02/09/24;00:14:57;0.927;0.191;-0.262;-0.294437050819397;-0.24434609711170197;-0.37140607833862305
01:00:0A:00:00:00:00;1725236098;02/09/24;00:14:58;1.011;0.091;0.048;-0.4153883755207062;0.6365215182304382;0.3995058536529541
01:00:0A:00:00:00:00;1725236099;02/09/24;00:14:59;0.968;0.011;0.278;-0.5900958180427551;-0.9896016716957092;-0.875980794429779
01:00:0A:00:00:00:00;1725236100;02/09/24;00:15:00;0.922;0.398;0.164;-0.9004153609275818;0.11972958594560623;0.08674286305904388
01:00:0A:00:00:00:00;1725236101;02/09/24;00:15:01;1.024;0.057;-0.031;-1.0042624473571777;-0.8258897662162781;-0.1661553531885147
01:00:0A:00:00:00:00;1725236102;02/09/24;00:15:02;0.914;0.117;-0.333;-2.4972169399261475;0.05864306166768074;0.817337691783905
01:00:0A:00:00:00:00;1725236103;02/09/24;00:15:03;0.928;-0.221;0.006;-2.03540301322937;0.24190263450145721;0.4300491213798523
01:00:0A:00:00:00:00;1725236104;02/09/24;00:15:04;0.946;-0.072;-0.075;-1.3158037662506104;0.646295428276062;-0.7525859475135803
01:00:0A:00:00:00:00;1725236105;02/09/24;00:15:05;0.959;0.081;0.015;-1.29381263256073;-0.9871581792831421;-0.04153883829712868
01:00:0A:00:00:00:00;1725236106;02/09/24;00:15:06;0.995;0.202;-0.001;-1.1997392177581787;0.1563815027475357;0.587652325630188
01:00:0A:00:00:00:00;1725236107;02/09/24;00:15:07;1.045;-0.018;-0.07;-0.8197811245918274;-0.11728612333536148;-1.1410963535308838
01:00:0A:00:00:00:00;1725236108;02/09/24;00:15:08;0.744;0.437;0.435;-1.2119566202163696;-0.7330382466316223;0.31031954288482666
01:00:0A:00:00:00:00;1725236109;02/09/24;00:15:09;1.001;0.164;-0.177;-1.4501941204071045;-0.6731734871864319;0.37751471996307373
01:00:0A:00:00:00:00;1725236110;02/09/24;00:15:10;1.047;-0.122;0.012;-1.3634511232376099;0.12950342893600464;0.14049901068210602
01:00:0A:00:00:00:00;1725236111;02/09/24;00:15:11;1.028;-0.077;0.038;-1.0690141916275024;-0.00855211354792118;-0.16004669666290283
01:00:0A:00:00:00:00;1725236112;02/09/24;00:15:12;1.026;0.067;0.065;-0.8051203489303589;-0.10506881773471832;0.02687807008624077
01:00:0A:00:00:00:00;1725236113;02/09/24;00:15:13;1.033;0.109;0.022;-0.6316346526145935;-0.14294245839118958;0.07941248267889023
01:00:0A:00:00:00:00;1725236114;02/09/24;00:15:14;0.896;-0.202;0.024;-0.5375614166259766;0.3481931686401367;0.3799581527709961
01:00:0A:00:00:00:00;1725236115;02/09/24;00:15:15;0.879;0.201;-0.095;-0.5448917746543884;-0.06108652427792549;-0.22968533635139465
01:00:0A:00:00:00:00;1725236116;02/09/24;00:15:16;0.893;-0.247;0.033;-0.62796950340271;0.750142514705658;0.960280179977417
01:00:0A:00:00:00:00;1725236117;02/09/24;00:15:17;0.927;-0.133;0.347;-0.2565633952617645;0.26022857427597046;-0.8552113175392151
