Source;Epoch timestamp (UTC);Date;Time (UTC);Accel X (G);Accel Y (G);Accel Z (G);Gyro X (rad/s);Gyro Y (rad/s);Gyro Z (rad/s)
01:00:0A:00:00:00:00;1727481588;27/09/24;23:59:48;1.016;-0.004;0.079;-0.02321287989616394;-0.009773843921720982;0.0
01:00:0A:00:00:00:00;1727481589;27/09/24;23:59:49;1.015;-0.001;0.077;-0.021991148591041565;-0.013439035043120384;0.0
01:00:0A:00:00:00:00;1727481590;27/09/24;23:59:50;1.015;-0.004;0.077;-0.02321287989616394;-0.012217304669320583;0.0024434609804302454
01:00:0A:00:00:00:00;1727481591;27/09/24;23:59:51;1.016;-0.002;0.078;-0.021991148591041565;-0.012217304669320583;0.0012217304902151227
01:00:0A:00:00:00:00;1727481592;27/09/24;23:59:52;1.016;-0.002;0.077;-0.021991148591041565;-0.013439035043120384;0.0
01:00:0A:00:00:00:00;1727481593;27/09/24;23:59:53;1.015;-0.004;0.08;-0.021991148591041565;-0.009773843921720982;0.0024434609804302454
01:00:0A:00:00:00:00;1727481594;27/09/24;23:59:54;1.016;-0.002;0.077;-0.02076941914856434;-0.014660765416920185;0.0
01:00:0A:00:00:00:00;1727481595;27/09/24;23:59:55;1.016;-0.002;0.079;-0.02076941914856434;-0.009773843921720982;0.0024434609804302454
01:00:0A:00:00:00:00;1727481596;27/09/24;23:59:56;1.016;-0.002;0.078;-0.019547687843441963;-0.012217304669320583;0.0
01:00:0A:00:00:00:00;1727481597;27/09/24;23:59:57;1.015;-0.001;0.075;-0.019547687843441963;-0.012217304669320583;0.0
01:00:0A:00:00:00:00;1727481598;27/09/24;23:59:58;1.014;-0.003;0.078;-0.019547687843441963;-0.010995574295520782;0.0024434609804302454
01:00:0A:00:00:00:00;1727481599;27/09/24;23:59:59;1.016;-0.003;0.078;-0.019547687843441963;-0.015882495790719986;0.0
01:00:0A:00:00:00:00;1727481600;28/09/24;00:00:00;1.016;-0.001;0.078;-0.019547687843441963;-0.00855211354792118;0.0024434609804302454
01:00:0A:00:00:00:00;1727481601;28/09/24;00:00:01;1.015;-0.002;0.077;-0.018325956538319588;-0.009773843921720982;0.0
01:00:0A:00:00:00:00;1727481602;28/09/24;00:00:02;1.015;-0.002;0.076;-0.018325956538319588;-0.012217304669320583;0.0012217304902151227
01:00:0A:00:00:00:00;1727481603;28/09/24;00:00:03;1.015;-0.003;0.078;-0.018325956538319588;-0.012217304669320583;0.0036651913542300463
01:00:0A:00:00:00:00;1727481604;28/09/24;00:00:04;1.016;-0.002;0.078;-0.01710422709584236;-0.013439035043120384;0.0
01:00:0A:00:00:00:00;1727481605;28/09/24;00:00:05;1.016;-0.003;0.078;-0.018325956538319588;-0.00855211354792118;0.0036651913542300463
01:00:0A:00:00:00:00;1727481606;28/09/24;00:00:06;1.015;-0.003;0.077;-0.015882495790719986;-0.009773843921720982;0.0
01:00:0A:00:00:00:00;1727481607;28/09/24;00:00:07;1.014;-0.001;0.075;-0.01710422709584236;-0.010995574295520782;0.0036651913542300463
01:00:0A:00:00:00:00;1727481608;28/09/24;00:00:08;1.016;-0.003;0.077;-0.015882495790719986;-0.013439035043120384;0.0012217304902151227
01:00:0A:00:00:00:00;1727481609;28/09/24;00:00:09;1.016;-0.002;0.079;-0.015882495790719986;-0.013439035043120384;0.0012217304902151227
01:00:0A:00:00:00:00;1727481610;28/09/24;00:00:10;1.016;-0.001;0.078;-0.015882495790719986;-0.0073303827084600925;0.0012217304902151227
01:00:0A:00:00:00:00;1727481611;28/09/24;00:00:11;1.015;-0.004;0.078;-0.015882495790719986;-0.010995574295520782;0.0012217304902151227
01:00:0A:00:00:00:00;1727481612;28/09/24;00:00:12;1.014;-0.001;0.076;-0.015882495790719986;-0.012217304669320583;0.0012217304902151227
01:00:0A:00:00:00:00;1727481613;28/09/24;00:00:13;1.016;-0.001;0.079;-0.015882495790719986;-0.013439035043120384;0.0012217304902151227
01:00:0A:00:00:00:00;1727481614;28/09/24;00:00:14;1.016;-0.002;0.076;-0.015882495790719986;-0.012217304669320583;0.0
01:00:0A:00:00:00:00;1727481615;28/09/24;00:00:15;1.016;-0.001;0.078;-0.015882495790719986;-0.010995574295520782;0.0012217304902151227
01:00:0A:00:00:00:00;1727481616;28/09/24;00:00:16;1.016;-0.003;0.077;-0.015882495790719986;-0.012217304669320583;0.0
01:00:0A:00:00:00:00;1727481617;28/09/24;00:00:17;1.016;0.0;0.077;-0.01710422709584236;-0.012217304669320583;0.0012217304902151227
01:00:0A:00:00:00:00;1727481618;28/09/24;00:00:18;1.016;-0.001;0.079;-0.01710422709584236;-0.010995574295520782;0.0012217304902151227
01:00:0A:00:00:00:00;1727481619;28/09/24;00:00:19;1.016;-0.002;0.078;-0.01710422709584236;-0.010995574295520782;-0.0012217304902151227
01:00:0A:00:00:00:00;1727481620;28/09/24;00:00:20;1.016;-0.002;0.076;-0.018325956538319588;-0.012217304669320583;0.0012217304902151227
01:00:0A:00:00:00:00;1727481621;28/09/24;00:00:21;1.016;-0.001;0.078;-0.018325956538319588;-0.012217304669320583;0.0
01:00:0A:00:00:00:00;1727481622;28/09/24;00:00:22;1.016;-0.001;0.076;-0.018325956538319588;-0.013439035043120384;0.0012217304902151227
01:00:0A:00:00:00:00;1727481623;28/09/24;00:00:23;1.016;-0.003;0.08;-0.019547687843441963;-0.009773843921720982;0.0012217304902151227
01:00:0A:00:00:00:00;1727481624;28/09/24;00:00:24;1.015;-0.002;0.076;-0.018325956538319588;-0.010995574295520782;0.0
01:00:0A:00:00:00:00;1727481625;28/09/24;00:00:25;1.015;-0.001;0.076;-0.019547687843441963;-0.010995574295520782;0.0024434609804302454
01:00:0A:00:00:00:00;1727481626;28/09/24;00:00:26;1.015;-0.003;0.077;-0.019547687843441963;-0.013439035043120384;0.0012217304902151227
01:00:0A:00:00:00:00;1727481627;28/09/24;00:00:27;1.016;-0.001;0.077;-0.019547687843441963;-0.010995574295520782;0.0012217304902151227
01:00:0A:00:00:00:00;1727481628;28/09/24;00:00:28;1.016;-0.002;0.078;-0.02076941914856434;-0.009773843921720982;0.0036651913542300463
01:00:0A:00:00:00:00;1727481629;28/09/24;00:00:29;1.014;-0.002;0.077;-0.019547687843441963;-0.010995574295520782;0.0
01:00:0A:00:00:00:00;1727481630;28/09/24;00:00:30;1.014;-0.002;0.076;-0.02076941914856434;-0.010995574295520782;0.0036651913542300463
01:00:0A:00:00:00:00;1727481631;28/09/24;00:00:31;1.015;-0.002;0.077;-0.019547687843441963;-0.013439035043120384;0.0012217304902151227
01:00:0A:00:00:00:00;1727481632;28/09/24;00:00:32;1.015;-0.003;0.077;-0.02076941914856434;-0.012217304669320583;0.0012217304902151227
01:00:0A:00:00:00:00;1727481633;28/09/24;00:00:33;1.015;-0.002;0.077;-0.02076941914856434;-0.009773843921720982;0.0024434609804302454
01:00:0A:00:00:00:00;1727481634;28/09/24;00:00:34;1.016;-0.002;0.076;-0.019547687843441963;-0.012217304669320583;0.0
01:00:0A:00:00:00:00;1727481635;28/09/24;00:00:35;1.016;-0.001;0.077;-0.02076941914856434;-0.010995574295520782;0.0024434609804302454
01:00:0A:00:00:00:00;1727481636;28/09/24;00:00:36;1.016;-0.002;0.076;-0.019547687843441963;-0.012217304669320583;0.0
01:00:0A:00:00:00:00;1727481637;28/09/24;00:00:37;1.016;0.0;0.077;-0.019547687843441963;-0.012217304669320583;0.0024434609804302454
01:00:0A:00:00:00:00;1727481638;28/09/24;00:00:38;1.015;-0.002;0.078;-0.019547687843441963;-0.010995574295520782;0.0012217304902151227
01:00:0A:00:00:00:00;1727481639;28/09/24;00:00:39;1.015;-0.002;0.076;-0.018325956538319588;-0.012217304669320583;0.0
01:00:0A:00:00:00:00;1727481640;28/09/24;00:00:40;1.016;-0.001;0.076;-0.019547687843441963;-0.010995574295520782;0.0024434609804302454
01:00:0A:00:00:00:00;1727481641;28/09/24;00:00:41;1.016;-0.002;0.078;-0.018325956538319588;-0.012217304669320583;0.0
01:00:0A:00:00:00:00;1727481642;28/09/24;00:00:42;1.016;-0.001;0.075;-0.019547687843441963;-0.010995574295520782;0.0012217304902151227
01:00:0A:00:00:00:00;1727481643;28/09/24;00:00:43;1.015;-0.002;0.078;-0.018325956538319588;-0.012217304669320583;0.0
01:00:0A:00:00:00:00;1727481644;28/09/24;00:00:44;1.015;-0.001;0.076;-0.018325956538319588;-0.010995574295520782;0.0012217304902151227
01:00:0A:00:00:00:00;1727481645;28/09/24;00:00:45;1.016;-0.001;0.076;-0.019547687843441963;-0.010995574295520782;0.0012217304902151227
01:00:0A:00:00:00:00;1727481646;28/09/24;00:00:46;1.016;-0.002;0.076;-0.018325956538319588;-0.012217304669320583;0.0
01:00:0A:00:00:00:00;1727481647;28/09/24;00:00:47;1.015;-0.001;0.077;-0.019547687843441963;-0.010995574295520782;0.0012217304902151227
01:00:0A:00:00:00:00;1727481648;28/09/24;00:00:48;1.015;-0.002;0.077;-0.019547687843441963;-0.012217304669320583;0.0012217304902151227
01:00:0A:00:00:00:00;1727481649;28/09/24;00:00:49;1.015;-0.002;0.077;-0.019547687843441963;-0.010995574295520782;0.0012217304902151227
01:00:0A:00:00:00:00;1727481650;28/09/24;00:00:50;1.016;-0.002;0.077;-0.019547687843441963;-0.012217304669320583;0.0012217304902151227
01:00:0A:00:00:00:00;1727481651;28/09/24;00:00:51;1.015;-0.003;0.077;-0.019547687843441963;-0.010995574295520782;0.0012217304902151227
01:00:0A:00:00:00:00;1727481652;28/09/24;00:00:52;1.015;0.0;0.077;-0.018325956538319588;-0.012217304669320583;0.0
01:00:0A:00:00:00:00;1727481653;28/09/24;00:00:53;1.016;-0.003;0.078;-0.019547687843441963;-0.010995574295520782;0.0024434609804302454
01:00:0A:00:00:00:00;1727481654;28/09/24;00:00:54;1.016;-0.001;0.077;-0.01710422709584236;-0.012217304669320583;0.0
01:00:0A:00:00:00:00;1727481655;28/09/24;00:00:55;1.016;-0.003;0.077;-0.018325956538319588;-0.010995574295520782;0.0024434609804302454
01:00:0A:00:00:00:00;1727481656;28/09/24;00:00:56;1.015;-0.001;0.077;-0.01710422709584236;-0.012217304669320583;0.0012217304902151227
01:00:0A:00:00:00:00;1727481657;28/09/24;00:00:57;1.016;-0.002;0.077;-0.018325956538319588;-0.010995574295520782;0.0024434609804302454
01:00:0A:00:00:00:00;1727481658;28/09/24;00:00:58;1.016;-0.002;0.077;-0.01710422709584236;-0.012217304669320583;0.0024434609804302454
01:00:0A:00:00:00:00;1727481659;28/09/24;00:00:59;1.015;-0.001;0.078;-0.01710422709584236;-0.010995574295520782;0.0
01:00:0A:00:00:00:00;1727481660;28/09/24;00:01:00;1.015;-0.003;0.078;-0.01710422709584236;-0.012217304669320583;0.0024434609804302454
01:00:0A:00:00:00:00;1727481661;28/09/24;00:01:01;1.015;-0.003;0.078;-0.01710422709584236;-0.010995574295520782;0.0012217304902151227
01:00:0A:00:00:00:00;1727481662;28/09/24;00:01:02;1.015;-0.001;0.078;-0.01710422709584236;-0.012217304669320583;0.0012217304902151227
01:00:0A:00:00:00:00;1727481663;28/09/24;00:01:03;1.015;-0.002;0.076;-0.01710422709584236;-0.012217304669320583;0.0024434609804302454
01:00:0A:00:00:00:00;1727481664;28/09/24;00:01:04;1.015;-0.002;0.078;-0.015882495790719986;-0.010995574295520782;0.0
01:00:0A:00:00:00:00;1727481665;28/09/24;00:01:05;1.016;-0.002;0.077;-0.01710422709584236;-0.012217304669320583;0.0024434609804302454
01:00:0A:00:00:00:00;1727481666;28/09/24;00:01:06;1.015;-0.003;0.077;-0.015882495790719986;-0.012217304669320583;0.0
01:00:0A:00:00:00:00;1727481667;28/09/24;00:01:07;1.015;-0.001;0.076;-0.01710422709584236;-0.012217304669320583;0.0012217304902151227
01:00:0A:00:00:00:00;1727481668;28/09/24;00:01:08;1.016;-0.002;0.077;-0.01710422709584236;-0.012217304669320583;0.0012217304902151227
01:00:0A:00:00:00:00;1727481669;28/09/24;00:01:09;1.014;-0.002;0.077;-0.01710422709584236;-0.010995574295520782;0.0
01:00:0A:00:00:00:00;1727481670;28/09/24;00:01:10;1.015;-0.002;0.077;-0.01710422709584236;-0.012217304669320583;0.0024434609804302454
01:00:0A:00:00:00:00;1727481671;28/09/24;00:01:11;1.016;-0.004;0.077;-0.015882495790719986;-0.010995574295520782;0.0
01:00:0A:00:00:00:00;1727481672;28/09/24;00:01:12;1.015;-0.001;0.077;-0.01710422709584236;-0.012217304669320583;0.0012217304902151227
01:00:0A:00:00:00:00;1727481673;28/09/24;00:01:13;1.016;-0.003;0.078;-0.01710422709584236;-0.012217304669320583;0.0012217304902151227
01:00:0A:00:00:00:00;1727481674;28/09/24;00:01:14;1.015;-0.002;0.077;-0.01710422709584236;-0.012217304669320583;0.0012217304902151227
01:00:0A:00:00:00:00;1727481675;28/09/24;00:01:15;1.016;-0.001;0.078;-0.01710422709584236;-0.012217304669320583;0.0012217304902151227
01:00:0A:00:00:00:00;1727481676;28/09/24;00:01:16;1.016;-0.003;0.076;-0.01710422709584236;-0.010995574295520782;0.0
01:00:0A:00:00:00:00;1727481677;28/09/24;00:01:17;1.015;-0.002;0.078;-0.01710422709584236;-0.012217304669320583;0.0012217304902151227
01:00:0A:00:00:00:00;1727481678;28/09/24;00:01:18;1.015;-0.002;0.077;-0.01710422709584236;-0.012217304669320583;0.0012217304902151227
01:00:0A:00:00:00:00;1727481679;28/09/24;00:01:19;1.016;-0.003;0.078;-0.01710422709584236;-0.010995574295520782;0.0012217304902151227
01:00:0A:00:00:00:00;1727481680;28/09/24;00:01:20;1.015;-0.002;0.077;-0.01710422709584236;-0.012217304669320583;0.0012217304902151227
01:00:0A:00:00:00:00;1727481681;28/09/24;00:01:21;1.015;-0.003;0.077;-0.01710422709584236;-0.010995574295520782;0.0012217304902151227
01:00:0A:00:00:00:00;1727481682;28/09/24;00:01:22;1.016;-0.001;0.077;-0.01710422709584236;-0.012217304669320583;0.0012217304902151227
01:00:0A:00:00:00:00;1727481683;28/09/24;00:01:23;1.015;-0.003;0.077;-0.01710422709584236;-0.010995574295520782;0.0024434609804302454
01:00:0A:00:00:00:00;1727481684;28/09/24;00:01:24;1.016;-0.002;0.078;-0.01710422709584236;-0.010995574295520782;0.0012217304902151227
01:00:0A:00:00:00:00;1727481685;28/09/24;00:01:25;1.015;0.0;0.076;-0.01710422709584236;-0.012217304669320583;0.0024434609804302454
01:00:0A:00:00:00:00;1727481686;28/09/24;00:01:26;1.016;-0.001;0.076;-0.01710422709584236;-0.010995574295520782;0.0
01:00:0A:00:00:00:00;1727481687;28/09/24;00:01:27;1.015;-0.002;0.078;-0.01710422709584236;-0.010995574295520782;0.0024434609804302454
01:00:0A:00:00:00:00;1727481688;28/09/24;00:01:28;1.015;-0.001;0.075;-0.01710422709584236;-0.012217304669320583;0.0024434609804302454
01:00:0A:00:00:00:00;1727481689;28/09/24;00:01:29;1.016;-0.002;0.077;-0.01710422709584236;-0.009773843921720982;0.0012217304902151227
01:00:0A:00:00:00:00;1727481690;28/09/24;00:01:30;1.016;-0.001;0.077;-0.01710422709584236;-0.013439035043120384;0.0012217304902151227
01:00:0A:00:00:00:00;1727481691;28/09/24;00:01:31;1.016;-0.002;0.077;-0.01710422709584236;-0.009773843921720982;0.0012217304902151227
01:00:0A:00:00:00:00;1727481692;28/09/24;00:01:32;1.015;-0.001;0.076;-0.01710422709584236;-0.012217304669320583;0.0012217304902151227
01:00:0A:00:00:00:00;1727481693;28/09/24;00:01:33;1.016;-0.001;0.076;-0.01710422709584236;-0.012217304669320583;0.0024434609804302454
01:00:0A:00:00:00:00;1727481694;28/09/24;00:01:34;1.015;-0.002;0.078;-0.01710422709584236;-0.010995574295520782;0.0012217304902151227
01:00:0A:00:00:00:00;1727481695;28/09/24;00:01:35;1.016;-0.001;0.077;-0.01710422709584236;-0.012217304669320583;0.0012217304902151227
01:00:0A:00:00:00:00;1727481696;28/09/24;00:01:36;1.015;-0.002;0.077;-0.01710422709584236;-0.009773843921720982;0.0012217304902151227
01:00:0A:00:00:00:00;1727481697;28/09/24;00:01:37;1.015;-0.001;0.077;-0.01710422709584236;-0.012217304669320583;0.0024434609804302454
01:00:0A:00:00:00:00;1727481698;28/09/24;00:01:38;1.016;-0.002;0.076;-0.01710422709584236;-0.012217304669320583;0.0012217304902151227
01:00:0A:00:00:00:00;1727481699;28/09/24;00:01:39;1.016;-0.001;0.077;-0.01710422709584236;-0.010995574295520782;0.0
01:00:0A:00:00:00:00;1727481700;28/09/24;00:01:40;1.016;-0.002;0.076;-0.01710422709584236;-0.012217304669320583;0.0012217304902151227
01:00:0A:00:00:00:00;1727481701;28/09/24;00:01:41;1.015;-0.003;0.078;-0.01710422709584236;-0.010995574295520782;0.0012217304902151227
01:00:0A:00:00:00:00;1727481702;28/09/24;00:01:42;1.015;-0.002;0.079;-0.01710422709584236;-0.012217304669320583;0.0024434609804302454
01:00:0A:00:00:00:00;1727481703;28/09/24;00:01:43;1.015;-0.002;0.077;-0.01710422709584236;-0.012217304669320583;0.0012217304902151227
01:00:0A:00:00:00:00;1727481704;28/09/24;00:01:44;1.014;-0.002;0.077;-0.01710422709584236;-0.010995574295520782;0.0012217304902151227
01:00:0A:00:00:00:00;1727481705;28/09/24;00:01:45;1.016;-0.002;0.078;-0.01710422709584236;-0.012217304669320583;0.0012217304902151227
01:00:0A:00:00:00:00;1727481706;28/09/24;00:01:46;1.015;-0.002;0.077;-0.01710422709584236;-0.010995574295520782;0.0024434609804302454
01:00:0A:00:00:00:00;1727481707;28/09/24;00:01:47;1.015;-0.002;0.079;-0.015882495790719986;-0.012217304669320583;0.0012217304902151227
01:00:0A:00:00:00:00;1727481708;28/09/24;00:01:48;1.016;-0.002;0.076;-0.015882495790719986;-0.010995574295520782;0.0012217304902151227
01:00:0A:00:00:00:00;1727481709;28/09/24;00:01:49;1.016;-0.003;0.079;-0.015882495790719986;-0.010995574295520782;0.0012217304902151227
01:00:0A:00:00:00:00;1727481710;28/09/24;00:01:50;1.016;-0.002;0.076;-0.015882495790719986;-0.012217304669320583;0.0012217304902151227
01:00:0A:00:00:00:00;1727481711;28/09/24;00:01:51;1.015;-0.001;0.077;-0.015882495790719986;-0.010995574295520782;0.0012217304902151227
01:00:0A:00:00:00:00;1727481712;28/09/24;00:01:52;1.015;-0.002;0.078;-0.015882495790719986;-0.012217304669320583;0.0012217304902151227
01:00:0A:00:00:00:00;1727481713;28/09/24;00:01:53;1.015;-0.001;0.076;-0.015882495790719986;-0.012217304669320583;0.0012217304902151227
01:00:0A:00:00:00:00;1727481714;28/09/24;00:01:54;1.015;-0.003;0.077;-0.015882495790719986;-0.010995574295520782;0.0012217304902151227
01:00:0A:00:00:00:00;1727481715;28/09/24;00:01:55;1.016;-0.003;0.076;-0.015882495790719986;-0.012217304669320583;0.0012217304902151227
01:00:0A:00:00:00:00;1727481716;28/09/24;00:01:56;1.016;-0.002;0.076;-0.015882495790719986;-0.010995574295520782;0.0012217304902151227
01:00:0A:00:00:00:00;1727481717;28/09/24;00:01:57;1.015;-0.002;0.077;-0.015882495790719986;-0.012217304669320583;0.0024434609804302454
01:00:0A:00:00:00:00;1727481718;28/09/24;00:01:58;1.015;-0.002;0.076;-0.014660765416920185;-0.010995574295520782;0.0012217304902151227
01:00:0A:00:00:00:00;1727481719;28/09/24;00:01:59;1.016;-0.003;0.078;-0.015882495790719986;-0.010995574295520782;0.0024434609804302454
01:00:0A:00:00:00:00;1727481720;28/09/24;00:02:00;1.015;-0.002;0.077;-0.014660765416920185;-0.012217304669320583;0.0012217304902151227
01:00:0A:00:00:00:00;1727481721;28/09/24;00:02:01;1.015;-0.001;0.076;-0.014660765416920185;-0.010995574295520782;0.0024434609804302454
01:00:0A:00:00:00:00;1727481722;28/09/24;00:02:02;1.015;-0.002;0.077;-0.014660765416920185;-0.012217304669320583;0.0012217304902151227
01:00:0A:00:00:00:00;1727481723;28/09/24;00:02:03;1.015;-0.002;0.076;-0.014660765416920185;-0.010995574295520782;0.0012217304902151227
01:00:0A:00:00:00:00;1727481724;28/09/24;00:02:04;1.015;-0.003;0.076;-0.014660765416920185;-0.010995574295520782;0.0012217304902151227
01:00:0A:00:00:00:00;1727481725;28/09/24;00:02:05;1.016;-0.002;0.077;-0.013439035043120384;-0.012217304669320583;0.0012217304902151227
01:00:0A:00:00:00:00;1727481726;28/09/24;00:02:06;1.016;-0.003;0.077;-0.014660765416920185;-0.010995574295520782;0.0012217304902151227
01:00:0A:00:00:00:00;1727481727;28/09/24;00:02:07;1.015;-0.002;0.077;-0.013439035043120384;-0.012217304669320583;0.0012217304902151227
01:00:0A:00:00:00:00;1727481728;28/09/24;00:02:08;1.014;-0.002;0.075;-0.013439035043120384;-0.012217304669320583;0.0012217304902151227
01:00:0A:00:00:00:00;1727481729;28/09/24;00:02:09;1.016;-0.002;0.077;-0.013439035043120384;-0.010995574295520782;0.0012217304902151227
01:00:0A:00:00:00:00;1727481730;28/09/24;00:02:10;1.015;-0.002;0.077;-0.013439035043120384;-0.012217304669320583;0.0012217304902151227
01:00:0A:00:00:00:00;1727481731;28/09/24;00:02:11;1.015;-0.001;0.076;-0.013439035043120384;-0.010995574295520782;0.0012217304902151227
01:00:0A:00:00:00:00;1727481732;28/09/24;00:02:12;1.015;-0.002;0.077;-0.013439035043120384;-0.012217304669320583;0.0012217304902151227
01:00:0A:00:00:00:00;1727481733;28/09/24;00:02:13;1.015;-0.001;0.077;-0.013439035043120384;-0.010995574295520782;0.0012217304902151227
01:00:0A:00:00:00:00;1727481734;28/09/24;00:02:14;1.015;-0.001;0.078;-0.013439035043120384;-0.010995574295520782;0.0024434609804302454
01:00:0A:00:00:00:00;1727481735;28/09/24;00:02:15;1.016;-0.003;0.077;-0.012217304669320583;-0.012217304669320583;0.0
01:00:0A:00:00:00:00;1727481736;28/09/24;00:02:16;1.015;-0.002;0.075;-0.013439035043120384;-0.010995574295520782;0.0024434609804302454
01:00:0A:00:00:00:00;1727481737;28/09/24;00:02:17;1.015;-0.002;0.077;-0.012217304669320583;-0.012217304669320583;0.0012217304902151227
01:00:0A:00:00:00:00;1727481738;28/09/24;00:02:18;1.016;-0.003;0.076;-0.012217304669320583;-0.010995574295520782;0.0024434609804302454
01:00:0A:00:00:00:00;1727481739;28/09/24;00:02:19;1.016;-0.002;0.077;-0.013439035043120384;-0.010995574295520782;0.0024434609804302454
01:00:0A:00:00:00:00;1727481740;28/09/24;00:02:20;1.016;-0.002;0.076;-0.012217304669320583;-0.012217304669320583;0.0012217304902151227
01:00:0A:00:00:00:00;1727481741;28/09/24;00:02:21;1.015;-0.003;0.077;-0.012217304669320583;-0.010995574295520782;0.0024434609804302454
01:00:0A:00:00:00:00;1727481742;28/09/24;00:02:22;1.016;-0.001;0.077;-0.012217304669320583;-0.010995574295520782;0.0012217304902151227
01:00:0A:00:00:00:00;1727481743;28/09/24;00:02:23;1.016;-0.002;0.077;-0.012217304669320583;-0.010995574295520782;0.0024434609804302454
01:00:0A:00:00:00:00;1727481744;28/09/24;00:02:24;1.015;-0.002;0.077;-0.012217304669320583;-0.010995574295520782;0.0024434609804302454
01:00:0A:00:00:00:00;1727481745;28/09/24;00:02:25;1.016;-0.002;0.077;-0.010995574295520782;-0.012217304669320583;0.0012217304902151227
01:00:0A:00:00:00:00;1727481746;28/09/24;00:02:26;1.016;-0.001;0.077;-0.012217304669320583;-0.010995574295520782;0.0024434609804302454
01:00:0A:00:00:00:00;1727481747;28/09/24;00:02:27;1.015;-0.002;0.077;-0.010995574295520782;-0.012217304669320583;0.0012217304902151227
01:00:0A:00:00:00:00;1727481748;28/09/24;00:02:28;1.015;-0.003;0.076;-0.010995574295520782;-0.010995574295520782;0.0012217304902151227
01:00:0A:00:00:00:00;1727481749;28/09/24;00:02:29;1.015;-0.003;0.077;-0.010995574295520782;-0.010995574295520782;0.0024434609804302454
01:00:0A:00:00:00:00;1727481750;28/09/24;00:02:30;1.014;-0.002;0.077;-0.010995574295520782;-0.012217304669320583;0.0012217304902151227
01:00:0A:00:00:00:00;1727481751;28/09/24;00:02:31;1.015;-0.002;0.077;-0.010995574295520782;-0.010995574295520782;0.0024434609804302454
01:00:0A:00:00:00:00;1727481752;28/09/24;00:02:32;1.016;-0.002;0.077;-0.010995574295520782;-0.010995574295520782;0.0012217304902151227
01:00:0A:00:00:00:00;1727481753;28/09/24;00:02:33;1.015;-0.002;0.078;-0.010995574295520782;-0.010995574295520782;0.0024434609804302454
01:00:0A:00:00:00:00;1727481754;28/09/24;00:02:34;1.015;-0.002;0.076;-0.010995574295520782;-0.010995574295520782;0.0012217304902151227
01:00:0A:00:00:00:00;1727481755;28/09/24;00:02:35;1.014;-0.002;0.078;-0.010995574295520782;-0.012217304669320583;0.0012217304902151227
01:00:0A:00:00:00:00;1727481756;28/09/24;00:02:36;1.015;-0.002;0.076;-0.010995574295520782;-0.010995574295520782;0.0024434609804302454
01:00:0A:00:00:00:00;1727481757;28/09/24;00:02:37;1.016;-0.002;0.077;-0.010995574295520782;-0.010995574295520782;0.0012217304902151227
01:00:0A:00:00:00:00;1727481758;28/09/24;00:02:38;1.015;-0.002;0.077;-0.010995574295520782;-0.010995574295520782;0.0012217304902151227
01:00:0A:00:00:00:00;1727481759;28/09/24;00:02:39;1.016;-0.002;0.077;-0.010995574295520782;-0.010995574295520782;0.0024434609804302454
01:00:0A:00:00:00:00;1727481760;28/09/24;00:02:40;1.016;-0.002;0.078;-0.009773843921720982;-0.012217304669320583;0.0012217304902151227
01:00:0A:00:00:00:00;1727481761;28/09/24;00:02:41;1.015;-0.002;0.076;-0.010995574295520782;-0.010995574295520782;0.0012217304902151227
01:00:0A:00:00:00:00;1727481762;28/09/24;00:02:42;1.015;-0.003;0.078;-0.010995574295520782;-0.012217304669320583;0.0012217304902151227
01:00:0A:00:00:00:00;1727481763;28/09/24;00:02:43;1.015;-0.001;0.077;-0.010995574295520782;-0.010995574295520782;0.0012217304902151227
01:00:0A:00:00:00:00;1727481764;28/09/24;00:02:44;1.014;-0.003;0.079;-0.010995574295520782;-0.012217304669320583;0.0024434609804302454
01:00:0A:00:00:00:00;1727481765;28/09/24;00:02:45;1.015;-0.003;0.077;-0.010995574295520782;-0.010995574295520782;0.0012217304902151227
01:00:0A:00:00:00:00;1727481766;28/09/24;00:02:46;1.016;-0.002;0.077;-0.010995574295520782;-0.010995574295520782;0.0024434609804302454
01:00:0A:00:00:00:00;1727481767;28/09/24;00:02:47;1.016;-0.003;0.077;-0.010995574295520782;-0.010995574295520782;0.0012217304902151227
01:00:0A:00:00:00:00;1727481768;28/09/24;00:02:48;1.015;-0.002;0.077;-0.010995574295520782;-0.012217304669320583;0.0024434609804302454
01:00:0A:00:00:00:00;1727481769;28/09/24;00:02:49;1.016;-0.002;0.078;-0.010995574295520782;-0.010995574295520782;0.0012217304902151227
01:00:0A:00:00:00:00;1727481770;28/09/24;00:02:50;1.016;-0.002;0.077;-0.010995574295520782;-0.012217304669320583;0.0012217304902151227
01:00:0A:00:00:00:00;1727481771;28/09/24;00:02:51;1.016;-0.002;0.077;-0.010995574295520782;-0.010995574295520782;0.0024434609804302454
01:00:0A:00:00:00:00;1727481772;28/09/24;00:02:52;1.015;-0.003;0.077;-0.010995574295520782;-0.010995574295520782;0.0012217304902151227
01:00:0A:00:00:00:00;1727481773;28/09/24;00:02:53;1.016;-0.003;0.077;-0.010995574295520782;-0.010995574295520782;0.0012217304902151227
01:00:0A:00:00:00:00;1727481774;28/09/24;00:02:54;1.016;-0.002;0.077;-0.010995574295520782;-0.010995574295520782;0.0024434609804302454
01:00:0A:00:00:00:00;1727481775;28/09/24;00:02:55;1.016;-0.001;0.076;-0.010995574295520782;-0.010995574295520782;0.0012217304902151227
01:00:0A:00:00:00:00;1727481776;28/09/24;00:02:56;1.015;-0.002;0.077;-0.012217304669320583;-0.010995574295520782;0.0024434609804302454
01:00:0A:00:00:00:00;1727481777;28/09/24;00:02:57;1.016;-0.003;0.076;-0.012217304669320583;-0.012217304669320583;0.0012217304902151227
01:00:0A:00:00:00:00;1727481778;28/09/24;00:02:58;1.015;-0.003;0.077;-0.012217304669320583;-0.012217304669320583;0.0012217304902151227
01:00:0A:00:00:00:00;1727481779;28/09/24;00:02:59;1.015;-0.003;0.077;-0.012217304669320583;-0.012217304669320583;0.0012217304902151227
01:00:0A:00:00:00:00;1727481780;28/09/24;00:03:00;1.015;-0.002;0.076;-0.012217304669320583;-0.012217304669320583;0.0012217304902151227
01:00:0A:00:00:00:00;1727481781;28/09/24;00:03:01;1.015;-0.002;0.077;-0.012217304669320583;-0.010995574295520782;0.0024434609804302454
01:00:0A:00:00:00:00;1727481782;28/09/24;00:03:02;1.016;-0.003;0.078;-0.012217304669320583;-0.010995574295520782;0.0012217304902151227
01:00:0A:00:00:00:00;1727481783;28/09/24;00:03:03;1.015;-0.003;0.077;-0.012217304669320583;-0.012217304669320583;0.0012217304902151227
01:00:0A:00:00:00:00;1727481784;28/09/24;00:03:04;1.015;-0.003;0.077;-0.012217304669320583;-0.010995574295520782;0.0012217304902151227
01:00:0A:00:00:00:00;1727481785;28/09/24;00:03:05;1.014;-0.001;0.077;-0.012217304669320583;-0.010995574295520782;0.0012217304902151227
01:00:0A:00:00:00:00;1727481786;28/09/24;00:03:06;1.016;-0.003;0.078;-0.013439035043120384;-0.010995574295520782;0.0024434609804302454
01:00:0A:00:00:00:00;1727481787;28/09/24;00:03:07;1.015;-0.002;0.078;-0.012217304669320583;-0.012217304669320583;0.0012217304902151227
01:00:0A:00:00:00:00;1727481788;28/09/24;00:03:08;1.015;-0.001;0.078;-0.013439035043120384;-0.010995574295520782;0.0012217304902151227
01:00:0A:00:00:00:00;1727481789;28/09/24;00:03:09;1.016;-0.002;0.077;-0.013439035043120384;-0.010995574295520782;0.0012217304902151227
01:00:0A:00:00:00:00;1727481790;28/09/24;00:03:10;1.015;-0.001;0.077;-0.013439035043120384;-0.012217304669320583;0.0012217304902151227
01:00:0A:00:00:00:00;1727481791;28/09/24;00:03:11;1.015;-0.002;0.076;-0.013439035043120384;-0.010995574295520782;0.0024434609804302454
01:00:0A:00:00:00:00;1727481792;28/09/24;00:03:12;1.016;-0.003;0.078;-0.013439035043120384;-0.012217304669320583;0.0012217304902151227
01:00:0A:00:00:00:00;1727481793;28/09/24;00:03:13;1.015;-0.002;0.077;-0.013439035043120384;-0.010995574295520782;0.0012217304902151227
01:00:0A:00:00:00:00;1727481794;28/09/24;00:03:14;1.016;-0.003;0.077;-0.014660765416920185;-0.012217304669320583;0.0012217304902151227
01:00:0A:00:00:00:00;1727481795;28/09/24;00:03:15;1.016;-0.002;0.077;-0.014660765416920185;-0.010995574295520782;0.0012217304902151227
01:00:0A:00:00:00:00;1727481796;28/09/24;00:03:16;1.016;-0.002;0.076;-0.014660765416920185;-0.012217304669320583;0.0024434609804302454
01:00:0A:00:00:00:00;1727481797;28/09/24;00:03:17;1.015;-0.002;0.077;-0.014660765416920185;-0.010995574295520782;0.0012217304902151227
01:00:0A:00:00:00:00;1727481798;28/09/24;00:03:18;1.016;-0.001;0.077;-0.014660765416920185;-0.012217304669320583;0.0012217304902151227
01:00:0A:00:00:00:00;1727481799;28/09/24;00:03:19;1.014;-0.003;0.077;-0.014660765416920185;-0.010995574295520782;0.0012217304902151227
01:00:0A:00:00:00:00;1727481800;28/09/24;00:03:20;1.016;-0.002;0.078;-0.014660765416920185;-0.012217304669320583;0.0012217304902151227
01:00:0A:00:00:00:00;1727481801;28/09/24;00:03:21;1.015;-0.003;0.077;-0.014660765416920185;-0.010995574295520782;0.0024434609804302454
01:00:0A:00:00:00:00;1727481802;28/09/24;00:03:22;1.016;-0.003;0.077;-0.014660765416920185;-0.010995574295520782;0.0012217304902151227
01:00:0A:00:00:00:00;1727481803;28/09/24;00:03:23;1.016;-0.003;0.077;-0.015882495790719986;-0.010995574295520782;0.0012217304902151227
01:00:0A:00:00:00:00;1727481804;28/09/24;00:03:24;1.016;-0.001;0.078;-0.015882495790719986;-0.010995574295520782;0.0012217304902151227
01:00:0A:00:00:00:00;1727481805;28/09/24;00:03:25;1.015;-0.002;0.076;-0.015882495790719986;-0.010995574295520782;0.0012217304902151227
01:00:0A:00:00:00:00;1727481806;28/09/24;00:03:26;1.016;-0.002;0.077;-0.015882495790719986;-0.010995574295520782;0.0012217304902151227
01:00:0A:00:00:00:00;1727481807;28/09/24;00:03:27;1.016;-0.002;0.076;-0.015882495790719986;-0.010995574295520782;0.0012217304902151227
01:00:0A:00:00:00:00;1727481808;28/09/24;00:03:28;1.016;-0.002;0.078;-0.015882495790719986;-0.012217304669320583;0.0012217304902151227
01:00:0A:00:00:00:00;1727481809;28/09/24;00:03:29;1.015;-0.002;0.077;-0.015882495790719986;-0.010995574295520782;0.0012217304902151227
01:00:0A:00:00:00:00;1727481810;28/09/24;00:03:30;1.015;-0.002;0.077;-0.015882495790719986;-0.012217304669320583;0.0012217304902151227
01:00:0A:00:00:00:00;1727481811;28/09/24;00:03:31;1.016;-0.002;0.078;-0.01710422709584236;-0.012217304669320583;0.0024434609804302454
01:00:0A:00:00:00:00;1727481812;28/09/24;00:03:32;1.015;-0.002;0.077;-0.015882495790719986;-0.010995574295520782;0.0012217304902151227
01:00:0A:00:00:00:00;1727481813;28/09/24;00:03:33;1.015;-0.002;0.077;-0.01710422709584236;-0.012217304669320583;0.0012217304902151227
01:00:0A:00:00:00:00;1727481814;28/09/24;00:03:34;1.015;-0.003;0.076;-0.015882495790719986;-0.010995574295520782;0.0012217304902151227
01:00:0A:00:00:00:00;1727481815;28/09/24;00:03:35;1.015;-0.002;0.077;-0.01710422709584236;-0.012217304669320583;0.0012217304902151227
01:00:0A:00:00:00:00;1727481816;28/09/24;00:03:36;1.016;-0.002;0.076;-0.01710422709584236;-0.012217304669320583;0.0024434609804302454
01:00:0A:00:00:00:00;1727481817;28/09/24;00:03:37;1.016;-0.001;0.078;-0.015882495790719986;-0.010995574295520782;0.0012217304902151227
01:00:0A:00:00:00:00;1727481818;28/09/24;00:03:38;1.016;-0.002;0.077;-0.01710422709584236;-0.012217304669320583;0.0012217304902151227
01:00:0A:00:00:00:00;1727481819;28/09/24;00:03:39;1.015;-0.003;0.076;-0.015882495790719986;-0.012217304669320583;0.0012217304902151227
01:00:0A:00:00:00:00;1727481820;28/09/24;00:03:40;1.015;-0.002;0.077;-0.015882495790719986;-0.012217304669320583;0.0012217304902151227
01:00:0A:00:00:00:00;1727481821;28/09/24;00:03:41;1.015;-0.002;0.078;-0.01710422709584236;-0.010995574295520782;0.0012217304902151227
01:00:0A:00:00:00:00;1727481822;28/09/24;00:03:42;1.015;-0.003;0.077;-0.015882495790719986;-0.010995574295520782;0.0012217304902151227
01:00:0A:00:00:00:00;1727481823;28/09/24;00:03:43;1.016;-0.002;0.077;-0.01710422709584236;-0.010995574295520782;0.0012217304902151227
01:00:0A:00:00:00:00;1727481824;28/09/24;00:03:44;1.016;-0.002;0.077;-0.01710422709584236;-0.012217304669320583;0.0012217304902151227
01:00:0A:00:00:00:00;1727481825;28/09/24;00:03:45;1.016;-0.002;0.077;-0.01710422709584236;-0.010995574295520782;0.0012217304902151227
01:00:0A:00:00:00:00;1727481826;28/09/24;00:03:46;1.015;-0.002;0.077;-0.01710422709584236;-0.012217304669320583;0.0012217304902151227
01:00:0A:00:00:00:00;1727481827;28/09/24;00:03:47;1.015;-0.002;0.077;-0.01710422709584236;-0.010995574295520782;0.0012217304902151227
01:00:0A:00:00:00:00;1727481828;28/09/24;00:03:48;1.015;-0.002;0.078;-0.01710422709584236;-0.012217304669320583;0.0012217304902151227
01:00:0A:00:00:00:00;1727481829;28/09/24;00:03:49;1.016;-0.002;0.076;-0.01710422709584236;-0.010995574295520782;0.0012217304902151227
01:00:0A:00:00:00:00;1727481830;28/09/24;00:03:50;1.016;-0.002;0.078;-0.01710422709584236;-0.010995574295520782;0.0012217304902151227
01:00:0A:00:00:00:00;1727481831;28/09/24;00:03:51;1.016;-0.002;0.076;-0.018325956538319588;-0.012217304669320583;0.0012217304902151227
01:00:0A:00:00:00:00;1727481832;28/09/24;00:03:52;1.016;-0.002;0.078;-0.018325956538319588;-0.010995574295520782;0.0012217304902151227
01:00:0A:00:00:00:00;1727481833;28/09/24;00:03:53;1.015;-0.002;0.077;-0.018325956538319588;-0.012217304669320583;0.0012217304902151227
01:00:0A:00:00:00:00;1727481834;28/09/24;00:03:54;1.015;-0.003;0.077;-0.018325956538319588;-0.012217304669320583;0.0012217304902151227
01:00:0A:00:00:00:00;1727481835;28/09/24;00:03:55;1.016;-0.002;0.077;-0.018325956538319588;-0.010995574295520782;0.0012217304902151227
01:00:0A:00:00:00:00;1727481836;28/09/24;00:03:56;1.015;-0.001;0.077;-0.018325956538319588;-0.012217304669320583;0.0012217304902151227
01:00:0A:00:00:00:00;1727481837;28/09/24;00:03:57;1.015;-0.001;0.078;-0.019547687843441963;-0.010995574295520782;0.0012217304902151227
01:00:0A:00:00:00:00;1727481838;28/09/24;00:03:58;1.016;-0.002;0.077;-0.019547687843441963;-0.012217304669320583;0.0012217304902151227
01:00:0A:00:00:00:00;1727481839;28/09/24;00:03:59;1.015;-0.002;0.077;-0.019547687843441963;-0.012217304669320583;0.0012217304902151227
01:00:0A:00:00:00:00;1727481840;28/09/24;00:04:00;1.015;-0.002;0.077;-0.019547687843441963;-0.010995574295520782;0.0012217304902151227
01:00:0A:00:00:00:00;1727481841;28/09/24;00:04:01;1.016;-0.002;0.077;-0.019547687843441963;-0.012217304669320583;0.0012217304902151227
01:00:0A:00:00:00:00;1727481842;28/09/24;00:04:02;1.016;-0.002;0.077;-0.019547687843441963;-0.010995574295520782;0.0012217304902151227
01:00:0A:00:00:00:00;1727481843;28/09/24;00:04:03;1.015;-0.002;0.076;-0.02076941914856434;-0.012217304669320583;0.0012217304902151227
01:00:0A:00:00:00:00;1727481844;28/09/24;00:04:04;1.015;-0.002;0.077;-0.02076941914856434;-0.012217304669320583;0.0012217304902151227
01:00:0A:00:00:00:00;1727481845;28/09/24;00:04:05;1.016;-0.002;0.078;-0.02076941914856434;-0.010995574295520782;0.0012217304902151227
01:00:0A:00:00:00:00;1727481846;28/09/24;00:04:06;1.015;-0.002;0.077;-0.02076941914856434;-0.012217304669320583;0.0012217304902151227
01:00:0A:00:00:00:00;1727481847;28/09/24;00:04:07;1.015;-0.002;0.077;-0.02076941914856434;-0.010995574295520782;0.0012217304902151227
01:00:0A:00:00:00:00;1727481848;28/09/24;00:04:08;1.016;-0.002;0.077;-0.02076941914856434;-0.012217304669320583;0.0012217304902151227
01:00:0A:00:00:00:00;1727481849;28/09/24;00:04:09;1.016;-0.002;0.076;-0.02076941914856434;-0.010995574295520782;0.0012217304902151227
01:00:0A:00:00:00:00;1727481850;28/09/24;00:04:10;1.016;-0.002;0.077;-0.021991148591041565;-0.010995574295520782;0.0012217304902151227
01:00:0A:00:00:00:00;1727481851;28/09/24;00:04:11;1.016;-0.002;0.077;-0.021991148591041565;-0.012217304669320583;0.0012217304902151227
01:00:0A:00:00:00:00;1727481852;28/09/24;00:04:12;1.015;-0.002;0.076;-0.021991148591041565;-0.010995574295520782;0.0012217304902151227
01:00:0A:00:00:00:00;1727481853;28/09/24;00:04:13;1.015;-0.003;0.077;-0.021991148591041565;-0.012217304669320583;0.0012217304902151227
01:00:0A:00:00:00:00;1727481854;28/09/24;00:04:14;1.015;-0.003;0.077;-0.021991148591041565;-0.012217304669320583;0.0012217304902151227
01:00:0A:00:00:00:00;1727481855;28/09/24;00:04:15;1.015;-0.002;0.077;-0.021991148591041565;-0.010995574295520782;0.0012217304902151227
01:00:0A:00:00:00:00;1727481856;28/09/24;00:04:16;1.016;-0.001;0.077;-0.021991148591041565;-0.012217304669320583;0.0012217304902151227
01:00:0A:00:00:00:00;1727481857;28/09/24;00:04:17;1.016;-0.003;0.078;-0.021991148591041565;-0.010995574295520782;0.0012217304902151227
01:00:0A:00:00:00:00;1727481858;28/09/24;00:04:18;1.015;-0.002;0.077;-0.021991148591041565;-0.012217304669320583;0.0012217304902151227
01:00:0A:00:00:00:00;1727481859;28/09/24;00:04:19;1.016;-0.002;0.077;-0.021991148591041565;-0.010995574295520782;0.0012217304902151227
01:00:0A:00:00:00:00;1727481860;28/09/24;00:04:20;1.016;-0.002;0.077;-0.021991148591041565;-0.010995574295520782;0.0012217304902151227
01:00:0A:00:00:00:00;1727481861;28/09/24;00:04:21;1.016;-0.002;0.078;-0.021991148591041565;-0.012217304669320583;0.0012217304902151227
01:00:0A:00:00:00:00;1727481862;28/09/24;00:04:22;1.016;-0.002;0.077;-0.02076941914856434;-0.010995574295520782;0.0012217304902151227
01:00:0A:00:00:00:00;1727481863;28/09/24;00:04:23;1.015;-0.001;0.078;-0.02076941914856434;-0.012217304669320583;0.0012217304902151227
01:00:0A:00:00:00:00;1727481864;28/09/24;00:04:24;1.016;-0.002;0.076;-0.02076941914856434;-0.012217304669320583;0.0012217304902151227
01:00:0A:00:00:00:00;1727481865;28/09/24;00:04:25;1.016;-0.002;0.077;-0.02076941914856434;-0.010995574295520782;0.0012217304902151227
01:00:0A:00:00:00:00;1727481866;28/09/24;00:04:26;1.015;-0.002;0.078;-0.02076941914856434;-0.012217304669320583;0.0012217304902151227
01:00:0A:00:00:00:00;1727481867;28/09/24;00:04:27;1.015;-0.003;0.077;-0.019547687843441963;-0.010995574295520782;0.0012217304902151227
01:00:0A:00:00:00:00;1727481868;28/09/24;00:04:28;1.015;-0.003;0.076;-0.019547687843441963;-0.012217304669320583;0.0012217304902151227
01:00:0A:00:00:00:00;1727481869;28/09/24;00:04:29;1.016;-0.002;0.077;-0.019547687843441963;-0.012217304669320583;0.0012217304902151227
01:00:0A:00:00:00:00;1727481870;28/09/24;00:04:30;1.016;-0.002;0.079;-0.019547687843441963;-0.010995574295520782;0.0012217304902151227
01:00:0A:00:00:00:00;1727481871;28/09/24;00:04:31;1.015;-0.002;0.077;-0.019547687843441963;-0.012217304669320583;0.0012217304902151227
01:00:0A:00:00:00:00;1727481872;28/09/24;00:04:32;1.016;-0.002;0.077;-0.019547687843441963;-0.010995574295520782;0.0012217304902151227
01:00:0A:00:00:00:00;1727481873;28/09/24;00:04:33;1.016;-0.002;0.076;-0.018325956538319588;-0.012217304669320583;0.0012217304902151227
01:00:0A:00:00:00:00;1727481874;28/09/24;00:04:34;1.015;-0.002;0.077;-0.018325956538319588;-0.010995574295520782;0.0012217304902151227
01:00:0A:00:00:00:00;1727481875;28/09/24;00:04:35;1.016;-0.003;0.076;-0.018325956538319588;-0.010995574295520782;0.0012217304902151227
01:00:0A:00:00:00:00;1727481876;28/09/24;00:04:36;1.016;-0.002;0.077;-0.018325956538319588;-0.012217304669320583;0.0012217304902151227
01:00:0A:00:00:00:00;1727481877;28/09/24;00:04:37;1.015;-0.001;0.078;-0.018325956538319588;-0.010995574295520782;0.0012217304902151227
01:00:0A:00:00:00:00;1727481878;28/09/24;00:04:38;1.015;-0.002;0.077;-0.018325956538319588;-0.012217304669320583;0.0012217304902151227
01:00:0A:00:00:00:00;1727481879;28/09/24;00:04:39;1.015;-0.002;0.077;-0.01710422709584236;-0.010995574295520782;0.0012217304902151227
01:00:0A:00:00:00:00;1727481880;28/09/24;00:04:40;1.016;-0.002;0.077;-0.01710422709584236;-0.010995574295520782;0.0012217304902151227
01:00:0A:00:00:00:00;1727481881;28/09/24;00:04:41;1.015;-0.003;0.076;-0.01710422709584236;-0.012217304669320583;0.0012217304902151227
01:00:0A:00:00:00:00;1727481882;28/09/24;00:04:42;1.016;-0.002;0.077;-0.01710422709584236;-0.010995574295520782;0.0012217304902151227
01:00:0A:00:00:00:00;1727481883;28/09/24;00:04:43;1.015;-0.003;0.077;-0.01710422709584236;-0.012217304669320583;0.0012217304902151227
01:00:0A:00:00:00:00;1727481884;28/09/24;00:04:44;1.015;-0.003;0.076;-0.01710422709584236;-0.010995574295520782;0.0012217304902151227
01:00:0A:00:00:00:00;1727481885;28/09/24;00:04:45;1.016;-0.003;0.077;-0.01710422709584236;-0.010995574295520782;0.0012217304902151227
01:00:0A:00:00:00:00;1727481886;28/09/24;00:04:46;1.016;-0.003;0.076;-0.015882495790719986;-0.012217304669320583;0.0012217304902151227
01:00:0A:00:00:00:00;1727481887;28/09/24;00:04:47;1.014;-0.003;0.077;-0.015882495790719986;-0.010995574295520782;0.0012217304902151227
01:00:0A:00:00:00:00;1727481888;28/09/24;00:04:48;1.016;-0.003;0.076;-0.015882495790719986;-0.010995574295520782;0.0012217304902151227
01:00:0A:00:00:00:00;1727481889;28/09/24;00:04:49;1.016;-0.002;0.076;-0.015882495790719986;-0.010995574295520782;0.0012217304902151227
01:00:0A:00:00:00:00;1727481890;28/09/24;00:04:50;1.015;-0.002;0.077;-0.015882495790719986;-0.010995574295520782;0.0012217304902151227
01:00:0A:00:00:00:00;1727481891;28/09/24;00:04:51;1.015;-0.003;0.076;-0.015882495790719986;-0.012217304669320583;0.0012217304902151227
01:00:0A:00:00:00:00;1727481892;28/09/24;00:04:52;1.015;-0.003;0.077;-0.015882495790719986;-0.010995574295520782;0.0012217304902151227
01:00:0A:00:00:00:00;1727481893;28/09/24;00:04:53;1.015;-0.003;0.076;-0.015882495790719986;-0.012217304669320583;0.0012217304902151227
01:00:0A:00:00:00:00;1727481894;28/09/24;00:04:54;1.015;-0.002;0.077;-0.014660765416920185;-0.012217304669320583;0.0012217304902151227
01:00:0A:00:00:00:00;1727481895;28/09/24;00:04:55;1.015;-0.002;0.077;-0.014660765416920185;-0.010995574295520782;0.0012217304902151227
01:00:0A:00:00:00:00;1727481896;28/09/24;00:04:56;1.015;-0.002;0.077;-0.014660765416920185;-0.012217304669320583;0.0012217304902151227
01:00:0A:00:00:00:00;1727481897;28/09/24;00:04:57;1.015;-0.002;0.077;-0.014660765416920185;-0.010995574295520782;0.0012217304902151227
01:00:0A:00:00:00:00;1727481898;28/09/24;00:04:58;1.016;-0.001;0.077;-0.014660765416920185;-0.012217304669320583;0.0012217304902151227
01:00:0A:00:00:00:00;1727481899;28/09/24;00:04:59;1.016;-0.002;0.077;-0.014660765416920185;-0.010995574295520782;0.0012217304902151227
01:00:0A:00:00:00:00;1727481900;28/09/24;00:05:00;1.015;-0.002;0.077;-0.014660765416920185;-0.010995574295520782;0.0012217304902151227
01:00:0A:00:00:00:00;1727481901;28/09/24;00:05:01;1.016;-0.001;0.077;-0.014660765416920185;-0.012217304669320583;0.0012217304902151227
01:00:0A:00:00:00:00;1727481902;28/09/24;00:05:02;1.015;-0.001;0.077;-0.014660765416920185;-0.012217304669320583;0.0012217304902151227
01:00:0A:00:00:00:00;1727481903;28/09/24;00:05:03;1.015;-0.003;0.076;-0.013439035043120384;-0.010995574295520782;0.0012217304902151227
01:00:0A:00:00:00:00;1727481904;28/09/24;00:05:04;1.016;-0.002;0.076;-0.013439035043120384;-0.010995574295520782;0.0012217304902151227
01:00:0A:00:00:00:00;1727481905;28/09/24;00:05:05;1.015;-0.003;0.077;-0.013439035043120384;-0.010995574295520782;0.0012217304902151227
01:00:0A:00:00:00:00;1727481906;28/09/24;00:05:06;1.016;-0.001;0.076;-0.013439035043120384;-0.012217304669320583;0.0012217304902151227
01:00:0A:00:00:00:00;1727481907;28/09/24;00:05:07;1.014;-0.002;0.077;-0.013439035043120384;-0.012217304669320583;0.0024434609804302454
01:00:0A:00:00:00:00;1727481908;28/09/24;00:05:08;1.016;-0.002;0.077;-0.013439035043120384;-0.010995574295520782;0.0012217304902151227
01:00:0A:00:00:00:00;1727481909;28/09/24;00:05:09;1.015;-0.002;0.078;-0.013439035043120384;-0.010995574295520782;0.0012217304902151227
01:00:0A:00:00:00:00;1727481910;28/09/24;00:05:10;1.015;-0.002;0.077;-0.013439035043120384;-0.010995574295520782;0.0012217304902151227
01:00:0A:00:00:00:00;1727481911;28/09/24;00:05:11;1.016;-0.002;0.077;-0.013439035043120384;-0.012217304669320583;0.0012217304902151227
01:00:0A:00:00:00:00;1727481912;28/09/24;00:05:12;1.015;-0.003;0.077;-0.013439035043120384;-0.010995574295520782;0.0012217304902151227
01:00:0A:00:00:00:00;1727481913;28/09/24;00:05:13;1.016;-0.001;0.078;-0.013439035043120384;-0.010995574295520782;0.0012217304902151227
01:00:0A:00:00:00:00;1727481914;28/09/24;00:05:14;1.015;-0.002;0.077;-0.013439035043120384;-0.010995574295520782;0.0012217304902151227
01:00:0A:00:00:00:00;1727481915;28/09/24;00:05:15;1.015;-0.003;0.077;-0.012217304669320583;-0.012217304669320583;0.0012217304902151227
01:00:0A:00:00:00:00;1727481916;28/09/24;00:05:16;1.015;-0.002;0.077;-0.012217304669320583;-0.010995574295520782;0.0012217304902151227
01:00:0A:00:00:00:00;1727481917;28/09/24;00:05:17;1.015;-0.002;0.075;-0.013439035043120384;-0.012217304669320583;0.0024434609804302454
01:00:0A:00:00:00:00;1727481918;28/09/24;00:05:18;1.016;-0.002;0.077;-0.012217304669320583;-0.010995574295520782;0.0012217304902151227
01:00:0A:00:00:00:00;1727481919;28/09/24;00:05:19;1.016;-0.004;0.076;-0.012217304669320583;-0.012217304669320583;0.0012217304902151227
01:00:0A:00:00:00:00;1727481920;28/09/24;00:05:20;1.016;-0.002;0.076;-0.012217304669320583;-0.010995574295520782;0.0012217304902151227
01:00:0A:00:00:00:00;1727481921;28/09/24;00:05:21;1.016;-0.002;0.077;-0.012217304669320583;-0.010995574295520782;0.0012217304902151227
01:00:0A:00:00:00:00;1727481922;28/09/24;00:05:22;1.016;-0.001;0.077;-0.012217304669320583;-0.010995574295520782;0.0012217304902151227
01:00:0A:00:00:00:00;1727481923;28/09/24;00:05:23;1.015;-0.002;0.076;-0.012217304669320583;-0.010995574295520782;0.0012217304902151227
01:00:0A:00:00:00:00;1727481924;28/09/24;00:05:24;1.016;-0.002;0.077;-0.012217304669320583;-0.010995574295520782;0.0012217304902151227
01:00:0A:00:00:00:00;1727481925;28/09/24;00:05:25;1.015;-0.003;0.077;-0.012217304669320583;-0.012217304669320583;0.0012217304902151227
01:00:0A:00:00:00:00;1727481926;28/09/24;00:05:26;1.016;-0.002;0.077;-0.012217304669320583;-0.010995574295520782;0.0012217304902151227
01:00:0A:00:00:00:00;1727481927;28/09/24;00:05:27;1.015;-0.003;0.077;-0.012217304669320583;-0.010995574295520782;0.0024434609804302454
01:00:0A:00:00:00:00;1727481928;28/09/24;00:05:28;1.016;-0.001;0.077;-0.012217304669320583;-0.010995574295520782;0.0012217304902151227
01:00:0A:00:00:00:00;1727481929;28/09/24;00:05:29;1.016;-0.003;0.077;-0.012217304669320583;-0.012217304669320583;0.0012217304902151227
01:00:0A:00:00:00:00;1727481930;28/09/24;00:05:30;1.016;-0.002;0.076;-0.012217304669320583;-0.010995574295520782;0.0012217304902151227
01:00:0A:00:00:00:00;1727481931;28/09/24;00:05:31;1.016;-0.001;0.078;-0.012217304669320583;-0.010995574295520782;0.0012217304902151227
01:00:0A:00:00:00:00;1727481932;28/09/24;00:05:32;1.016;-0.003;0.078;-0.012217304669320583;-0.010995574295520782;0.0024434609804302454
01:00:0A:00:00:00:00;1727481933;28/09/24;00:05:33;1.015;-0.002;0.077;-0.012217304669320583;-0.012217304669320583;0.0012217304902151227
01:00:0A:00:00:00:00;1727481934;28/09/24;00:05:34;1.016;-0.002;0.076;-0.013439035043120384;-0.010995574295520782;0.0024434609804302454
01:00:0A:00:00:00:00;1727481935;28/09/24;00:05:35;1.016;-0.002;0.076;-0.013439035043120384;-0.010995574295520782;0.0012217304902151227
01:00:0A:00:00:00:00;1727481936;28/09/24;00:05:36;1.016;-0.002;0.076;-0.013439035043120384;-0.010995574295520782;0.0012217304902151227
01:00:0A:00:00:00:00;1727481937;28/09/24;00:05:37;1.015;-0.003;0.077;-0.013439035043120384;-0.010995574295520782;0.0024434609804302454
01:00:0A:00:00:00:00;1727481938;28/09/24;00:05:38;1.016;-0.002;0.077;-0.012217304669320583;-0.010995574295520782;0.0012217304902151227
01:00:0A:00:00:00:00;1727481939;28/09/24;00:05:39;1.016;-0.002;0.076;-0.013439035043120384;-0.010995574295520782;0.0012217304902151227
01:00:0A:00:00:00:00;1727481940;28/09/24;00:05:40;1.015;-0.003;0.076;-0.013439035043120384;-0.010995574295520782;0.0012217304902151227
01:00:0A:00:00:00:00;1727481941;28/09/24;00:05:41;1.015;-0.002;0.077;-0.013439035043120384;-0.010995574295520782;0.0012217304902151227
01:00:0A:00:00:00:00;1727481942;28/09/24;00:05:42;1.016;-0.003;0.077;-0.013439035043120384;-0.012217304669320583;0.0012217304902151227
01:00:0A:00:00:00:00;1727481943;28/09/24;00:05:43;1.016;-0.003;0.077;-0.013439035043120384;-0.012217304669320583;0.0012217304902151227
01:00:0A:00:00:00:00;1727481944;28/09/24;00:05:44;1.016;-0.002;0.077;-0.013439035043120384;-0.012217304669320583;0.0012217304902151227
01:00:0A:00:00:00:00;1727481945;28/09/24;00:05:45;1.015;-0.002;0.077;-0.013439035043120384;-0.012217304669320583;0.0012217304902151227
01:00:0A:00:00:00:00;1727481946;28/09/24;00:05:46;1.015;-0.003;0.079;-0.013439035043120384;-0.012217304669320583;0.0012217304902151227
01:00:0A:00:00:00:00;1727481947;28/09/24;00:05:47;1.015;-0.002;0.076;-0.013439035043120384;-0.010995574295520782;0.0012217304902151227
01:00:0A:00:00:00:00;1727481948;28/09/24;00:05:48;1.016;-0.003;0.077;-0.013439035043120384;-0.010995574295520782;0.0012217304902151227
01:00:0A:00:00:00:00;1727481949;28/09/24;00:05:49;1.015;-0.002;0.076;-0.013439035043120384;-0.010995574295520782;0.0012217304902151227
01:00:0A:00:00:00:00;1727481950;28/09/24;00:05:50;1.016;-0.003;0.077;-0.014660765416920185;-0.012217304669320583;0.0012217304902151227
01:00:0A:00:00:00:00;1727481951;28/09/24;00:05:51;1.015;-0.002;0.077;-0.013439035043120384;-0.012217304669320583;0.0012217304902151227
01:00:0A:00:00:00:00;1727481952;28/09/24;00:05:52;1.016;-0.002;0.077;-0.014660765416920185;-0.010995574295520782;0.0012217304902151227
01:00:0A:00:00:00:00;1727481953;28/09/24;00:05:53;1.015;-0.001;0.077;-0.014660765416920185;-0.010995574295520782;0.0012217304902151227
01:00:0A:00:00:00:00;1727481954;28/09/24;00:05:54;1.016;-0.002;0.076;-0.013439035043120384;-0.010995574295520782;0.0012217304902151227
01:00:0A:00:00:00:00;1727481955;28/09/24;00:05:55;1.016;-0.002;0.077;-0.013439035043120384;-0.012217304669320583;0.0012217304902151227
01:00:0A:00:00:00:00;1727481956;28/09/24;00:05:56;1.016;-0.002;0.076;-0.014660765416920185;-0.010995574295520782;0.0012217304902151227
01:00:0A:00:00:00:00;1727481957;28/09/24;00:05:57;1.016;-0.002;0.076;-0.014660765416920185;-0.010995574295520782;0.0012217304902151227
01:00:0A:00:00:00:00;1727481958;28/09/24;00:05:58;1.015;-0.002;0.077;-0.014660765416920185;-0.012217304669320583;0.0012217304902151227
01:00:0A:00:00:00:00;1727481959;28/09/24;00:05:59;1.016;0.0;0.077;-0.014660765416920185;-0.010995574295520782;0.0012217304902151227
01:00:0A:00:00:00:00;1727481960;28/09/24;00:06:00;1.015;-0.002;0.077;-0.014660765416920185;-0.010995574295520782;0.0012217304902151227
01:00:0A:00:00:00:00;1727481961;28/09/24;00:06:01;1.016;-0.001;0.077;-0.014660765416920185;-0.012217304669320583;0.0012217304902151227
01:00:0A:00:00:00:00;1727481962;28/09/24;00:06:02;1.015;-0.003;0.077;-0.014660765416920185;-0.012217304669320583;0.0012217304902151227
01:00:0A:00:00:00:00;1727481963;28/09/24;00:06:03;1.016;-0.002;0.076;-0.014660765416920185;-0.012217304669320583;0.0012217304902151227
01:00:0A:00:00:00:00;1727481964;28/09/24;00:06:04;1.016;-0.003;0.077;-0.014660765416920185;-0.010995574295520782;0.0012217304902151227
01:00:0A:00:00:00:00;1727481965;28/09/24;00:06:05;1.015;-0.002;0.076;-0.014660765416920185;-0.010995574295520782;0.0012217304902151227
01:00:0A:00:00:00:00;1727481966;28/09/24;00:06:06;1.016;-0.001;0.076;-0.014660765416920185;-0.012217304669320583;0.0012217304902151227
01:00:0A:00:00:00:00;1727481967;28/09/24;00:06:07;1.015;-0.003;0.076;-0.014660765416920185;-0.010995574295520782;0.0012217304902151227
01:00:0A:00:00:00:00;1727481968;28/09/24;00:06:08;1.016;-0.002;0.077;-0.014660765416920185;-0.010995574295520782;0.0012217304902151227
01:00:0A:00:00:00:00;1727481969;28/09/24;00:06:09;1.015;-0.002;0.077;-0.014660765416920185;-0.010995574295520782;0.0012217304902151227
01:00:0A:00:00:00:00;1727481970;28/09/24;00:06:10;1.015;-0.002;0.077;-0.014660765416920185;-0.012217304669320583;0.0012217304902151227
01:00:0A:00:00:00:00;1727481971;28/09/24;00:06:11;1.016;-0.002;0.077;-0.014660765416920185;-0.010995574295520782;0.0012217304902151227
01:00:0A:00:00:00:00;1727481972;28/09/24;00:06:12;1.015;-0.003;0.076;-0.014660765416920185;-0.012217304669320583;0.0012217304902151227
01:00:0A:00:00:00:00;1727481973;28/09/24;00:06:13;1.016;-0.002;0.077;-0.014660765416920185;-0.010995574295520782;0.0012217304902151227
01:00:0A:00:00:00:00;1727481974;28/09/24;00:06:14;1.016;-0.002;0.077;-0.014660765416920185;-0.010995574295520782;0.0012217304902151227
01:00:0A:00:00:00:00;1727481975;28/09/24;00:06:15;1.015;-0.002;0.077;-0.014660765416920185;-0.010995574295520782;0.0012217304902151227
01:00:0A:00:00:00:00;1727481976;28/09/24;00:06:16;1.015;-0.002;0.077;-0.014660765416920185;-0.010995574295520782;0.0012217304902151227
01:00:0A:00:00:00:00;1727481977;28/09/24;00:06:17;1.015;-0.001;0.076;-0.014660765416920185;-0.012217304669320583;0.0012217304902151227
01:00:0A:00:00:00:00;1727481978;28/09/24;00:06:18;1.015;-0.001;0.077;-0.014660765416920185;-0.012217304669320583;0.0012217304902151227
01:00:0A:00:00:00:00;1727481979;28/09/24;00:06:19;1.016;-0.002;0.076;-0.014660765416920185;-0.010995574295520782;0.0012217304902151227
01:00:0A:00:00:00:00;1727481980;28/09/24;00:06:20;1.016;-0.002;0.077;-0.014660765416920185;-0.010995574295520782;0.0012217304902151227
01:00:0A:00:00:00:00;1727481981;28/09/24;00:06:21;1.016;-0.002;0.076;-0.014660765416920185;-0.010995574295520782;0.0012217304902151227
01:00:0A:00:00:00:00;1727481982;28/09/24;00:06:22;1.015;-0.001;0.077;-0.014660765416920185;-0.010995574295520782;0.0012217304902151227
01:00:0A:00:00:00:00;1727481983;28/09/24;00:06:23;1.016;-0.002;0.076;-0.014660765416920185;-0.010995574295520782;0.0012217304902151227
01:00:0A:00:00:00:00;1727481984;28/09/24;00:06:24;1.014;-0.002;0.077;-0.015882495790719986;-0.012217304669320583;0.0012217304902151227
01:00:0A:00:00:00:00;1727481985;28/09/24;00:06:25;1.016;-0.001;0.077;-0.015882495790719986;-0.012217304669320583;0.0012217304902151227
01:00:0A:00:00:00:00;1727481986;28/09/24;00:06:26;1.016;-0.002;0.077;-0.015882495790719986;-0.010995574295520782;0.0012217304902151227
01:00:0A:00:00:00:00;1727481987;28/09/24;00:06:27;1.016;-0.003;0.077;-0.014660765416920185;-0.012217304669320583;0.0012217304902151227
01:00:0A:00:00:00:00;1727481988;28/09/24;00:06:28;1.016;-0.002;0.076;-0.015882495790719986;-0.010995574295520782;0.0012217304902151227
01:00:0A:00:00:00:00;1727481989;28/09/24;00:06:29;1.016;-0.003;0.076;-0.014660765416920185;-0.012217304669320583;0.0012217304902151227
01:00:0A:00:00:00:00;1727481990;28/09/24;00:06:30;1.016;-0.002;0.077;-0.015882495790719986;-0.012217304669320583;0.0012217304902151227
01:00:0A:00:00:00:00;1727481991;28/09/24;00:06:31;1.015;-0.002;0.077;-0.015882495790719986;-0.012217304669320583;0.0012217304902151227
01:00:0A:00:00:00:00;1727481992;28/09/24;00:06:32;1.015;-0.002;0.076;-0.015882495790719986;-0.010995574295520782;0.0012217304902151227
01:00:0A:00:00:00:00;1727481993;28/09/24;00:06:33;1.016;-0.001;0.077;-0.014660765416920185;-0.012217304669320583;0.0012217304902151227
01:00:0A:00:00:00:00;1727481994;28/09/24;00:06:34;1.016;-0.002;0.077;-0.014660765416920185;-0.012217304669320583;0.0012217304902151227
01:00:0A:00:00:00:00;1727481995;28/09/24;00:06:35;1.016;-0.002;0.076;-0.014660765416920185;-0.012217304669320583;0.0012217304902151227
01:00:0A:00:00:00:00;1727481996;28/09/24;00:06:36;1.016;-0.002;0.076;-0.015882495790719986;-0.010995574295520782;0.0012217304902151227
01:00:0A:00:00:00:00;1727481997;28/09/24;00:06:37;1.016;-0.001;0.078;-0.014660765416920185;-0.012217304669320583;0.0012217304902151227
01:00:0A:00:00:00:00;1727481998;28/09/24;00:06:38;1.015;-0.002;0.078;-0.015882495790719986;-0.010995574295520782;0.0012217304902151227
01:00:0A:00:00:00:00;1727481999;28/09/24;00:06:39;1.016;-0.002;0.076;-0.015882495790719986;-0.010995574295520782;0.0012217304902151227
01:00:0A:00:00:00:00;1727482000;28/09/24;00:06:40;1.016;-0.002;0.077;-0.015882495790719986;-0.012217304669320583;0.0012217304902151227
01:00:0A:00:00:00:00;1727482001;28/09/24;00:06:41;1.016;-0.002;0.077;-0.015882495790719986;-0.012217304669320583;0.0012217304902151227
01:00:0A:00:00:00:00;1727482002;28/09/24;00:06:42;1.015;-0.002;0.076;-0.015882495790719986;-0.012217304669320583;0.0012217304902151227
01:00:0A:00:00:00:00;1727482003;28/09/24;00:06:43;1.016;-0.003;0.077;-0.015882495790719986;-0.010995574295520782;0.0012217304902151227
01:00:0A:00:00:00:00;1727482004;28/09/24;00:06:44;1.016;-0.002;0.077;-0.015882495790719986;-0.012217304669320583;0.0012217304902151227
01:00:0A:00:00:00:00;1727482005;28/09/24;00:06:45;1.016;-0.001;0.077;-0.015882495790719986;-0.010995574295520782;0.0012217304902151227
01:00:0A:00:00:00:00;1727482006;28/09/24;00:06:46;1.015;-0.003;0.077;-0.015882495790719986;-0.010995574295520782;0.0012217304902151227
01:00:0A:00:00:00:00;1727482007;28/09/24;00:06:47;1.014;-0.002;0.076;-0.015882495790719986;-0.012217304669320583;0.0012217304902151227
01:00:0A:00:00:00:00;1727482008;28/09/24;00:06:48;1.015;-0.002;0.076;-0.015882495790719986;-0.010995574295520782;0.0012217304902151227
01:00:0A:00:00:00:00;1727482009;28/09/24;00:06:49;1.015;-0.002;0.076;-0.015882495790719986;-0.012217304669320583;0.0012217304902151227
01:00:0A:00:00:00:00;1727482010;28/09/24;00:06:50;1.015;-0.002;0.076;-0.015882495790719986;-0.010995574295520782;0.0012217304902151227
01:00:0A:00:00:00:00;1727482011;28/09/24;00:06:51;1.016;-0.003;0.078;-0.015882495790719986;-0.012217304669320583;0.0012217304902151227
01:00:0A:00:00:00:00;1727482012;28/09/24;00:06:52;1.016;-0.001;0.077;-0.015882495790719986;-0.010995574295520782;0.0012217304902151227
01:00:0A:00:00:00:00;1727482013;28/09/24;00:06:53;1.016;-0.002;0.077;-0.015882495790719986;-0.012217304669320583;0.0012217304902151227
01:00:0A:00:00:00:00;1727482013;28/09/24;00:06:53;1.016;-0.003;0.077;-0.015882495790719986;-0.012217304669320583;0.0012217304902151227
01:00:0A:00:00:00:00;1727482014;28/09/24;00:06:54;1.016;-0.002;0.078;-0.015882495790719986;-0.012217304669320583;0.0012217304902151227
01:00:0A:00:00:00:00;1727482015;28/09/24;00:06:55;1.016;-0.002;0.078;-0.015882495790719986;-0.010995574295520782;0.0012217304902151227
01:00:0A:00:00:00:00;1727482016;28/09/24;00:06:56;1.015;-0.002;0.077;-0.015882495790719986;-0.010995574295520782;0.0012217304902151227
01:00:0A:00:00:00:00;1727482017;28/09/24;00:06:57;1.015;-0.002;0.078;-0.015882495790719986;-0.010995574295520782;0.0012217304902151227
01:00:0A:00:00:00:00;1727482018;28/09/24;00:06:58;1.015;-0.001;0.077;-0.015882495790719986;-0.010995574295520782;0.0012217304902151227
01:00:0A:00:00:00:00;1727482019;28/09/24;00:06:59;1.015;-0.002;0.077;-0.015882495790719986;-0.010995574295520782;0.0012217304902151227
01:00:0A:00:00:00:00;1727482020;28/09/24;00:07:00;1.016;-0.002;0.077;-0.015882495790719986;-0.010995574295520782;0.0012217304902151227
01:00:0A:00:00:00:00;1727482021;28/09/24;00:07:01;1.015;-0.003;0.077;-0.015882495790719986;-0.010995574295520782;0.0012217304902151227
01:00:0A:00:00:00:00;1727482022;28/09/24;00:07:02;1.015;-0.001;0.076;-0.015882495790719986;-0.010995574295520782;0.0012217304902151227
01:00:0A:00:00:00:00;1727482023;28/09/24;00:07:03;1.016;-0.002;0.077;-0.01710422709584236;-0.012217304669320583;0.0012217304902151227
01:00:0A:00:00:00:00;1727482024;28/09/24;00:07:04;1.016;-0.002;0.077;-0.015882495790719986;-0.010995574295520782;0.0012217304902151227
01:00:0A:00:00:00:00;1727482025;28/09/24;00:07:05;1.016;-0.002;0.076;-0.01710422709584236;-0.010995574295520782;0.0012217304902151227
01:00:0A:00:00:00:00;1727482026;28/09/24;00:07:06;1.015;-0.002;0.077;-0.015882495790719986;-0.010995574295520782;0.0012217304902151227
01:00:0A:00:00:00:00;1727482027;28/09/24;00:07:07;1.016;-0.002;0.076;-0.01710422709584236;-0.012217304669320583;0.0012217304902151227
01:00:0A:00:00:00:00;1727482028;28/09/24;00:07:08;1.015;-0.002;0.076;-0.01710422709584236;-0.012217304669320583;0.0012217304902151227
01:00:0A:00:00:00:00;1727482029;28/09/24;00:07:09;1.015;-0.002;0.077;-0.01710422709584236;-0.012217304669320583;0.0012217304902151227
01:00:0A:00:00:00:00;1727482030;28/09/24;00:07:10;1.014;-0.002;0.076;-0.01710422709584236;-0.010995574295520782;0.0012217304902151227
01:00:0A:00:00:00:00;1727482031;28/09/24;00:07:11;1.016;-0.002;0.077;-0.01710422709584236;-0.012217304669320583;0.0012217304902151227
01:00:0A:00:00:00:00;1727482032;28/09/24;00:07:12;1.014;-0.002;0.077;-0.01710422709584236;-0.010995574295520782;0.0012217304902151227
01:00:0A:00:00:00:00;1727482033;28/09/24;00:07:13;1.016;-0.002;0.076;-0.018325956538319588;-0.012217304669320583;0.0012217304902151227
01:00:0A:00:00:00:00;1727482034;28/09/24;00:07:14;1.016;-0.002;0.077;-0.018325956538319588;-0.010995574295520782;0.0012217304902151227
01:00:0A:00:00:00:00;1727482035;28/09/24;00:07:15;1.016;-0.002;0.077;-0.018325956538319588;-0.010995574295520782;0.0012217304902151227
01:00:0A:00:00:00:00;1727482036;28/09/24;00:07:16;1.015;-0.002;0.078;-0.019547687843441963;-0.012217304669320583;0.0012217304902151227
01:00:0A:00:00:00:00;1727482037;28/09/24;00:07:17;1.016;-0.002;0.077;-0.019547687843441963;-0.012217304669320583;0.0012217304902151227
01:00:0A:00:00:00:00;1727482038;28/09/24;00:07:18;1.015;-0.002;0.077;-0.019547687843441963;-0.010995574295520782;0.0012217304902151227
01:00:0A:00:00:00:00;1727482039;28/09/24;00:07:19;1.015;-0.001;0.076;-0.019547687843441963;-0.012217304669320583;0.0012217304902151227
01:00:0A:00:00:00:00;1727482040;28/09/24;00:07:20;1.016;-0.002;0.077;-0.019547687843441963;-0.012217304669320583;0.0012217304902151227
01:00:0A:00:00:00:00;1727482041;28/09/24;00:07:21;1.016;-0.002;0.077;-0.019547687843441963;-0.012217304669320583;0.0012217304902151227
01:00:0A:00:00:00:00;1727482042;28/09/24;00:07:22;1.015;-0.002;0.077;-0.019547687843441963;-0.010995574295520782;0.0012217304902151227
01:00:0A:00:00:00:00;1727482043;28/09/24;00:07:23;1.015;-0.002;0.077;-0.019547687843441963;-0.012217304669320583;0.0012217304902151227
01:00:0A:00:00:00:00;1727482044;28/09/24;00:07:24;1.015;-0.001;0.077;-0.02076941914856434;-0.012217304669320583;0.0012217304902151227
01:00:0A:00:00:00:00;1727482045;28/09/24;00:07:25;1.016;-0.002;0.076;-0.02076941914856434;-0.012217304669320583;0.0012217304902151227
01:00:0A:00:00:00:00;1727482046;28/09/24;00:07:26;1.016;-0.001;0.077;-0.019547687843441963;-0.012217304669320583;0.0012217304902151227
01:00:0A:00:00:00:00;1727482047;28/09/24;00:07:27;1.015;-0.001;0.077;-0.02076941914856434;-0.010995574295520782;0.0012217304902151227
01:00:0A:00:00:00:00;1727482048;28/09/24;00:07:28;1.016;-0.003;0.077;-0.019547687843441963;-0.010995574295520782;0.0012217304902151227
01:00:0A:00:00:00:00;1727482049;28/09/24;00:07:29;1.015;-0.002;0.077;-0.02076941914856434;-0.012217304669320583;0.0012217304902151227
01:00:0A:00:00:00:00;1727482050;28/09/24;00:07:30;1.015;-0.002;0.076;-0.02076941914856434;-0.012217304669320583;0.0012217304902151227
01:00:0A:00:00:00:00;1727482051;28/09/24;00:07:31;1.015;-0.003;0.076;-0.02076941914856434;-0.012217304669320583;0.0012217304902151227
01:00:0A:00:00:00:00;1727482052;28/09/24;00:07:32;1.015;-0.003;0.078;-0.02076941914856434;-0.010995574295520782;0.0012217304902151227
01:00:0A:00:00:00:00;1727482053;28/09/24;00:07:33;1.016;-0.002;0.078;-0.019547687843441963;-0.012217304669320583;0.0012217304902151227
01:00:0A:00:00:00:00;1727482054;28/09/24;00:07:34;1.016;-0.002;0.077;-0.02076941914856434;-0.012217304669320583;0.0012217304902151227
01:00:0A:00:00:00:00;1727482055;28/09/24;00:07:35;1.016;-0.002;0.076;-0.019547687843441963;-0.012217304669320583;0.0012217304902151227
01:00:0A:00:00:00:00;1727482056;28/09/24;00:07:36;1.015;-0.002;0.077;-0.019547687843441963;-0.012217304669320583;0.0012217304902151227
01:00:0A:00:00:00:00;1727482057;28/09/24;00:07:37;1.016;-0.002;0.076;-0.019547687843441963;-0.012217304669320583;0.0012217304902151227
01:00:0A:00:00:00:00;1727482058;28/09/24;00:07:38;1.015;-0.003;0.077;-0.019547687843441963;-0.012217304669320583;0.0012217304902151227
01:00:0A:00:00:00:00;1727482059;28/09/24;00:07:39;1.016;-0.001;0.077;-0.018325956538319588;-0.012217304669320583;0.0012217304902151227
01:00:0A:00:00:00:00;1727482060;28/09/24;00:07:40;1.015;-0.003;0.077;-0.018325956538319588;-0.012217304669320583;0.0012217304902151227
01:00:0A:00:00:00:00;1727482061;28/09/24;00:07:41;1.015;-0.002;0.077;-0.018325956538319588;-0.010995574295520782;0.0012217304902151227
01:00:0A:00:00:00:00;1727482062;28/09/24;00:07:42;1.016;-0.003;0.076;-0.018325956538319588;-0.012217304669320583;0.0012217304902151227
01:00:0A:00:00:00:00;1727482063;28/09/24;00:07:43;1.016;-0.003;0.076;-0.018325956538319588;-0.012217304669320583;0.0012217304902151227
01:00:0A:00:00:00:00;1727482064;28/09/24;00:07:44;1.016;-0.002;0.077;-0.018325956538319588;-0.010995574295520782;0.0012217304902151227
01:00:0A:00:00:00:00;1727482065;28/09/24;00:07:45;1.016;-0.002;0.077;-0.01710422709584236;-0.010995574295520782;0.0012217304902151227
01:00:0A:00:00:00:00;1727482066;28/09/24;00:07:46;1.016;-0.002;0.077;-0.01710422709584236;-0.010995574295520782;0.0012217304902151227
01:00:0A:00:00:00:00;1727482067;28/09/24;00:07:47;1.015;-0.001;0.077;-0.01710422709584236;-0.010995574295520782;0.0012217304902151227
01:00:0A:00:00:00:00;1727482068;28/09/24;00:07:48;1.016;-0.002;0.076;-0.01710422709584236;-0.010995574295520782;0.0012217304902151227
01:00:0A:00:00:00:00;1727482069;28/09/24;00:07:49;1.016;-0.002;0.076;-0.01710422709584236;-0.010995574295520782;0.0012217304902151227
01:00:0A:00:00:00:00;1727482070;28/09/24;00:07:50;1.016;-0.001;0.076;-0.01710422709584236;-0.012217304669320583;0.0012217304902151227
01:00:0A:00:00:00:00;1727482071;28/09/24;00:07:51;1.016;-0.002;0.077;-0.01710422709584236;-0.010995574295520782;0.0012217304902151227
01:00:0A:00:00:00:00;1727482072;28/09/24;00:07:52;1.015;-0.002;0.077;-0.015882495790719986;-0.010995574295520782;0.0012217304902151227
01:00:0A:00:00:00:00;1727482073;28/09/24;00:07:53;1.015;-0.002;0.077;-0.015882495790719986;-0.010995574295520782;0.0012217304902151227
01:00:0A:00:00:00:00;1727482074;28/09/24;00:07:54;1.016;-0.002;0.077;-0.015882495790719986;-0.012217304669320583;0.0012217304902151227
01:00:0A:00:00:00:00;1727482075;28/09/24;00:07:55;1.016;-0.002;0.077;-0.015882495790719986;-0.010995574295520782;0.0012217304902151227
01:00:0A:00:00:00:00;1727482076;28/09/24;00:07:56;1.014;-0.002;0.077;-0.015882495790719986;-0.012217304669320583;0.0012217304902151227
01:00:0A:00:00:00:00;1727482077;28/09/24;00:07:57;1.016;-0.003;0.077;-0.015882495790719986;-0.012217304669320583;0.0012217304902151227
01:00:0A:00:00:00:00;1727482078;28/09/24;00:07:58;1.015;-0.003;0.077;-0.015882495790719986;-0.012217304669320583;0.0012217304902151227
01:00:0A:00:00:00:00;1727482079;28/09/24;00:07:59;1.015;-0.003;0.077;-0.015882495790719986;-0.010995574295520782;0.0012217304902151227
01:00:0A:00:00:00:00;1727482080;28/09/24;00:08:00;1.016;-0.003;0.077;-0.015882495790719986;-0.010995574295520782;0.0012217304902151227
01:00:0A:00:00:00:00;1727482081;28/09/24;00:08:01;1.015;-0.001;0.077;-0.015882495790719986;-0.010995574295520782;0.0012217304902151227
01:00:0A:00:00:00:00;1727482082;28/09/24;00:08:02;1.015;-0.002;0.077;-0.014660765416920185;-0.010995574295520782;0.0012217304902151227
01:00:0A:00:00:00:00;1727482083;28/09/24;00:08:03;1.016;-0.002;0.077;-0.014660765416920185;-0.010995574295520782;0.0012217304902151227
01:00:0A:00:00:00:00;1727482084;28/09/24;00:08:04;1.016;-0.002;0.077;-0.014660765416920185;-0.010995574295520782;0.0012217304902151227
01:00:0A:00:00:00:00;1727482085;28/09/24;00:08:05;1.015;-0.002;0.076;-0.014660765416920185;-0.010995574295520782;0.0012217304902151227
01:00:0A:00:00:00:00;1727482086;28/09/24;00:08:06;1.015;-0.002;0.077;-0.014660765416920185;-0.010995574295520782;0.0012217304902151227
01:00:0A:00:00:00:00;1727482087;28/09/24;00:08:07;1.015;-0.002;0.077;-0.014660765416920185;-0.010995574295520782;0.0012217304902151227
01:00:0A:00:00:00:00;1727482088;28/09/24;00:08:08;1.015;-0.003;0.078;-0.014660765416920185;-0.010995574295520782;0.0012217304902151227
01:00:0A:00:00:00:00;1727482089;28/09/24;00:08:09;1.016;-0.002;0.078;-0.014660765416920185;-0.010995574295520782;0.0012217304902151227
01:00:0A:00:00:00:00;1727482090;28/09/24;00:08:10;1.016;-0.002;0.077;-0.014660765416920185;-0.010995574295520782;0.0012217304902151227
01:00:0A:00:00:00:00;1727482091;28/09/24;00:08:11;1.015;-0.002;0.076;-0.014660765416920185;-0.010995574295520782;0.0012217304902151227
01:00:0A:00:00:00:00;1727482092;28/09/24;00:08:12;1.015;-0.001;0.076;-0.014660765416920185;-0.010995574295520782;0.0012217304902151227
01:00:0A:00:00:00:00;1727482093;28/09/24;00:08:13;1.015;-0.003;0.078;-0.014660765416920185;-0.010995574295520782;0.0012217304902151227
01:00:0A:00:00:00:00;1727482094;28/09/24;00:08:14;1.016;-0.002;0.077;-0.013439035043120384;-0.012217304669320583;0.0024434609804302454
01:00:0A:00:00:00:00;1727482095;28/09/24;00:08:15;1.016;-0.002;0.077;-0.013439035043120384;-0.010995574295520782;0.0012217304902151227
01:00:0A:00:00:00:00;1727482096;28/09/24;00:08:16;1.015;-0.002;0.077;-0.013439035043120384;-0.010995574295520782;0.0012217304902151227
01:00:0A:00:00:00:00;1727482097;28/09/24;00:08:17;1.016;-0.002;0.076;-0.013439035043120384;-0.010995574295520782;0.0012217304902151227
01:00:0A:00:00:00:00;1727482098;28/09/24;00:08:18;1.016;-0.001;0.076;-0.013439035043120384;-0.010995574295520782;0.0012217304902151227
01:00:0A:00:00:00:00;1727482099;28/09/24;00:08:19;1.016;-0.003;0.076;-0.013439035043120384;-0.012217304669320583;0.0012217304902151227
01:00:0A:00:00:00:00;1727482100;28/09/24;00:08:20;1.016;-0.001;0.076;-0.013439035043120384;-0.010995574295520782;0.0012217304902151227
01:00:0A:00:00:00:00;1727482101;28/09/24;00:08:21;1.015;-0.002;0.076;-0.013439035043120384;-0.010995574295520782;0.0012217304902151227
01:00:0A:00:00:00:00;1727482102;28/09/24;00:08:22;1.016;-0.002;0.076;-0.013439035043120384;-0.010995574295520782;0.0012217304902151227
01:00:0A:00:00:00:00;1727482103;28/09/24;00:08:23;1.015;-0.003;0.077;-0.013439035043120384;-0.010995574295520782;0.0012217304902151227
01:00:0A:00:00:00:00;1727482104;28/09/24;00:08:24;1.016;-0.003;0.077;-0.013439035043120384;-0.012217304669320583;0.0012217304902151227
01:00:0A:00:00:00:00;1727482105;28/09/24;00:08:25;1.016;-0.002;0.076;-0.012217304669320583;-0.010995574295520782;0.0012217304902151227
01:00:0A:00:00:00:00;1727482106;28/09/24;00:08:26;1.015;-0.002;0.076;-0.012217304669320583;-0.010995574295520782;0.0012217304902151227
01:00:0A:00:00:00:00;1727482107;28/09/24;00:08:27;1.015;-0.002;0.077;-0.012217304669320583;-0.010995574295520782;0.0012217304902151227
01:00:0A:00:00:00:00;1727482108;28/09/24;00:08:28;1.016;-0.003;0.077;-0.012217304669320583;-0.010995574295520782;0.0012217304902151227
01:00:0A:00:00:00:00;1727482109;28/09/24;00:08:29;1.015;-0.002;0.077;-0.012217304669320583;-0.012217304669320583;0.0012217304902151227
01:00:0A:00:00:00:00;1727482110;28/09/24;00:08:30;1.015;-0.002;0.077;-0.013439035043120384;-0.010995574295520782;0.0012217304902151227
01:00:0A:00:00:00:00;1727482111;28/09/24;00:08:31;1.015;-0.002;0.076;-0.013439035043120384;-0.012217304669320583;0.0012217304902151227
01:00:0A:00:00:00:00;1727482112;28/09/24;00:08:32;1.016;-0.001;0.077;-0.013439035043120384;-0.010995574295520782;0.0012217304902151227
01:00:0A:00:00:00:00;1727482113;28/09/24;00:08:33;1.016;-0.002;0.077;-0.013439035043120384;-0.010995574295520782;0.0012217304902151227
01:00:0A:00:00:00:00;1727482114;28/09/24;00:08:34;1.016;-0.002;0.077;-0.013439035043120384;-0.010995574295520782;0.0012217304902151227
01:00:0A:00:00:00:00;1727482115;28/09/24;00:08:35;1.016;-0.003;0.076;-0.013439035043120384;-0.012217304669320583;0.0012217304902151227
01:00:0A:00:00:00:00;1727482116;28/09/24;00:08:36;1.016;-0.001;0.076;-0.013439035043120384;-0.010995574295520782;0.0012217304902151227
01:00:0A:00:00:00:00;1727482117;28/09/24;00:08:37;1.015;-0.003;0.077;-0.013439035043120384;-0.010995574295520782;0.0012217304902151227
01:00:0A:00:00:00:00;1727482118;28/09/24;00:08:38;1.016;-0.001;0.076;-0.013439035043120384;-0.010995574295520782;0.0012217304902151227
01:00:0A:00:00:00:00;1727482119;28/09/24;00:08:39;1.016;-0.001;0.077;-0.013439035043120384;-0.010995574295520782;0.0012217304902151227
01:00:0A:00:00:00:00;1727482120;28/09/24;00:08:40;1.016;-0.003;0.076;-0.013439035043120384;-0.010995574295520782;0.0012217304902151227
01:00:0A:00:00:00:00;1727482121;28/09/24;00:08:41;1.016;-0.002;0.076;-0.013439035043120384;-0.012217304669320583;0.0012217304902151227
01:00:0A:00:00:00:00;1727482122;28/09/24;00:08:42;1.014;-0.002;0.077;-0.013439035043120384;-0.010995574295520782;0.0012217304902151227
01:00:0A:00:00:00:00;1727482123;28/09/24;00:08:43;1.014;-0.001;0.076;-0.013439035043120384;-0.012217304669320583;0.0012217304902151227
01:00:0A:00:00:00:00;1727482124;28/09/24;00:08:44;1.015;-0.002;0.076;-0.013439035043120384;-0.010995574295520782;0.0012217304902151227
01:00:0A:00:00:00:00;1727482125;28/09/24;00:08:45;1.016;-0.002;0.076;-0.013439035043120384;-0.012217304669320583;0.0012217304902151227
01:00:0A:00:00:00:00;1727482126;28/09/24;00:08:46;1.016;-0.002;0.077;-0.013439035043120384;-0.010995574295520782;0.0012217304902151227
01:00:0A:00:00:00:00;1727482127;28/09/24;00:08:47;1.015;-0.001;0.077;-0.013439035043120384;-0.010995574295520782;0.0012217304902151227
01:00:0A:00:00:00:00;1727482128;28/09/24;00:08:48;1.015;-0.002;0.077;-0.013439035043120384;-0.012217304669320583;0.0012217304902151227
01:00:0A:00:00:00:00;1727482129;28/09/24;00:08:49;1.015;-0.002;0.076;-0.013439035043120384;-0.012217304669320583;0.0012217304902151227
01:00:0A:00:00:00:00;1727482130;28/09/24;00:08:50;1.015;-0.003;0.078;-0.013439035043120384;-0.010995574295520782;0.0024434609804302454
01:00:0A:00:00:00:00;1727482131;28/09/24;00:08:51;1.015;-0.002;0.077;-0.013439035043120384;-0.012217304669320583;0.0012217304902151227
01:00:0A:00:00:00:00;1727482132;28/09/24;00:08:52;1.015;-0.002;0.078;-0.013439035043120384;-0.010995574295520782;0.0012217304902151227
01:00:0A:00:00:00:00;1727482133;28/09/24;00:08:53;1.016;-0.003;0.077;-0.013439035043120384;-0.010995574295520782;0.0012217304902151227
01:00:0A:00:00:00:00;1727482134;28/09/24;00:08:54;1.015;-0.002;0.077;-0.013439035043120384;-0.012217304669320583;0.0012217304902151227
01:00:0A:00:00:00:00;1727482135;28/09/24;00:08:55;1.016;-0.002;0.077;-0.013439035043120384;-0.012217304669320583;0.0024434609804302454
01:00:0A:00:00:00:00;1727482136;28/09/24;00:08:56;0.545;-0.364;-0.976;-2.1282544136047363;-2.155132532119751;1.2376129627227783
01:00:0A:00:00:00:00;1727482137;28/09/24;00:08:57;0.928;-0.203;0.602;-1.2021827697753906;0.5070181488990784;-1.9120081663131714
01:00:0A:00:00:00:00;1727482138;28/09/24;00:08:58;1.026;0.08;0.236;-1.166752576828003;-1.5723670721054077;-0.00855211354792118
01:00:0A:00:00:00:00;1727482139;28/09/24;00:08:59;0.985;0.321;-0.129;-1.3365731239318848;-0.04642575979232788;-0.2773328125476837
01:00:0A:00:00:00:00;1727482140;28/09/24;00:09:00;0.835;0.244;0.473;-1.3683381080627441;-0.8051203489303589;0.10262535512447357
01:00:0A:00:00:00:00;1727482141;28/09/24;00:09:01;0.977;0.159;-0.151;-1.1068878173828125;-0.3897320330142975;-0.43860122561454773
01:00:0A:00:00:00:00;1727482142;28/09/24;00:09:02;0.52;0.868;-0.407;0.5900958180427551;0.2528982162475586;0.3274237811565399
01:00:0A:00:00:00:00;1727482143;28/09/24;00:09:03;1.095;-0.213;-0.071;-0.16859880089759827;0.21624629199504852;0.35063666105270386
01:00:0A:00:00:00:00;1727482144;28/09/24;00:09:04;0.802;0.195;-0.307;-1.0812314748764038;0.3604104816913605;1.869247555732727
01:00:0A:00:00:00:00;1727482145;28/09/24;00:09:05;0.726;-0.481;-0.028;-0.919963002204895;0.5302309989929199;1.3292428255081177
01:00:0A:00:00:00:00;1727482146;28/09/24;00:09:06;0.783;0.495;0.407;-1.0250318050384521;-0.8637634515762329;-1.8924604654312134
01:00:0A:00:00:00:00;1727482147;28/09/24;00:09:07;0.746;0.608;0.348;-1.773952603340149;-2.263866424560547;-0.08552113175392151
01:00:0A:00:00:00:00;1727482148;28/09/24;00:09:08;0.598;-0.565;-0.764;-0.3017674386501312;0.4789183437824249;1.2363911867141724
01:00:0A:00:00:00:00;1727482149;28/09/24;00:09:09;0.585;0.665;-0.512;-1.6652185916900635;-0.4337143301963806;0.9993755221366882
01:00:0A:00:00:00:00;1727482150;28/09/24;00:09:10;0.926;-0.232;0.221;-1.6285667419433594;1.6175711154937744;-0.161268413066864
01:00:0A:00:00:00:00;1727482151;28/09/24;00:09:11;0.677;0.106;0.747;-0.6743952035903931;-0.6817255616188049;-0.8943067193031311
01:00:0A:00:00:00:00;1727482152;28/09/24;00:09:12;0.699;0.454;0.771;-0.05619959905743599;0.9077457189559937;-1.1105530261993408
01:00:0A:00:00:00:00;1727482153;28/09/24;00:09:13;0.83;0.497;0.34;-0.8845328092575073;-1.1985175609588623;0.010995574295520782
01:00:0A:00:00:00:00;1727482154;28/09/24;00:09:14;0.919;0.374;-0.201;-2.328618049621582;-1.0054842233657837;0.7049384713172913
01:00:0A:00:00:00:00;1727482155;28/09/24;00:09:15;1.008;0.112;-0.106;-2.10504150390625;-0.22113320231437683;-0.06475171446800232
01:00:0A:00:00:00:00;1727482156;28/09/24;00:09:16;0.853;0.325;-0.044;-1.7898350954055786;-0.5632177591323853;-1.53693687915802
01:00:0A:00:00:00:00;1727482157;28/09/24;00:09:17;0.988;-0.42;0.337;-1.9303340911865234;-0.27000245451927185;0.3530800938606262
01:00:0A:00:00:00:00;1727482158;28/09/24;00:09:18;0.712;-0.121;0.771;-0.5607742667198181;0.24190263450145721;0.06841690838336945
01:00:0A:00:00:00:00;1727482159;28/09/24;00:09:19;0.846;0.108;0.455;0.019547687843441963;-2.009746551513672;-1.4917329549789429
01:00:0A:00:00:00:00;1727482160;28/09/24;00:09:20;0.934;0.205;0.018;-0.8442157506942749;0.44104471802711487;0.32498031854629517
01:00:0A:00:00:00:00;1727482161;28/09/24;00:09:21;0.978;-0.177;-0.203;-0.6719517707824707;-0.6841690540313721;0.2480112910270691
01:00:0A:00:00:00:00;1727482162;28/09/24;00:09:22;0.868;0.346;-0.421;-0.7855727076530457;0.3591887652873993;0.11484266817569733
01:00:0A:00:00:00:00;1727482163;28/09/24;00:09:23;1.017;-0.139;-0.111;-0.7232644557952881;0.04642575979232788;0.36529743671417236
01:00:0A:00:00:00:00;1727482164;28/09/24;00:09:24;1.043;0.002;0.088;-0.5057964324951172;0.45814892649650574;0.010995574295520782
01:00:0A:00:00:00:00;1727482165;28/09/24;00:09:25;1.021;0.047;0.28;-0.5546656250953674;-0.13927726447582245;0.036651913076639175
01:00:0A:00:00:00:00;1727482166;28/09/24;00:09:26;0.79;0.584;-0.15;0.5522221922874451;-0.10873401165008545;-2.44590425491333
01:00:0A:00:00:00:00;1727482167;28/09/24;00:09:27;0.908;0.256;0.387;-0.5949827432632446;0.4911356568336487;0.8930849432945251
01:00:0A:00:00:00:00;1727482168;28/09/24;00:09:28;0.908;-0.379;0.026;0.0;-0.7379252314567566;0.18814648687839508
01:00:0A:00:00:00:00;1727482169;28/09/24;00:09:29;0.971;0.045;0.058;0.4862487316131592;0.1576032191514969;-0.8026769161224365
01:00:0A:00:00:00:00;1727482170;28/09/24;00:09:30;0.938;0.261;0.144;-0.16982054710388184;0.12950342893600464;0.6096435189247131
01:00:0A:00:00:00:00;1727482171;28/09/24;00:09:31;0.979;-0.2;0.06;0.01710422709584236;-0.20036379992961884;0.39828410744667053
01:00:0A:00:00:00:00;1727482172;28/09/24;00:09:32;0.914;-0.1;0.494;1.292590856552124;0.46181410551071167;-0.15882496535778046
01:00:0A:00:00:00:00;1727482173;28/09/24;00:09:33;0.844;-0.456;-0.412;1.1020008325576782;-0.6108652353286743;0.8429940342903137
01:00:0A:00:00:00:00;1727482174;28/09/24;00:09:34;0.894;-0.406;0.31;1.8020524978637695;-0.3897320330142975;-0.6120869517326355
01:00:0A:00:00:00:00;1727482175;28/09/24;00:09:35;0.99;-0.092;-0.162;1.8179349899291992;-0.10262535512447357;-0.11239919811487198
01:00:0A:00:00:00:00;1727482176;28/09/24;00:09:36;1.044;-0.034;0.022;1.606575608253479;-0.0708603635430336;-0.28466320037841797
01:00:0A:00:00:00:00;1727482177;28/09/24;00:09:37;1.021;0.136;-0.211;1.0091493129730225;0.39584067463874817;0.19425514340400696
01:00:0A:00:00:00:00;1727482178;28/09/24;00:09:38;0.966;0.069;0.063;0.891863226890564;-0.3885102868080139;0.15271630883216858
01:00:0A:00:00:00:00;1727482179;28/09/24;00:09:39;0.98;-0.199;-0.012;0.9028588533401489;0.3848450779914856;-0.20036379992961884
01:00:0A:00:00:00:00;1727482180;28/09/24;00:09:40;0.976;0.083;0.237;0.8552113175392151;-0.22357667982578278;0.014660765416920185
01:00:0A:00:00:00:00;1727482181;28/09/24;00:09:41;1.011;-0.142;0.094;0.6511822938919067;0.00855211354792118;0.35185837745666504
01:00:0A:00:00:00:00;1727482182;28/09/24;00:09:42;0.986;-0.053;0.266;0.8881980776786804;-0.17959438264369965;-0.05619959905743599
01:00:0A:00:00:00:00;1727482183;28/09/24;00:09:43;0.998;0.233;0.274;0.3445279896259308;-0.19303341209888458;0.5021312236785889
01:00:0A:00:00:00:00;1727482184;28/09/24;00:09:44;1.014;-0.242;-0.028;0.38117989897727966;-0.10873401165008545;-0.19058994948863983
01:00:0A:00:00:00:00;1727482185;28/09/24;00:09:45;0.596;0.688;0.165;-1.3451251983642578;-0.313984751701355;0.11850785464048386
01:00:0A:00:00:00:00;1727482186;28/09/24;00:09:46;0.949;-0.366;-0.115;-1.1252137422561646;-1.2596040964126587;0.39706242084503174
01:00:0A:00:00:00:00;1727482187;28/09/24;00:09:47;0.946;0.258;-0.235;-0.8881980776786804;0.5510004162788391;-0.21991148591041565
01:00:0A:00:00:00:00;1727482188;28/09/24;00:09:48;0.934;-0.175;0.169;-0.8332201242446899;-0.07819075137376785;0.46303585171699524
01:00:0A:00:00:00:00;1727482189;28/09/24;00:09:49;0.942;0.125;0.081;-0.16493360698223114;0.14049901068210602;-0.8038986325263977
01:00:0A:00:00:00:00;1727482190;28/09/24;00:09:50;0.934;0.034;0.076;0.05253440886735916;-0.2431243658065796;0.919963002204895
01:00:0A:00:00:00:00;1727482191;28/09/24;00:09:51;0.935;-0.049;0.088;0.5571090579032898;-0.07696902006864548;-0.9431759119033813
01:00:0A:00:00:00:00;1727482192;28/09/24;00:09:52;1.005;0.166;-0.069;0.05375614017248154;-0.3701843321323395;0.6401867866516113
01:00:0A:00:00:00:00;1727482193;28/09/24;00:09:53;0.867;0.703;0.366;-4.167322635650635;0.19914205372333527;-0.7269296050071716
01:00:0A:00:00:00:00;1727482194;28/09/24;00:09:54;1.078;0.079;0.124;-2.629163980484009;-0.010995574295520782;-0.45326200127601624
01:00:0A:00:00:00:00;1727482195;28/09/24;00:09:55;0.803;0.373;0.1;-2.342057466506958;0.6536257863044739;-1.2864822149276733
01:00:0A:00:00:00:00;1727482196;28/09/24;00:09:56;0.991;-0.287;0.33;-1.5051718950271606;-0.20647244155406952;-0.38728854060173035
01:00:0A:00:00:00:00;1727482197;28/09/24;00:09:57;0.918;0.455;0.083;-1.0470229387283325;0.040317103266716;-0.3677408695220947
01:00:0A:00:00:00:00;1727482198;28/09/24;00:09:58;1.002;-0.313;-0.062;-0.9468411207199097;-0.3591887652873993;0.3017674386501312
01:00:0A:00:00:00:00;1727482199;28/09/24;00:09:59;1.011;0.09;-0.148;-0.5253441333770752;-0.0012217304902151227;-0.7342600226402283
01:00:0A:00:00:00:00;1727482200;28/09/24;00:10:00;0.755;0.362;-0.17;-0.5949827432632446;-0.9541715383529663;1.2486084699630737
01:00:0A:00:00:00:00;1727482201;28/09/24;00:10:01;0.969;-0.176;-0.123;-0.8442157506942749;0.3433062732219696;1.1362093687057495
01:00:0A:00:00:00:00;1727482202;28/09/24;00:10:02;0.841;-0.533;-0.279;0.010995574295520782;-0.3017674386501312;-0.2993239760398865
01:00:0A:00:00:00:00;1727482203;28/09/24;00:10:03;0.811;-0.362;-0.41;0.6023131012916565;-0.5204571485519409;0.06963863223791122
01:00:0A:00:00:00:00;1727482204;28/09/24;00:10:04;0.95;-0.337;-0.263;1.1545352935791016;-0.161268413066864;-0.7330382466316223
01:00:0A:00:00:00:00;1727482205;28/09/24;00:10:05;0.974;0.162;-0.045;0.8344419002532959;0.2626720666885376;-0.16493360698223114
01:00:0A:00:00:00:00;1727482206;28/09/24;00:10:06;1.015;-0.05;0.214;0.3335324227809906;0.19914205372333527;0.645073652267456
01:00:0A:00:00:00:00;1727482207;28/09/24;00:10:07;0.667;-0.047;0.717;-1.9437731504440308;-0.10506881773471832;0.4789183437824249
01:00:0A:00:00:00:00;1727482208;28/09/24;00:10:08;0.876;0.436;-0.279;-0.7354817390441895;-0.8283332586288452;-1.3194688558578491
01:00:0A:00:00:00:00;1727482209;28/09/24;00:10:09;0.843;-0.338;0.619;-2.7672195434570312;-0.7489207983016968;-0.29077184200286865
01:00:0A:00:00:00:00;1727482210;28/09/24;00:10:10;0.909;0.19;0.139;-2.10504150390625;0.646295428276062;0.27000245451927185
01:00:0A:00:00:00:00;1727482211;28/09/24;00:10:11;0.96;-0.209;-0.06;-1.197295904159546;-0.607200026512146;-0.7843509316444397
01:00:0A:00:00:00:00;1727482212;28/09/24;00:10:12;0.957;0.241;0.234;-1.1386528015136719;0.1563815027475357;0.7538076639175415
01:00:0A:00:00:00:00;1727482213;28/09/24;00:10:13;0.974;-0.404;0.052;-0.5204571485519409;-0.2382374405860901;-0.32620203495025635
01:00:0A:00:00:00:00;1727482214;28/09/24;00:10:14;0.751;-0.504;-0.602;-1.5919147729873657;-0.29077184200286865;1.470963478088379
01:00:0A:00:00:00:00;1727482215;28/09/24;00:10:15;1.031;-0.029;0.197;-0.5766568183898926;0.10018189996480942;0.3384193480014801
01:00:0A:00:00:00:00;1727482216;28/09/24;00:10:16;0.834;-0.244;0.311;-1.7715091705322266;2.500882387161255;0.7916813492774963
01:00:0A:00:00:00:00;1727482217;28/09/24;00:10:17;0.939;-0.528;0.017;-0.4153883755207062;-0.4141666293144226;-0.8429940342903137
01:00:0A:00:00:00:00;1727482218;28/09/24;00:10:18;0.887;0.557;0.119;-0.4752531349658966;0.1014036238193512;-0.5461135506629944
01:00:0A:00:00:00:00;1727482219;28/09/24;00:10:19;1.048;0.109;0.158;-0.9321803450584412;-0.4288274049758911;0.36163222789764404
01:00:0A:00:00:00:00;1727482220;28/09/24;00:10:20;0.949;0.173;-0.38;-0.8442157506942749;-0.028099799528717995;-0.0708603635430336
01:00:0A:00:00:00:00;1727482221;28/09/24;00:10:21;1.034;-0.069;0.154;-0.9773843884468079;0.028099799528717995;0.47769662737846375
01:00:0A:00:00:00:00;1727482222;28/09/24;00:10:22;0.98;-0.24;0.057;-0.4862487316131592;-0.1466076523065567;0.5057964324951172
01:00:0A:00:00:00:00;1727482223;28/09/24;00:10:23;0.957;0.164;0.168;-0.19303341209888458;0.4031710624694824;-0.42271876335144043
01:00:0A:00:00:00:00;1727482224;28/09/24;00:10:24;0.888;-0.168;0.359;0.533896267414093;1.222952127456665;0.3946189284324646
01:00:0A:00:00:00:00;1727482225;28/09/24;00:10:25;0.936;-0.382;0.415;0.36163222789764404;-1.0458012819290161;0.11728612333536148
01:00:0A:00:00:00:00;1727482226;28/09/24;00:10:26;0.947;0.377;-0.131;0.3127630054950714;0.045204028487205505;-0.4789183437824249
01:00:0A:00:00:00:00;1727482227;28/09/24;00:10:27;1.043;-0.012;0.088;-0.33964109420776367;-0.02687807008624077;0.872315526008606
01:00:0A:00:00:00:00;1727482228;28/09/24;00:10:28;1.056;-0.127;-0.014;-0.5351179242134094;0.3152064383029938;-0.40194931626319885
01:00:0A:00:00:00:00;1727482229;28/09/24;00:10:29;0.881;0.133;0.453;-0.028099799528717995;1.7104226350784302;-1.3720033168792725
01:00:0A:00:00:00:00;1727482230;28/09/24;00:10:30;0.894;0.22;0.518;-0.10873401165008545;-0.44226640462875366;0.8955284357070923
01:00:0A:00:00:00:00;1727482231;28/09/24;00:10:31;0.879;-0.471;-0.29;0.22479839622974396;-0.4813618063926697;0.0354301817715168
01:00:0A:00:00:00:00;1727482232;28/09/24;00:10:32;1.022;-0.159;0.014;0.8014551997184753;-0.042760565876960754;-0.9712756872177124
01:00:0A:00:00:00:00;1727482233;28/09/24;00:10:33;0.994;0.137;-0.169;0.45326200127601624;0.17959438264369965;0.4899139106273651
01:00:0A:00:00:00:00;1727482234;28/09/24;00:10:34;0.852;-0.215;0.221;0.445931613445282;-1.067792534828186;-1.751961588859558
01:00:0A:00:00:00:00;1727482235;28/09/24;00:10:35;0.897;0.257;0.121;0.06841690838336945;0.1258382350206375;0.29688048362731934
01:00:0A:00:00:00:00;1727482236;28/09/24;00:10:36;0.691;0.18;-0.669;1.7409659624099731;-2.987131118774414;-0.38117989897727966
01:00:0A:00:00:00:00;1727482237;28/09/24;00:10:37;0.958;-0.126;-0.345;0.9553932547569275;0.8136724829673767;-0.7672467231750488
01:00:0A:00:00:00:00;1727482238;28/09/24;00:10:38;0.772;0.564;0.119;0.3237585723400116;0.07696902006864548;-0.8662068843841553
01:00:0A:00:00:00:00;1727482239;28/09/24;00:10:39;1.008;-0.092;-0.201;-0.5192354917526245;-0.21013763546943665;1.0152579545974731
01:00:0A:00:00:00:00;1727482240;28/09/24;00:10:40;0.961;-0.135;0.203;-0.35674530267715454;0.5949827432632446;-0.1673770695924759
01:00:0A:00:00:00:00;1727482241;28/09/24;00:10:41;0.679;-0.689;0.098;1.5833626985549927;-0.9456194043159485;-0.7562511563301086
01:00:0A:00:00:00:00;1727482242;28/09/24;00:10:42;0.934;-0.058;0.32;1.7421876192092896;-0.9834930300712585;-0.9443976283073425
01:00:0A:00:00:00:00;1727482243;28/09/24;00:10:43;0.931;-0.215;-0.434;0.8063421249389648;0.6414085030555725;0.5644394755363464
01:00:0A:00:00:00:00;1727482244;28/09/24;00:10:44;1.005;-0.056;-0.006;-3.3731977939605713;-0.76846843957901;0.5229006409645081
01:00:0A:00:00:00:00;1727482245;28/09/24;00:10:45;0.9;0.375;0.089;-2.746450185775757;-0.797789990901947;-0.06841690838336945
01:00:0A:00:00:00:00;1727482246;28/09/24;00:10:46;0.822;0.37;-0.304;-1.0910052061080933;0.1258382350206375;0.5412266254425049
01:00:0A:00:00:00:00;1727482247;28/09/24;00:10:47;1.001;-0.082;0.222;-1.3158037662506104;-0.3433062732219696;0.7476990222930908
01:00:0A:00:00:00:00;1727482248;28/09/24;00:10:48;0.93;-0.295;-0.288;-0.6475171446800232;0.62796950340271;-0.3836233615875244
01:00:0A:00:00:00:00;1727482249;28/09/24;00:10:49;0.659;0.291;-0.547;-0.7452555894851685;1.6322319507598877;0.3323107063770294
01:00:0A:00:00:00:00;1727482250;28/09/24;00:10:50;0.986;-0.051;-0.056;-0.5326744914054871;-0.940732479095459;0.23090705275535583
01:00:0A:00:00:00:00;1727482251;28/09/24;00:10:51;0.809;0.393;-0.451;-0.5119050741195679;0.8772024512290955;0.05375614017248154
01:00:0A:00:00:00:00;1727482252;28/09/24;00:10:52;0.703;-0.844;0.059;1.0763444900512695;-0.9505062699317932;2.1624629497528076
01:00:0A:00:00:00:00;1727482253;28/09/24;00:10:53;0.59;-0.391;0.73;1.25593900680542;-0.8857545852661133;-0.607200026512146
01:00:0A:00:00:00:00;1727482254;28/09/24;00:10:54;1.008;0.014;0.118;0.6841690540313721;-0.5644394755363464;0.7464773058891296
01:00:0A:00:00:00:00;1727482255;28/09/24;00:10:55;0.943;-0.335;0.158;1.0103710889816284;0.15271630883216858;-0.2724458873271942
01:00:0A:00:00:00:00;1727482256;28/09/24;00:10:56;0.975;0.1;-0.154;0.9541715383529663;-0.7538076639175415;-0.1576032191514969
01:00:0A:00:00:00:00;1727482257;28/09/24;00:10:57;0.992;-0.109;-0.027;0.8185594081878662;0.31031954288482666;-0.21013763546943665
01:00:0A:00:00:00:00;1727482258;28/09/24;00:10:58;0.928;0.14;0.002;0.5412266254425049;-0.1514945775270462;-0.1417207270860672
01:00:0A:00:00:00:00;1727482259;28/09/24;00:10:59;0.951;0.028;0.053;0.1160643920302391;0.2932153046131134;0.4495967924594879
01:00:0A:00:00:00:00;1727482260;28/09/24;00:11:00;0.964;-0.052;0.155;0.13561207056045532;-0.21502456068992615;-0.07452555745840073
01:00:0A:00:00:00:00;1727482261;28/09/24;00:11:01;1.004;-0.027;0.027;-1.3255774974822998;0.18570303916931152;0.04642575979232788
01:00:0A:00:00:00:00;1727482262;28/09/24;00:11:02;0.853;-0.486;0.228;-0.8552113175392151;0.3579670488834381;0.5913175940513611
01:00:0A:00:00:00:00;1727482263;28/09/24;00:11:03;0.887;-0.502;0.045;-0.025656338781118393;0.05864306166768074;-0.6585127115249634
01:00:0A:00:00:00:00;1727482264;28/09/24;00:11:04;0.91;0.371;-0.088;-0.040317103266716;-0.09651670604944229;-0.4483751058578491
01:00:0A:00:00:00:00;1727482265;28/09/24;00:11:05;0.973;0.196;0.101;-0.7183775305747986;-0.006108652334660292;0.8332201242446899
01:00:0A:00:00:00:00;1727482266;28/09/24;00:11:06;0.951;-0.217;-0.157;-0.3701843321323395;-0.1062905490398407;-0.06108652427792549
01:00:0A:00:00:00:00;1727482267;28/09/24;00:11:07;0.966;0.105;0.132;-0.21502456068992615;0.44226640462875366;-0.4899139106273651
01:00:0A:00:00:00:00;1727482268;28/09/24;00:11:08;0.944;0.069;0.173;-0.4642575681209564;-0.4703662395477295;0.2724458873271942
01:00:0A:00:00:00:00;1727482269;28/09/24;00:11:09;0.987;-0.044;-0.089;-0.28588491678237915;0.024434609338641167;-0.2577851116657257
01:00:0A:00:00:00:00;1727482270;28/09/24;00:11:10;1.021;0.088;0.1;-0.40072759985923767;0.2382374405860901;0.10018189996480942
01:00:0A:00:00:00:00;1727482271;28/09/24;00:11:11;1.015;-0.147;0.18;-0.3078760802745819;-0.11362093687057495;0.0354301817715168
01:00:0A:00:00:00:00;1727482272;28/09/24;00:11:12;0.994;-0.085;0.034;0.1869247555732727;0.2638937830924988;0.607200026512146
01:00:0A:00:00:00:00;1727482273;28/09/24;00:11:13;0.94;-0.14;0.284;0.5314527750015259;-0.019547687843441963;-0.11850785464048386
01:00:0A:00:00:00:00;1727482274;28/09/24;00:11:14;0.97;-0.007;0.249;0.3848450779914856;-0.1466076523065567;0.19547687470912933
01:00:0A:00:00:00:00;1727482275;28/09/24;00:11:15;1.001;-0.14;0.159;0.5583308339118958;0.014660765416920185;0.06841690838336945
01:00:0A:00:00:00:00;1727482276;28/09/24;00:11:16;1.007;0.009;0.108;0.6328563690185547;-0.10018189996480942;-0.080634206533432
01:00:0A:00:00:00:00;1727482277;28/09/24;00:11:17;0.997;-0.028;0.039;0.5619960427284241;0.030543262138962746;0.05009094998240471
01:00:0A:00:00:00:00;1727482278;28/09/24;00:11:18;1.009;-0.059;0.115;0.5668829083442688;-0.07941248267889023;0.042760565876960754
01:00:0A:00:00:00:00;1727482279;28/09/24;00:11:19;1.037;-0.04;0.144;0.5106833577156067;-0.08429940044879913;0.06108652427792549
01:00:0A:00:00:00:00;1727482280;28/09/24;00:11:20;1.043;-0.013;0.118;0.43860122561454773;0.1062905490398407;-0.010995574295520782
01:00:0A:00:00:00:00;1727482281;28/09/24;00:11:21;0.982;0.028;0.078;0.34574973583221436;0.02687807008624077;-0.028099799528717995
01:00:0A:00:00:00:00;1727482282;28/09/24;00:11:22;0.953;0.008;0.039;0.21135938167572021;-0.042760565876960754;0.05864306166768074
01:00:0A:00:00:00:00;1727482283;28/09/24;00:11:23;0.994;0.0;0.025;0.17470745742321014;-0.05009094998240471;-0.10506881773471832
01:00:0A:00:00:00:00;1727482284;28/09/24;00:11:24;1.034;0.019;0.059;0.021991148591041565;-0.042760565876960754;0.09773843735456467
01:00:0A:00:00:00:00;1727482285;28/09/24;00:11:25;1.047;-0.04;0.09;0.0036651913542300463;-0.039095375686883926;0.040317103266716
01:00:0A:00:00:00:00;1727482286;28/09/24;00:11:26;1.018;0.039;0.055;-0.059864792972803116;-0.010995574295520782;-0.0036651913542300463
01:00:0A:00:00:00:00;1727482287;28/09/24;00:11:27;1.005;0.011;0.068;-0.16371189057826996;-0.024434609338641167;0.11728612333536148
01:00:0A:00:00:00:00;1727482288;28/09/24;00:11:28;1.025;-0.064;0.075;-0.10873401165008545;-0.06108652427792549;-0.06108652427792549
01:00:0A:00:00:00:00;1727482289;28/09/24;00:11:29;1.05;0.015;0.081;-0.11972958594560623;0.021991148591041565;-0.0073303827084600925
01:00:0A:00:00:00:00;1727482290;28/09/24;00:11:30;1.032;-0.032;0.062;-0.1466076523065567;0.015882495790719986;0.015882495790719986
01:00:0A:00:00:00:00;1727482291;28/09/24;00:11:31;0.998;-0.017;0.052;-0.12828169763088226;0.025656338781118393;-0.03420845419168472
01:00:0A:00:00:00:00;1727482292;28/09/24;00:11:32;0.997;0.0;0.048;-0.14782939851284027;-0.039095375686883926;-0.00855211354792118
01:00:0A:00:00:00:00;1727482293;28/09/24;00:11:33;1.025;-0.016;0.062;-0.17592918872833252;-0.07208210229873657;0.040317103266716
01:00:0A:00:00:00:00;1727482294;28/09/24;00:11:34;1.042;-0.027;0.06;-0.12828169763088226;-0.028099799528717995;-0.015882495790719986
01:00:0A:00:00:00:00;1727482295;28/09/24;00:11:35;1.028;0.012;0.085;-0.11850785464048386;0.0012217304902151227;-0.06963863223791122
01:00:0A:00:00:00:00;1727482296;28/09/24;00:11:36;0.993;-0.012;0.091;-0.13927726447582245;-0.02321287989616394;0.045204028487205505
01:00:0A:00:00:00:00;1727482297;28/09/24;00:11:37;0.992;-0.027;0.075;-0.1062905490398407;-0.012217304669320583;0.0012217304902151227
01:00:0A:00:00:00:00;1727482298;28/09/24;00:11:38;1.006;0.005;0.099;-0.09651670604944229;0.012217304669320583;0.0073303827084600925
01:00:0A:00:00:00:00;1727482299;28/09/24;00:11:39;1.005;0.004;0.081;-0.10995574295520782;-0.02076941914856434;0.05009094998240471
01:00:0A:00:00:00:00;1727482300;28/09/24;00:11:40;0.987;-0.01;0.052;-0.08674286305904388;-0.018325956538319588;0.006108652334660292
01:00:0A:00:00:00:00;1727482301;28/09/24;00:11:41;0.992;0.001;0.067;-0.07452555745840073;-0.0024434609804302454;-0.0073303827084600925
01:00:0A:00:00:00:00;1727482302;28/09/24;00:11:42;1.013;0.006;0.074;-0.06719517707824707;-0.08185594528913498;-0.02321287989616394
01:00:0A:00:00:00:00;1727482303;28/09/24;00:11:43;1.043;-0.016;0.082;-0.06841690838336945;-0.0036651913542300463;0.0036651913542300463
01:00:0A:00:00:00:00;1727482304;28/09/24;00:11:44;1.042;-0.03;0.086;-0.03420845419168472;-0.006108652334660292;-0.004886921960860491
01:00:0A:00:00:00:00;1727482305;28/09/24;00:11:45;1.019;0.0;0.092;-0.03176499158143997;-0.0024434609804302454;0.0024434609804302454
01:00:0A:00:00:00:00;1727482306;28/09/24;00:11:46;1.008;-0.014;0.063;-0.05497787147760391;0.0;0.010995574295520782
01:00:0A:00:00:00:00;1727482307;28/09/24;00:11:47;1.01;-0.013;0.084;-0.06963863223791122;0.04153883829712868;0.006108652334660292
01:00:0A:00:00:00:00;1727482308;28/09/24;00:11:48;1.016;0.0;0.082;-0.09529497474431992;-0.00855211354792118;0.015882495790719986
01:00:0A:00:00:00:00;1727482309;28/09/24;00:11:49;1.015;0.012;0.064;-0.12217304855585098;-0.019547687843441963;0.010995574295520782
01:00:0A:00:00:00:00;1727482310;28/09/24;00:11:50;1.006;0.004;0.063;-0.1368338167667389;0.0;0.009773843921720982
01:00:0A:00:00:00:00;1727482311;28/09/24;00:11:51;1.005;0.002;0.081;-0.12828169763088226;-0.006108652334660292;-0.02932153083384037
01:00:0A:00:00:00:00;1727482312;28/09/24;00:11:52;1.01;0.008;0.066;-0.12461651116609573;-0.019547687843441963;-0.036651913076639175
01:00:0A:00:00:00:00;1727482313;28/09/24;00:11:53;1.007;0.005;0.066;-0.13072516024112701;0.018325956538319588;-0.010995574295520782
01:00:0A:00:00:00:00;1727482314;28/09/24;00:11:54;0.993;-0.012;0.071;-0.11239919811487198;-0.0036651913542300463;-0.03176499158143997
01:00:0A:00:00:00:00;1727482315;28/09/24;00:11:55;0.992;0.0;0.067;-0.10751228034496307;-0.02076941914856434;-0.02321287989616394
01:00:0A:00:00:00:00;1727482316;28/09/24;00:11:56;1.019;0.0;0.06;-0.10751228034496307;-0.06352998316287994;-0.024434609338641167
01:00:0A:00:00:00:00;1727482317;28/09/24;00:11:57;1.05;-0.001;0.082;-0.1258382350206375;-0.024434609338641167;0.03176499158143997
01:00:0A:00:00:00:00;1727482318;28/09/24;00:11:58;1.053;-0.01;0.09;-0.10995574295520782;0.01710422709584236;-0.009773843921720982
01:00:0A:00:00:00:00;1727482319;28/09/24;00:11:59;1.025;0.005;0.07;-0.11362093687057495;0.028099799528717995;-0.013439035043120384
01:00:0A:00:00:00:00;1727482320;28/09/24;00:12:00;1.004;0.007;0.071;-0.1258382350206375;0.030543262138962746;0.014660765416920185
01:00:0A:00:00:00:00;1727482321;28/09/24;00:12:01;0.992;-0.008;0.057;-0.10751228034496307;-0.019547687843441963;-0.01710422709584236
01:00:0A:00:00:00:00;1727482322;28/09/24;00:12:02;1.004;-0.005;0.076;-0.08674286305904388;-0.02076941914856434;-0.036651913076639175
01:00:0A:00:00:00:00;1727482323;28/09/24;00:12:03;1.014;-0.004;0.074;-0.09529497474431992;-0.010995574295520782;0.0036651913542300463
01:00:0A:00:00:00:00;1727482324;28/09/24;00:12:04;1.01;-0.02;0.066;-0.08552113175392151;-0.028099799528717995;0.010995574295520782
01:00:0A:00:00:00:00;1727482325;28/09/24;00:12:05;1.011;0.0;0.06;-0.06963863223791122;-0.039095375686883926;-0.014660765416920185
01:00:0A:00:00:00:00;1727482326;28/09/24;00:12:06;1.022;0.0;0.071;-0.07452555745840073;-0.0354301817715168;0.0
01:00:0A:00:00:00:00;1727482327;28/09/24;00:12:07;1.027;-0.018;0.083;-0.06719517707824707;-0.028099799528717995;0.00855211354792118
01:00:0A:00:00:00:00;1727482328;28/09/24;00:12:08;1.018;-0.011;0.068;-0.05497787147760391;-0.012217304669320583;0.0036651913542300463
01:00:0A:00:00:00:00;1727482329;28/09/24;00:12:09;1.004;-0.004;0.075;-0.05742133408784866;0.010995574295520782;0.010995574295520782
01:00:0A:00:00:00:00;1727482330;28/09/24;00:12:10;0.995;0.0;0.069;-0.01710422709584236;0.013439035043120384;0.04642575979232788
01:00:0A:00:00:00:00;1727482331;28/09/24;00:12:11;1.008;-0.029;0.098;0.09529497474431992;-0.08552113175392151;-0.07696902006864548
01:00:0A:00:00:00:00;1727482332;28/09/24;00:12:12;1.022;0.008;0.068;0.2125810980796814;-0.004886921960860491;0.013439035043120384
01:00:0A:00:00:00:00;1727482333;28/09/24;00:12:13;1.016;-0.016;0.071;0.17592918872833252;0.0073303827084600925;0.028099799528717995
01:00:0A:00:00:00:00;1727482334;28/09/24;00:12:14;1.001;-0.013;0.071;0.18081611394882202;-0.02076941914856434;0.0
01:00:0A:00:00:00:00;1727482335;28/09/24;00:12:15;1.003;-0.008;0.063;0.1722639948129654;-0.051312677562236786;0.012217304669320583
01:00:0A:00:00:00:00;1727482336;28/09/24;00:12:16;1.016;-0.004;0.073;0.15393804013729095;-0.02687807008624077;0.018325956538319588
01:00:0A:00:00:00:00;1727482337;28/09/24;00:12:17;1.028;-0.01;0.096;0.14905111491680145;0.0012217304902151227;0.010995574295520782
01:00:0A:00:00:00:00;1727482338;28/09/24;00:12:18;1.022;-0.001;0.066;0.1368338167667389;-0.012217304669320583;0.014660765416920185
01:00:0A:00:00:00:00;1727482339;28/09/24;00:12:19;1.013;-0.009;0.076;0.12950342893600464;0.02932153083384037;-0.00855211354792118
01:00:0A:00:00:00:00;1727482340;28/09/24;00:12:20;1.02;-0.001;0.084;0.11728612333536148;-0.025656338781118393;0.00855211354792118
01:00:0A:00:00:00:00;1727482341;28/09/24;00:12:21;1.035;-0.01;0.079;0.10384709388017654;-0.0024434609804302454;0.012217304669320583
01:00:0A:00:00:00:00;1727482342;28/09/24;00:12:22;1.031;-0.01;0.075;0.10262535512447357;0.012217304669320583;-0.0024434609804302454
01:00:0A:00:00:00:00;1727482343;28/09/24;00:12:23;1.012;-0.003;0.083;0.09040805697441101;0.006108652334660292;0.0
01:00:0A:00:00:00:00;1727482344;28/09/24;00:12:24;1.002;-0.009;0.071;0.07696902006864548;-0.03176499158143997;0.019547687843441963
01:00:0A:00:00:00:00;1727482345;28/09/24;00:12:25;1.014;-0.011;0.076;0.080634206533432;-0.0036651913542300463;0.013439035043120384
01:00:0A:00:00:00:00;1727482346;28/09/24;00:12:26;1.026;-0.001;0.084;0.08918632566928864;0.0036651913542300463;-0.028099799528717995
01:00:0A:00:00:00:00;1727482347;28/09/24;00:12:27;1.021;-0.001;0.076;0.07452555745840073;0.0024434609804302454;0.006108652334660292
01:00:0A:00:00:00:00;1727482348;28/09/24;00:12:28;1.001;-0.012;0.075;0.07452555745840073;-0.018325956538319588;-0.006108652334660292
01:00:0A:00:00:00:00;1727482349;28/09/24;00:12:29;0.999;-0.008;0.08;0.07696902006864548;-0.009773843921720982;-0.015882495790719986
01:00:0A:00:00:00:00;1727482350;28/09/24;00:12:30;1.02;-0.003;0.081;0.05864306166768074;-0.039095375686883926;0.021991148591041565
01:00:0A:00:00:00:00;1727482351;28/09/24;00:12:31;1.031;-0.015;0.069;0.05497787147760391;0.006108652334660292;0.009773843921720982
01:00:0A:00:00:00:00;1727482352;28/09/24;00:12:32;1.021;0.0;0.085;0.05009094998240471;0.0036651913542300463;0.0036651913542300463
01:00:0A:00:00:00:00;1727482353;28/09/24;00:12:33;1.008;-0.005;0.08;0.03420845419168472;-0.010995574295520782;0.02321287989616394
01:00:0A:00:00:00:00;1727482354;28/09/24;00:12:34;1.017;-0.009;0.076;0.02932153083384037;-0.00855211354792118;0.014660765416920185
01:00:0A:00:00:00:00;1727482355;28/09/24;00:12:35;1.029;0.003;0.084;0.02687807008624077;0.0073303827084600925;0.0012217304902151227
01:00:0A:00:00:00:00;1727482356;28/09/24;00:12:36;1.027;0.002;0.081;0.012217304669320583;0.009773843921720982;0.009773843921720982
01:00:0A:00:00:00:00;1727482357;28/09/24;00:12:37;1.005;-0.002;0.065;0.004886921960860491;0.0036651913542300463;0.004886921960860491
01:00:0A:00:00:00:00;1727482358;28/09/24;00:12:38;0.993;-0.007;0.074;0.0036651913542300463;-0.0024434609804302454;-0.004886921960860491
01:00:0A:00:00:00:00;1727482359;28/09/24;00:12:39;1.007;-0.007;0.074;-0.0024434609804302454;-0.05864306166768074;0.010995574295520782
01:00:0A:00:00:00:00;1727482360;28/09/24;00:12:40;1.028;-0.006;0.081;-0.006108652334660292;-0.013439035043120384;0.00855211354792118
01:00:0A:00:00:00:00;1727482361;28/09/24;00:12:41;1.03;-0.001;0.082;-0.013439035043120384;0.004886921960860491;0.009773843921720982
01:00:0A:00:00:00:00;1727482362;28/09/24;00:12:42;1.021;-0.001;0.082;-0.01710422709584236;-0.0036651913542300463;0.006108652334660292
01:00:0A:00:00:00:00;1727482363;28/09/24;00:12:43;1.02;-0.006;0.07;-0.024434609338641167;-0.01710422709584236;0.00855211354792118
01:00:0A:00:00:00:00;1727482364;28/09/24;00:12:44;1.022;0.001;0.083;-0.025656338781118393;0.0;-0.0073303827084600925
01:00:0A:00:00:00:00;1727482365;28/09/24;00:12:45;1.018;0.0;0.086;-0.03298672288656235;0.0073303827084600925;0.0024434609804302454
01:00:0A:00:00:00:00;1727482366;28/09/24;00:12:46;1.002;-0.004;0.065;-0.030543262138962746;-0.0012217304902151227;-0.004886921960860491
01:00:0A:00:00:00:00;1727482367;28/09/24;00:12:47;0.997;-0.005;0.067;-0.02932153083384037;-0.010995574295520782;-0.010995574295520782
01:00:0A:00:00:00:00;1727482368;28/09/24;00:12:48;1.008;-0.004;0.07;-0.03176499158143997;-0.04642575979232788;-0.0024434609804302454
01:00:0A:00:00:00:00;1727482369;28/09/24;00:12:49;1.023;-0.001;0.081;-0.03298672288656235;-0.030543262138962746;-0.012217304669320583
01:00:0A:00:00:00:00;1727482370;28/09/24;00:12:50;1.025;0.0;0.078;-0.04398229718208313;-0.0036651913542300463;0.0012217304902151227
01:00:0A:00:00:00:00;1727482371;28/09/24;00:12:51;1.018;-0.001;0.078;-0.04764748737215996;0.006108652334660292;-0.0012217304902151227
01:00:0A:00:00:00:00;1727482372;28/09/24;00:12:52;1.018;0.0;0.065;-0.04886921867728233;-0.019547687843441963;-0.004886921960860491
01:00:0A:00:00:00:00;1727482373;28/09/24;00:12:53;1.018;0.001;0.076;-0.05497787147760391;-0.013439035043120384;-0.004886921960860491
01:00:0A:00:00:00:00;1727482374;28/09/24;00:12:54;1.019;-0.006;0.085;-0.05864306166768074;-0.006108652334660292;-0.004886921960860491
01:00:0A:00:00:00:00;1727482375;28/09/24;00:12:55;1.012;0.0;0.074;-0.06108652427792549;0.0036651913542300463;-0.0036651913542300463
01:00:0A:00:00:00:00;1727482376;28/09/24;00:12:56;1.004;-0.008;0.063;-0.059864792972803116;-0.009773843921720982;0.0012217304902151227
01:00:0A:00:00:00:00;1727482377;28/09/24;00:12:57;1.007;-0.006;0.062;-0.05497787147760391;-0.02321287989616394;0.0036651913542300463
01:00:0A:00:00:00:00;1727482378;28/09/24;00:12:58;1.016;-0.007;0.076;-0.04764748737215996;-0.04153883829712868;-0.0073303827084600925
01:00:0A:00:00:00:00;1727482379;28/09/24;00:12:59;1.022;-0.004;0.075;-0.05619959905743599;-0.015882495790719986;0.00855211354792118
01:00:0A:00:00:00:00;1727482380;28/09/24;00:13:00;1.017;-0.005;0.081;-0.05497787147760391;-0.0012217304902151227;0.006108652334660292
01:00:0A:00:00:00:00;1727482381;28/09/24;00:13:01;1.016;-0.003;0.069;-0.05375614017248154;-0.00855211354792118;0.004886921960860491
01:00:0A:00:00:00:00;1727482382;28/09/24;00:13:02;1.012;0.0;0.074;-0.05497787147760391;-0.019547687843441963;-0.0036651913542300463
01:00:0A:00:00:00:00;1727482383;28/09/24;00:13:03;1.017;-0.005;0.073;-0.05864306166768074;-0.010995574295520782;0.0024434609804302454
01:00:0A:00:00:00:00;1727482384;28/09/24;00:13:04;1.016;-0.006;0.08;-0.05497787147760391;-0.006108652334660292;-0.006108652334660292
01:00:0A:00:00:00:00;1727482385;28/09/24;00:13:05;1.013;0.0;0.071;-0.059864792972803116;-0.0036651913542300463;0.004886921960860491
01:00:0A:00:00:00:00;1727482386;28/09/24;00:13:06;1.01;-0.006;0.071;-0.06108652427792549;-0.010995574295520782;0.00855211354792118
01:00:0A:00:00:00:00;1727482387;28/09/24;00:13:07;1.012;-0.002;0.073;-0.05253440886735916;-0.021991148591041565;-0.004886921960860491
01:00:0A:00:00:00:00;1727482388;28/09/24;00:13:08;1.015;-0.008;0.075;-0.05375614017248154;-0.02687807008624077;0.006108652334660292
01:00:0A:00:00:00:00;1727482389;28/09/24;00:13:09;1.016;-0.003;0.075;-0.05009094998240471;-0.012217304669320583;0.0012217304902151227
01:00:0A:00:00:00:00;1727482390;28/09/24;00:13:10;1.012;0.003;0.114;0.013439035043120384;0.030543262138962746;0.0
01:00:0A:00:00:00:00;1727482391;28/09/24;00:13:11;1.013;0.009;0.117;0.06963863223791122;-0.04153883829712868;0.009773843921720982
01:00:0A:00:00:00:00;1727482392;28/09/24;00:13:12;1.016;-0.005;0.082;0.11484266817569733;-0.039095375686883926;0.01710422709584236
01:00:0A:00:00:00:00;1727482393;28/09/24;00:13:13;1.023;-0.011;0.063;0.11362093687057495;-0.006108652334660292;-0.0024434609804302454
01:00:0A:00:00:00:00;1727482394;28/09/24;00:13:14;1.019;0.0;0.085;0.10751228034496307;0.024434609338641167;-0.00855211354792118
01:00:0A:00:00:00:00;1727482395;28/09/24;00:13:15;1.016;0.0;0.079;0.08674286305904388;-0.018325956538319588;0.02076941914856434
01:00:0A:00:00:00:00;1727482396;28/09/24;00:13:16;1.015;-0.01;0.064;0.08674286305904388;-0.014660765416920185;0.013439035043120384
01:00:0A:00:00:00:00;1727482397;28/09/24;00:13:17;1.016;0.0;0.077;0.08918632566928864;-0.0036651913542300463;-0.006108652334660292
01:00:0A:00:00:00:00;1727482398;28/09/24;00:13:18;1.016;0.002;0.081;0.06963863223791122;-0.01710422709584236;0.019547687843441963
01:00:0A:00:00:00:00;1727482399;28/09/24;00:13:19;1.016;-0.009;0.072;0.07208210229873657;-0.00855211354792118;0.0036651913542300463
01:00:0A:00:00:00:00;1727482400;28/09/24;00:13:20;1.014;-0.001;0.071;0.07452555745840073;-0.0024434609804302454;-0.00855211354792118
01:00:0A:00:00:00:00;1727482401;28/09/24;00:13:21;1.014;0.0;0.077;0.06230825558304787;-0.01710422709584236;0.010995574295520782
01:00:0A:00:00:00:00;1727482402;28/09/24;00:13:22;1.018;-0.009;0.072;0.06108652427792549;-0.018325956538319588;0.009773843921720982
01:00:0A:00:00:00:00;1727482403;28/09/24;00:13:23;1.019;-0.006;0.077;0.06841690838336945;0.0;-0.0073303827084600925
01:00:0A:00:00:00:00;1727482404;28/09/24;00:13:24;1.014;-0.001;0.074;0.05864306166768074;0.0012217304902151227;0.0
01:00:0A:00:00:00:00;1727482405;28/09/24;00:13:25;1.007;-0.007;0.072;0.051312677562236786;-0.012217304669320583;0.019547687843441963
01:00:0A:00:00:00:00;1727482406;28/09/24;00:13:26;1.009;-0.008;0.071;0.06108652427792549;-0.01710422709584236;0.0
01:00:0A:00:00:00:00;1727482407;28/09/24;00:13:27;1.016;0.0;0.075;0.05375614017248154;-0.012217304669320583;0.009773843921720982
01:00:0A:00:00:00:00;1727482408;28/09/24;00:13:28;1.017;-0.004;0.077;0.04764748737215996;-0.00855211354792118;0.013439035043120384
01:00:0A:00:00:00:00;1727482409;28/09/24;00:13:29;1.014;-0.006;0.072;0.05375614017248154;-0.006108652334660292;-0.0024434609804302454
01:00:0A:00:00:00:00;1727482410;28/09/24;00:13:30;1.011;0.0;0.072;0.04886921867728233;-0.013439035043120384;0.0012217304902151227
01:00:0A:00:00:00:00;1727482411;28/09/24;00:13:31;1.015;-0.008;0.072;0.045204028487205505;-0.014660765416920185;0.010995574295520782
01:00:0A:00:00:00:00;1727482412;28/09/24;00:13:32;1.019;-0.006;0.079;0.05009094998240471;-0.014660765416920185;0.0036651913542300463
01:00:0A:00:00:00:00;1727482413;28/09/24;00:13:33;1.018;-0.005;0.073;0.051312677562236786;-0.0036651913542300463;0.0012217304902151227
01:00:0A:00:00:00:00;1727482414;28/09/24;00:13:34;1.012;-0.002;0.076;0.04642575979232788;-0.0036651913542300463;0.013439035043120384
01:00:0A:00:00:00:00;1727482415;28/09/24;00:13:35;1.01;-0.006;0.072;0.051312677562236786;-0.013439035043120384;0.004886921960860491
01:00:0A:00:00:00:00;1727482416;28/09/24;00:13:36;1.016;-0.003;0.075;0.05253440886735916;-0.01710422709584236;0.006108652334660292
01:00:0A:00:00:00:00;1727482417;28/09/24;00:13:37;1.02;0.0;0.074;0.051312677562236786;-0.006108652334660292;0.0036651913542300463
01:00:0A:00:00:00:00;1727482418;28/09/24;00:13:38;1.016;-0.003;0.077;0.051312677562236786;-0.0036651913542300463;0.004886921960860491
01:00:0A:00:00:00:00;1727482419;28/09/24;00:13:39;1.012;-0.001;0.069;0.05253440886735916;-0.013439035043120384;0.0012217304902151227
01:00:0A:00:00:00:00;1727482420;28/09/24;00:13:40;1.013;-0.001;0.073;0.05009094998240471;-0.012217304669320583;0.0012217304902151227
01:00:0A:00:00:00:00;1727482421;28/09/24;00:13:41;1.017;-0.003;0.075;0.04642575979232788;-0.014660765416920185;0.0073303827084600925
01:00:0A:00:00:00:00;1727482422;28/09/24;00:13:42;1.018;-0.002;0.076;0.04886921867728233;-0.009773843921720982;-0.0024434609804302454
01:00:0A:00:00:00:00;1727482423;28/09/24;00:13:43;1.015;-0.002;0.072;0.042760565876960754;-0.009773843921720982;0.009773843921720982
01:00:0A:00:00:00:00;1727482424;28/09/24;00:13:44;1.013;-0.001;0.076;0.042760565876960754;-0.0073303827084600925;0.0024434609804302454
01:00:0A:00:00:00:00;1727482425;28/09/24;00:13:45;1.016;-0.003;0.073;0.03787364438176155;-0.018325956538319588;0.009773843921720982
01:00:0A:00:00:00:00;1727482426;28/09/24;00:13:46;1.021;0.0;0.073;0.039095375686883926;-0.0073303827084600925;0.0
01:00:0A:00:00:00:00;1727482427;28/09/24;00:13:47;1.016;-0.002;0.073;0.0354301817715168;-0.006108652334660292;0.0036651913542300463
01:00:0A:00:00:00:00;1727482428;28/09/24;00:13:48;1.01;-0.002;0.071;0.0354301817715168;-0.00855211354792118;0.0036651913542300463
01:00:0A:00:00:00:00;1727482429;28/09/24;00:13:49;1.009;-0.006;0.07;0.0354301817715168;-0.02321287989616394;0.006108652334660292
01:00:0A:00:00:00:00;1727482430;28/09/24;00:13:50;1.016;-0.004;0.074;0.0354301817715168;-0.01710422709584236;0.0036651913542300463
01:00:0A:00:00:00:00;1727482431;28/09/24;00:13:51;1.019;-0.003;0.078;0.03420845419168472;-0.014660765416920185;0.0036651913542300463
01:00:0A:00:00:00:00;1727482432;28/09/24;00:13:52;1.019;-0.005;0.074;0.03298672288656235;-0.006108652334660292;0.006108652334660292
01:00:0A:00:00:00:00;1727482433;28/09/24;00:13:53;1.015;-0.002;0.074;0.03420845419168472;-0.0073303827084600925;0.0024434609804302454
01:00:0A:00:00:00:00;1727482434;28/09/24;00:13:54;1.016;-0.006;0.075;0.03420845419168472;-0.014660765416920185;0.006108652334660292
01:00:0A:00:00:00:00;1727482435;28/09/24;00:13:55;1.018;-0.001;0.076;0.03176499158143997;-0.012217304669320583;0.00855211354792118
01:00:0A:00:00:00:00;1727482436;28/09/24;00:13:56;1.019;-0.004;0.076;0.03298672288656235;-0.0036651913542300463;0.0012217304902151227
01:00:0A:00:00:00:00;1727482437;28/09/24;00:13:57;1.015;-0.001;0.074;0.03176499158143997;-0.0036651913542300463;0.0012217304902151227
01:00:0A:00:00:00:00;1727482438;28/09/24;00:13:58;1.009;-0.005;0.072;0.02932153083384037;-0.014660765416920185;0.004886921960860491
01:00:0A:00:00:00:00;1727482439;28/09/24;00:13:59;1.014;-0.004;0.074;0.028099799528717995;-0.018325956538319588;0.0073303827084600925
01:00:0A:00:00:00:00;1727482440;28/09/24;00:14:00;1.017;-0.001;0.075;0.028099799528717995;-0.015882495790719986;0.0024434609804302454
01:00:0A:00:00:00:00;1727482441;28/09/24;00:14:01;1.017;-0.002;0.075;0.024434609338641167;-0.00855211354792118;0.0024434609804302454
01:00:0A:00:00:00:00;1727482442;28/09/24;00:14:02;1.016;-0.003;0.072;0.021991148591041565;-0.006108652334660292;0.0024434609804302454
01:00:0A:00:00:00:00;1727482443;28/09/24;00:14:03;1.016;-0.004;0.074;0.019547687843441963;-0.010995574295520782;0.0024434609804302454
01:00:0A:00:00:00:00;1727482444;28/09/24;00:14:04;1.016;0.0;0.074;0.015882495790719986;-0.009773843921720982;0.0073303827084600925
01:00:0A:00:00:00:00;1727482445;28/09/24;00:14:05;1.016;-0.003;0.073;0.014660765416920185;-0.006108652334660292;0.0012217304902151227
01:00:0A:00:00:00:00;1727482446;28/09/24;00:14:06;1.012;-0.002;0.073;0.013439035043120384;-0.006108652334660292;-0.0012217304902151227
01:00:0A:00:00:00:00;1727482447;28/09/24;00:14:07;1.012;-0.005;0.07;0.010995574295520782;-0.013439035043120384;0.0012217304902151227
01:00:0A:00:00:00:00;1727482448;28/09/24;00:14:08;1.013;-0.003;0.073;0.0073303827084600925;-0.015882495790719986;0.00855211354792118
01:00:0A:00:00:00:00;1727482449;28/09/24;00:14:09;1.016;-0.001;0.073;0.006108652334660292;-0.014660765416920185;0.0036651913542300463
01:00:0A:00:00:00:00;1727482450;28/09/24;00:14:10;1.017;0.0;0.075;0.0036651913542300463;-0.010995574295520782;-0.0012217304902151227
01:00:0A:00:00:00:00;1727482451;28/09/24;00:14:11;1.016;-0.004;0.073;-0.0012217304902151227;-0.0073303827084600925;0.0024434609804302454
01:00:0A:00:00:00:00;1727482452;28/09/24;00:14:12;1.016;-0.003;0.071;-0.0012217304902151227;-0.009773843921720982;-0.0012217304902151227
01:00:0A:00:00:00:00;1727482453;28/09/24;00:14:13;1.015;-0.003;0.073;-0.0073303827084600925;-0.012217304669320583;0.0073303827084600925
01:00:0A:00:00:00:00;1727482454;28/09/24;00:14:14;1.016;-0.001;0.073;-0.0073303827084600925;-0.013439035043120384;0.0
01:00:0A:00:00:00:00;1727482455;28/09/24;00:14:15;1.015;-0.003;0.073;-0.010995574295520782;-0.00855211354792118;0.0012217304902151227
01:00:0A:00:00:00:00;1727482456;28/09/24;00:14:16;1.014;-0.002;0.071;-0.010995574295520782;-0.009773843921720982;-0.006108652334660292
01:00:0A:00:00:00:00;1727482457;28/09/24;00:14:17;1.014;-0.004;0.072;-0.015882495790719986;-0.01710422709584236;0.0073303827084600925
01:00:0A:00:00:00:00;1727482458;28/09/24;00:14:18;1.016;-0.002;0.073;-0.014660765416920185;-0.013439035043120384;0.0012217304902151227
01:00:0A:00:00:00:00;1727482459;28/09/24;00:14:19;1.017;-0.001;0.073;-0.01710422709584236;-0.014660765416920185;0.004886921960860491
01:00:0A:00:00:00:00;1727482460;28/09/24;00:14:20;1.017;-0.002;0.073;-0.01710422709584236;-0.00855211354792118;-0.0012217304902151227
01:00:0A:00:00:00:00;1727482461;28/09/24;00:14:21;1.016;-0.004;0.072;-0.018325956538319588;-0.009773843921720982;0.0
01:00:0A:00:00:00:00;1727482462;28/09/24;00:14:22;1.016;-0.005;0.072;-0.01710422709584236;-0.009773843921720982;0.0012217304902151227
01:00:0A:00:00:00:00;1727482463;28/09/24;00:14:23;1.016;-0.004;0.072;-0.018325956538319588;-0.013439035043120384;0.004886921960860491
01:00:0A:00:00:00:00;1727482464;28/09/24;00:14:24;1.016;-0.004;0.073;-0.015882495790719986;-0.012217304669320583;0.0012217304902151227
01:00:0A:00:00:00:00;1727482465;28/09/24;00:14:25;1.015;-0.001;0.072;-0.014660765416920185;-0.00855211354792118;0.0
01:00:0A:00:00:00:00;1727482466;28/09/24;00:14:26;1.015;-0.007;0.072;-0.012217304669320583;-0.012217304669320583;0.0
01:00:0A:00:00:00:00;1727482467;28/09/24;00:14:27;1.013;-0.005;0.072;-0.012217304669320583;-0.010995574295520782;0.0036651913542300463
01:00:0A:00:00:00:00;1727482468;28/09/24;00:14:28;1.016;-0.004;0.072;-0.009773843921720982;-0.012217304669320583;0.0036651913542300463
01:00:0A:00:00:00:00;1727482469;28/09/24;00:14:29;1.015;-0.003;0.074;-0.009773843921720982;-0.010995574295520782;0.0024434609804302454
01:00:0A:00:00:00:00;1727482470;28/09/24;00:14:30;1.016;-0.004;0.07;-0.00855211354792118;-0.010995574295520782;0.0
01:00:0A:00:00:00:00;1727482471;28/09/24;00:14:31;1.015;-0.005;0.072;-0.0073303827084600925;-0.009773843921720982;-0.0012217304902151227
01:00:0A:00:00:00:00;1727482472;28/09/24;00:14:32;1.016;0.016;0.026;-0.16859880089759827;-0.1062905490398407;-0.04886921867728233
01:00:0A:00:00:00:00;1727482473;28/09/24;00:14:33;1.016;0.027;0.012;-0.2638937830924988;-0.019547687843441963;0.018325956538319588
01:00:0A:00:00:00:00;1727482474;28/09/24;00:14:34;1.017;-0.01;0.039;-0.2773328125476837;0.036651913076639175;0.04886921867728233
01:00:0A:00:00:00:00;1727482475;28/09/24;00:14:35;1.014;-0.028;0.087;-0.2125810980796814;0.03787364438176155;-0.02932153083384037
01:00:0A:00:00:00:00;1727482476;28/09/24;00:14:36;1.014;0.014;0.087;-0.19425514340400696;-0.05375614017248154;-0.04398229718208313
01:00:0A:00:00:00:00;1727482477;28/09/24;00:14:37;1.016;0.013;0.048;-0.23335053026676178;-0.040317103266716;0.030543262138962746
01:00:0A:00:00:00:00;1727482478;28/09/24;00:14:38;1.016;-0.026;0.067;-0.2174680233001709;0.02321287989616394;0.0036651913542300463
01:00:0A:00:00:00:00;1727482479;28/09/24;00:14:39;1.015;0.0;0.094;-0.18570303916931152;-0.0073303827084600925;-0.04764748737215996
01:00:0A:00:00:00:00;1727482480;28/09/24;00:14:40;1.016;0.014;0.067;-0.2125810980796814;-0.04642575979232788;0.006108652334660292
01:00:0A:00:00:00:00;1727482481;28/09/24;00:14:41;1.016;-0.011;0.054;-0.21868975460529327;-0.0012217304902151227;0.02076941914856434
01:00:0A:00:00:00:00;1727482482;28/09/24;00:14:42;1.014;-0.012;0.085;-0.18814648687839508;0.014660765416920185;-0.03176499158143997
01:00:0A:00:00:00:00;1727482483;28/09/24;00:14:43;1.016;0.009;0.081;-0.18814648687839508;-0.04153883829712868;-0.02076941914856434
01:00:0A:00:00:00:00;1727482484;28/09/24;00:14:44;1.016;-0.002;0.058;-0.20525071024894714;-0.021991148591041565;0.021991148591041565
01:00:0A:00:00:00:00;1727482485;28/09/24;00:14:45;1.015;-0.013;0.074;-0.18448130786418915;0.015882495790719986;-0.00855211354792118
01:00:0A:00:00:00:00;1727482486;28/09/24;00:14:46;1.014;0.0;0.085;-0.16982054710388184;-0.02321287989616394;-0.025656338781118393
01:00:0A:00:00:00:00;1727482487;28/09/24;00:14:47;1.016;0.001;0.063;-0.18081611394882202;-0.030543262138962746;0.0024434609804302454
01:00:0A:00:00:00:00;1727482488;28/09/24;00:14:48;1.016;-0.013;0.064;-0.1771509200334549;0.0024434609804302454;0.004886921960860491
01:00:0A:00:00:00:00;1727482489;28/09/24;00:14:49;1.016;-0.008;0.083;-0.1576032191514969;-0.006108652334660292;-0.01710422709584236
01:00:0A:00:00:00:00;1727482490;28/09/24;00:14:50;1.016;0.001;0.074;-0.1563815027475357;-0.0354301817715168;-0.00855211354792118
01:00:0A:00:00:00:00;1727482491;28/09/24;00:14:51;1.016;-0.006;0.062;-0.16249015927314758;-0.004886921960860491;0.009773843921720982
01:00:0A:00:00:00:00;1727482492;28/09/24;00:14:52;1.015;-0.01;0.078;-0.14538592100143433;0.0;-0.012217304669320583
01:00:0A:00:00:00:00;1727482493;28/09/24;00:14:53;1.016;0.0;0.073;-0.13805554807186127;-0.02687807008624077;-0.014660765416920185
