Source;Epoch timestamp (UTC);Date;Time (UTC);Accel X (G);Accel Y (G);Accel Z (G);Gyro X (rad/s);Gyro Y (rad/s);Gyro Z (rad/s)
01:00:0A:00:00:00:00;1727567994;28/09/24;23:59:54;1.039;0.016;0.078;-0.0012217304902151227;0.010995574295520782;-0.0036651913542300463
01:00:0A:00:00:00:00;1727567995;28/09/24;23:59:55;1.02;0.012;0.082;-0.00855211354792118;0.004886921960860491;0.009773843921720982
01:00:0A:00:00:00:00;1727567996;28/09/24;23:59:56;1.007;0.006;0.067;-0.0024434609804302454;-0.0012217304902151227;-0.0024434609804302454
01:00:0A:00:00:00:00;1727567997;28/09/24;23:59:57;0.99;0.01;0.073;0.0012217304902151227;0.0024434609804302454;-0.010995574295520782
01:00:0A:00:00:00:00;1727567998;28/09/24;23:59:58;0.993;0.008;0.077;-0.004886921960860491;-0.045204028487205505;0.02321287989616394
01:00:0A:00:00:00:00;1727567999;28/09/24;23:59:59;1.016;0.0;0.064;0.0024434609804302454;-0.040317103266716;0.014660765416920185
01:00:0A:00:00:00:00;1727568000;29/09/24;00:00:00;1.024;0.014;0.078;0.006108652334660292;-0.013439035043120384;0.0012217304902151227
01:00:0A:00:00:00:00;1727568001;29/09/24;00:00:01;1.031;0.017;0.09;-0.0012217304902151227;-0.02076941914856434;0.0073303827084600925
01:00:0A:00:00:00:00;1727568002;29/09/24;00:00:02;1.027;0.004;0.071;-0.0012217304902151227;-0.010995574295520782;0.006108652334660292
01:00:0A:00:00:00:00;1727568003;29/09/24;00:00:03;1.018;0.014;0.08;0.0012217304902151227;0.02932153083384037;-0.012217304669320583
01:00:0A:00:00:00:00;1727568004;29/09/24;00:00:04;1.009;0.017;0.078;-0.004886921960860491;0.006108652334660292;0.006108652334660292
01:00:0A:00:00:00:00;1727568005;29/09/24;00:00:05;1.009;0.004;0.059;-0.0036651913542300463;-0.01710422709584236;0.006108652334660292
01:00:0A:00:00:00:00;1727568006;29/09/24;00:00:06;1.005;0.006;0.062;0.0;-0.004886921960860491;-0.0073303827084600925
01:00:0A:00:00:00:00;1727568007;29/09/24;00:00:07;1.004;0.011;0.077;-0.0024434609804302454;-0.03787364438176155;0.00855211354792118
01:00:0A:00:00:00:00;1727568008;29/09/24;00:00:08;1.015;0.002;0.07;-0.0024434609804302454;-0.045204028487205505;0.014660765416920185
01:00:0A:00:00:00:00;1727568009;29/09/24;00:00:09;1.022;0.004;0.071;0.0;0.0012217304902151227;0.006108652334660292
01:00:0A:00:00:00:00;1727568010;29/09/24;00:00:10;1.026;0.019;0.088;-0.0024434609804302454;0.009773843921720982;0.012217304669320583
01:00:0A:00:00:00:00;1727568011;29/09/24;00:00:11;1.021;0.012;0.071;0.004886921960860491;-0.013439035043120384;0.0036651913542300463
01:00:0A:00:00:00:00;1727568012;29/09/24;00:00:12;1.016;0.01;0.064;0.015882495790719986;0.009773843921720982;-0.02321287989616394
01:00:0A:00:00:00:00;1727568013;29/09/24;00:00:13;1.008;0.011;0.08;0.015882495790719986;0.0012217304902151227;-0.014660765416920185
01:00:0A:00:00:00:00;1727568014;29/09/24;00:00:14;1.007;0.0;0.076;0.015882495790719986;-0.028099799528717995;0.009773843921720982
01:00:0A:00:00:00:00;1727568015;29/09/24;00:00:15;1.01;0.0;0.068;0.02321287989616394;-0.004886921960860491;0.0024434609804302454
01:00:0A:00:00:00:00;1727568016;29/09/24;00:00:16;1.013;0.013;0.079;0.02076941914856434;-0.0012217304902151227;0.012217304669320583
01:00:0A:00:00:00:00;1727568017;29/09/24;00:00:17;1.015;0.011;0.073;0.021991148591041565;-0.025656338781118393;0.010995574295520782
01:00:0A:00:00:00:00;1727568018;29/09/24;00:00:18;1.015;0.005;0.063;0.03176499158143997;-0.015882495790719986;-0.012217304669320583
01:00:0A:00:00:00:00;1727568019;29/09/24;00:00:19;1.014;0.011;0.077;0.030543262138962746;-0.012217304669320583;-0.004886921960860491
01:00:0A:00:00:00:00;1727568020;29/09/24;00:00:20;1.019;0.008;0.085;0.025656338781118393;-0.025656338781118393;0.019547687843441963
01:00:0A:00:00:00:00;1727568021;29/09/24;00:00:21;1.023;0.003;0.072;0.03298672288656235;-0.004886921960860491;0.0073303827084600925
01:00:0A:00:00:00:00;1727568022;29/09/24;00:00:22;1.022;0.014;0.076;0.036651913076639175;0.01710422709584236;-0.006108652334660292
01:00:0A:00:00:00:00;1727568023;29/09/24;00:00:23;1.021;0.01;0.077;0.030543262138962746;0.0;0.010995574295520782
01:00:0A:00:00:00:00;1727568024;29/09/24;00:00:24;1.012;0.004;0.067;0.03787364438176155;-0.012217304669320583;0.0012217304902151227
01:00:0A:00:00:00:00;1727568025;29/09/24;00:00:25;1.007;0.009;0.071;0.04153883829712868;0.0;-0.006108652334660292
01:00:0A:00:00:00:00;1727568026;29/09/24;00:00:26;1.006;0.008;0.076;0.036651913076639175;-0.025656338781118393;0.018325956538319588
01:00:0A:00:00:00:00;1727568027;29/09/24;00:00:27;1.011;0.0;0.069;0.04153883829712868;-0.02932153083384037;0.013439035043120384
01:00:0A:00:00:00:00;1727568028;29/09/24;00:00:28;1.019;0.012;0.075;0.04642575979232788;-0.015882495790719986;0.0036651913542300463
01:00:0A:00:00:00:00;1727568029;29/09/24;00:00:29;1.024;0.017;0.082;0.040317103266716;-0.006108652334660292;0.0036651913542300463
01:00:0A:00:00:00:00;1727568030;29/09/24;00:00:30;1.023;0.006;0.074;0.042760565876960754;-0.004886921960860491;0.0024434609804302454
01:00:0A:00:00:00:00;1727568031;29/09/24;00:00:31;1.017;0.012;0.072;0.04764748737215996;0.006108652334660292;-0.010995574295520782
01:00:0A:00:00:00:00;1727568032;29/09/24;00:00:32;1.014;0.015;0.077;0.039095375686883926;0.0012217304902151227;0.0024434609804302454
01:00:0A:00:00:00:00;1727568033;29/09/24;00:00:33;1.01;0.004;0.071;0.039095375686883926;-0.010995574295520782;0.004886921960860491
01:00:0A:00:00:00:00;1727568034;29/09/24;00:00:34;1.009;0.006;0.068;0.045204028487205505;-0.010995574295520782;-0.006108652334660292
01:00:0A:00:00:00:00;1727568035;29/09/24;00:00:35;1.013;0.011;0.072;0.036651913076639175;-0.018325956538319588;0.013439035043120384
01:00:0A:00:00:00:00;1727568036;29/09/24;00:00:36;1.017;0.007;0.075;0.036651913076639175;-0.021991148591041565;0.013439035043120384
01:00:0A:00:00:00:00;1727568037;29/09/24;00:00:37;1.022;0.009;0.076;0.04398229718208313;-0.009773843921720982;-0.006108652334660292
01:00:0A:00:00:00:00;1727568038;29/09/24;00:00:38;1.019;0.014;0.076;0.036651913076639175;0.0036651913542300463;-0.0012217304902151227
01:00:0A:00:00:00:00;1727568039;29/09/24;00:00:39;1.015;0.006;0.074;0.03420845419168472;0.0012217304902151227;0.0073303827084600925
01:00:0A:00:00:00:00;1727568040;29/09/24;00:00:40;1.01;0.007;0.069;0.042760565876960754;-0.010995574295520782;-0.010995574295520782
01:00:0A:00:00:00:00;1727568041;29/09/24;00:00:41;1.011;0.011;0.068;0.03787364438176155;-0.019547687843441963;0.0
01:00:0A:00:00:00:00;1727568042;29/09/24;00:00:42;1.017;0.004;0.078;0.03298672288656235;-0.02076941914856434;0.015882495790719986
01:00:0A:00:00:00:00;1727568043;29/09/24;00:00:43;1.021;0.004;0.079;0.040317103266716;-0.015882495790719986;0.0024434609804302454
01:00:0A:00:00:00:00;1727568044;29/09/24;00:00:44;1.018;0.015;0.078;0.0354301817715168;0.0073303827084600925;0.004886921960860491
01:00:0A:00:00:00:00;1727568045;29/09/24;00:00:45;1.014;0.007;0.073;0.02932153083384037;0.012217304669320583;0.012217304669320583
01:00:0A:00:00:00:00;1727568046;29/09/24;00:00:46;1.009;0.005;0.067;0.039095375686883926;-0.010995574295520782;-0.0024434609804302454
01:00:0A:00:00:00:00;1727568047;29/09/24;00:00:47;1.01;0.016;0.066;0.039095375686883926;-0.03298672288656235;0.0
01:00:0A:00:00:00:00;1727568048;29/09/24;00:00:48;1.013;0.01;0.075;0.03176499158143997;-0.03298672288656235;0.010995574295520782
01:00:0A:00:00:00:00;1727568049;29/09/24;00:00:49;1.018;0.003;0.086;0.03787364438176155;-0.014660765416920185;-0.0024434609804302454
01:00:0A:00:00:00:00;1727568050;29/09/24;00:00:50;1.019;0.011;0.081;0.0354301817715168;-0.0024434609804302454;0.0
01:00:0A:00:00:00:00;1727568051;29/09/24;00:00:51;1.019;0.01;0.073;0.024434609338641167;0.012217304669320583;0.014660765416920185
01:00:0A:00:00:00:00;1727568052;29/09/24;00:00:52;1.019;0.004;0.071;0.03298672288656235;-0.0024434609804302454;-0.0024434609804302454
01:00:0A:00:00:00:00;1727568053;29/09/24;00:00:53;1.016;0.013;0.068;0.0354301817715168;-0.02076941914856434;-0.004886921960860491
01:00:0A:00:00:00:00;1727568054;29/09/24;00:00:54;1.014;0.011;0.074;0.02321287989616394;-0.015882495790719986;0.01710422709584236
01:00:0A:00:00:00:00;1727568055;29/09/24;00:00:55;1.012;0.005;0.082;0.030543262138962746;-0.010995574295520782;0.0024434609804302454
01:00:0A:00:00:00:00;1727568056;29/09/24;00:00:56;1.012;0.013;0.075;0.03420845419168472;-0.006108652334660292;-0.010995574295520782
01:00:0A:00:00:00:00;1727568057;29/09/24;00:00:57;1.013;0.009;0.069;0.02076941914856434;0.0024434609804302454;0.013439035043120384
01:00:0A:00:00:00:00;1727568058;29/09/24;00:00:58;1.017;0.002;0.068;0.025656338781118393;-0.015882495790719986;0.009773843921720982
01:00:0A:00:00:00:00;1727568059;29/09/24;00:00:59;1.018;0.012;0.068;0.03176499158143997;-0.02932153083384037;-0.0012217304902151227
01:00:0A:00:00:00:00;1727568060;29/09/24;00:01:00;1.014;0.013;0.074;0.018325956538319588;-0.018325956538319588;0.018325956538319588
01:00:0A:00:00:00:00;1727568061;29/09/24;00:01:01;1.016;0.004;0.082;0.02076941914856434;-0.010995574295520782;0.006108652334660292
01:00:0A:00:00:00:00;1727568062;29/09/24;00:01:02;1.019;0.01;0.077;0.028099799528717995;-0.0073303827084600925;-0.012217304669320583
01:00:0A:00:00:00:00;1727568063;29/09/24;00:01:03;1.021;0.013;0.07;0.014660765416920185;0.0024434609804302454;0.006108652334660292
01:00:0A:00:00:00:00;1727568064;29/09/24;00:01:04;1.015;-0.001;0.072;0.014660765416920185;-0.0012217304902151227;0.010995574295520782
01:00:0A:00:00:00:00;1727568065;29/09/24;00:01:05;1.007;0.008;0.071;0.025656338781118393;-0.02932153083384037;-0.0036651913542300463
01:00:0A:00:00:00:00;1727568066;29/09/24;00:01:06;1.006;0.017;0.069;0.010995574295520782;-0.02076941914856434;0.01710422709584236
01:00:0A:00:00:00:00;1727568067;29/09/24;00:01:07;1.016;0.005;0.079;0.010995574295520782;-0.014660765416920185;0.00855211354792118
01:00:0A:00:00:00:00;1727568068;29/09/24;00:01:08;1.019;0.009;0.076;0.02321287989616394;-0.018325956538319588;-0.01710422709584236
01:00:0A:00:00:00:00;1727568069;29/09/24;00:01:09;1.022;0.014;0.069;0.00855211354792118;-0.006108652334660292;0.0024434609804302454
01:00:0A:00:00:00:00;1727568070;29/09/24;00:01:10;1.021;0.0;0.077;0.0036651913542300463;-0.0012217304902151227;0.013439035043120384
01:00:0A:00:00:00:00;1727568071;29/09/24;00:01:11;1.015;0.006;0.077;0.018325956538319588;-0.013439035043120384;-0.0073303827084600925
01:00:0A:00:00:00:00;1727568072;29/09/24;00:01:12;1.012;0.019;0.07;0.00855211354792118;-0.00855211354792118;0.006108652334660292
01:00:0A:00:00:00:00;1727568073;29/09/24;00:01:13;1.014;0.007;0.075;0.0024434609804302454;0.0;0.013439035043120384
01:00:0A:00:00:00:00;1727568074;29/09/24;00:01:14;1.018;0.004;0.075;0.02076941914856434;-0.014660765416920185;-0.015882495790719986
01:00:0A:00:00:00:00;1727568075;29/09/24;00:01:15;1.018;0.017;0.067;0.012217304669320583;-0.010995574295520782;-0.0036651913542300463
01:00:0A:00:00:00:00;1727568076;29/09/24;00:01:16;1.015;0.003;0.074;0.0036651913542300463;-0.0036651913542300463;0.015882495790719986
01:00:0A:00:00:00:00;1727568077;29/09/24;00:01:17;1.013;0.001;0.078;0.02321287989616394;-0.018325956538319588;-0.010995574295520782
01:00:0A:00:00:00:00;1727568078;29/09/24;00:01:18;1.013;0.013;0.072;0.01710422709584236;-0.014660765416920185;0.0036651913542300463
01:00:0A:00:00:00:00;1727568079;29/09/24;00:01:19;1.016;0.004;0.075;0.004886921960860491;-0.0012217304902151227;0.025656338781118393
01:00:0A:00:00:00:00;1727568080;29/09/24;00:01:20;1.018;0.002;0.076;0.02321287989616394;-0.01710422709584236;-0.006108652334660292
01:00:0A:00:00:00:00;1727568081;29/09/24;00:01:21;1.018;0.016;0.069;0.021991148591041565;-0.021991148591041565;-0.00855211354792118
01:00:0A:00:00:00:00;1727568082;29/09/24;00:01:22;1.016;0.007;0.075;0.006108652334660292;0.0;0.019547687843441963
01:00:0A:00:00:00:00;1727568083;29/09/24;00:01:23;1.014;0.0;0.08;0.018325956538319588;-0.006108652334660292;0.0
01:00:0A:00:00:00:00;1727568084;29/09/24;00:01:24;1.013;0.016;0.067;0.018325956538319588;-0.010995574295520782;-0.0024434609804302454
01:00:0A:00:00:00:00;1727568085;29/09/24;00:01:25;1.014;0.009;0.067;0.0024434609804302454;0.0;0.019547687843441963
01:00:0A:00:00:00:00;1727568086;29/09/24;00:01:26;1.015;0.0;0.076;0.01710422709584236;-0.01710422709584236;-0.0024434609804302454
01:00:0A:00:00:00:00;1727568087;29/09/24;00:01:27;1.014;0.014;0.069;0.02076941914856434;-0.02687807008624077;-0.0036651913542300463
01:00:0A:00:00:00:00;1727568088;29/09/24;00:01:28;1.014;0.01;0.072;0.0024434609804302454;-0.004886921960860491;0.02687807008624077
01:00:0A:00:00:00:00;1727568089;29/09/24;00:01:29;1.016;0.0;0.084;0.018325956538319588;-0.00855211354792118;0.0
01:00:0A:00:00:00:00;1727568090;29/09/24;00:01:30;1.019;0.013;0.074;0.02687807008624077;-0.014660765416920185;-0.012217304669320583
01:00:0A:00:00:00:00;1727568091;29/09/24;00:01:31;1.018;0.01;0.069;0.009773843921720982;0.0036651913542300463;0.015882495790719986
01:00:0A:00:00:00:00;1727568092;29/09/24;00:01:32;1.016;0.0;0.078;0.02076941914856434;-0.006108652334660292;0.004886921960860491
01:00:0A:00:00:00:00;1727568093;29/09/24;00:01:33;1.014;0.011;0.071;0.03420845419168472;-0.025656338781118393;-0.010995574295520782
01:00:0A:00:00:00:00;1727568094;29/09/24;00:01:34;1.012;0.013;0.07;0.015882495790719986;-0.004886921960860491;0.02076941914856434
01:00:0A:00:00:00:00;1727568095;29/09/24;00:01:35;1.014;0.0;0.081;0.025656338781118393;-0.006108652334660292;0.0073303827084600925
01:00:0A:00:00:00:00;1727568096;29/09/24;00:01:36;1.018;0.009;0.074;0.040317103266716;-0.02321287989616394;-0.014660765416920185
01:00:0A:00:00:00:00;1727568097;29/09/24;00:01:37;1.018;0.01;0.067;0.02321287989616394;-0.0073303827084600925;0.012217304669320583
01:00:0A:00:00:00:00;1727568098;29/09/24;00:01:38;1.016;-0.001;0.08;0.024434609338641167;0.0024434609804302454;0.015882495790719986
01:00:0A:00:00:00:00;1727568099;29/09/24;00:01:39;1.013;0.01;0.074;0.040317103266716;-0.021991148591041565;-0.006108652334660292
01:00:0A:00:00:00:00;1727568100;29/09/24;00:01:40;1.013;0.017;0.064;0.024434609338641167;-0.0073303827084600925;0.012217304669320583
01:00:0A:00:00:00:00;1727568101;29/09/24;00:01:41;1.012;0.002;0.077;0.024434609338641167;0.0;0.004886921960860491
01:00:0A:00:00:00:00;1727568102;29/09/24;00:01:42;1.015;0.006;0.075;0.039095375686883926;-0.028099799528717995;-0.014660765416920185
01:00:0A:00:00:00:00;1727568103;29/09/24;00:01:43;1.02;0.013;0.063;0.02321287989616394;-0.015882495790719986;0.010995574295520782
01:00:0A:00:00:00:00;1727568104;29/09/24;00:01:44;1.02;0.001;0.078;0.019547687843441963;-0.0012217304902151227;0.012217304669320583
01:00:0A:00:00:00:00;1727568105;29/09/24;00:01:45;1.019;0.008;0.081;0.03298672288656235;-0.01710422709584236;-0.0073303827084600925
01:00:0A:00:00:00:00;1727568106;29/09/24;00:01:46;1.016;0.014;0.068;0.021991148591041565;-0.006108652334660292;0.006108652334660292
01:00:0A:00:00:00:00;1727568107;29/09/24;00:01:47;1.013;0.003;0.074;0.015882495790719986;0.014660765416920185;0.010995574295520782
01:00:0A:00:00:00:00;1727568108;29/09/24;00:01:48;1.009;0.003;0.077;0.03298672288656235;-0.02076941914856434;-0.010995574295520782
01:00:0A:00:00:00:00;1727568109;29/09/24;00:01:49;1.011;0.01;0.063;0.024434609338641167;-0.024434609338641167;0.0073303827084600925
01:00:0A:00:00:00:00;1727568110;29/09/24;00:01:50;1.016;0.004;0.07;0.015882495790719986;-0.0036651913542300463;0.01710422709584236
01:00:0A:00:00:00:00;1727568111;29/09/24;00:01:51;1.018;0.004;0.081;0.030543262138962746;-0.025656338781118393;-0.0073303827084600925
01:00:0A:00:00:00:00;1727568112;29/09/24;00:01:52;1.02;0.014;0.067;0.024434609338641167;-0.021991148591041565;0.0012217304902151227
01:00:0A:00:00:00:00;1727568113;29/09/24;00:01:53;1.018;0.003;0.073;0.014660765416920185;0.00855211354792118;0.013439035043120384
01:00:0A:00:00:00:00;1727568114;29/09/24;00:01:54;1.016;0.005;0.081;0.024434609338641167;-0.004886921960860491;-0.004886921960860491
01:00:0A:00:00:00:00;1727568115;29/09/24;00:01:55;1.016;0.013;0.066;0.019547687843441963;-0.01710422709584236;0.0024434609804302454
01:00:0A:00:00:00:00;1727568116;29/09/24;00:01:56;1.013;0.006;0.069;0.00855211354792118;0.0073303827084600925;0.012217304669320583
01:00:0A:00:00:00:00;1727568117;29/09/24;00:01:57;1.009;0.005;0.081;0.018325956538319588;-0.009773843921720982;-0.006108652334660292
01:00:0A:00:00:00:00;1727568118;29/09/24;00:01:58;1.012;0.013;0.069;0.015882495790719986;-0.028099799528717995;0.0024434609804302454
01:00:0A:00:00:00:00;1727568119;29/09/24;00:01:59;1.016;0.007;0.066;0.0036651913542300463;-0.0073303827084600925;0.013439035043120384
01:00:0A:00:00:00:00;1727568120;29/09/24;00:02:00;1.016;0.004;0.082;0.010995574295520782;-0.018325956538319588;-0.0036651913542300463
01:00:0A:00:00:00:00;1727568121;29/09/24;00:02:01;1.02;0.013;0.075;0.00855211354792118;-0.02687807008624077;-0.0024434609804302454
01:00:0A:00:00:00:00;1727568122;29/09/24;00:02:02;1.019;0.008;0.069;-0.004886921960860491;0.0;0.010995574295520782
01:00:0A:00:00:00:00;1727568123;29/09/24;00:02:03;1.015;0.005;0.081;0.0;0.0024434609804302454;-0.004886921960860491
01:00:0A:00:00:00:00;1727568124;29/09/24;00:02:04;1.011;0.011;0.071;0.0012217304902151227;-0.028099799528717995;-0.0024434609804302454
01:00:0A:00:00:00:00;1727568125;29/09/24;00:02:05;1.013;0.009;0.064;-0.013439035043120384;-0.00855211354792118;0.014660765416920185
01:00:0A:00:00:00:00;1727568126;29/09/24;00:02:06;1.016;0.003;0.079;-0.00855211354792118;-0.00855211354792118;0.0
01:00:0A:00:00:00:00;1727568127;29/09/24;00:02:07;1.018;0.014;0.075;-0.004886921960860491;-0.030543262138962746;-0.00855211354792118
01:00:0A:00:00:00:00;1727568128;29/09/24;00:02:08;1.016;0.009;0.067;-0.018325956538319588;-0.009773843921720982;0.00855211354792118
01:00:0A:00:00:00:00;1727568129;29/09/24;00:02:09;1.014;0.001;0.081;-0.015882495790719986;0.0024434609804302454;0.0012217304902151227
01:00:0A:00:00:00:00;1727568130;29/09/24;00:02:10;1.015;0.009;0.078;-0.00855211354792118;-0.02321287989616394;-0.004886921960860491
01:00:0A:00:00:00:00;1727568131;29/09/24;00:02:11;1.018;0.011;0.065;-0.021991148591041565;-0.012217304669320583;0.012217304669320583
01:00:0A:00:00:00:00;1727568132;29/09/24;00:02:12;1.02;0.003;0.079;-0.02076941914856434;0.004886921960860491;0.0036651913542300463
01:00:0A:00:00:00:00;1727568133;29/09/24;00:02:13;1.02;0.011;0.079;-0.010995574295520782;-0.014660765416920185;-0.010995574295520782
01:00:0A:00:00:00:00;1727568134;29/09/24;00:02:14;1.014;0.014;0.065;-0.02076941914856434;-0.012217304669320583;0.0036651913542300463
01:00:0A:00:00:00:00;1727568135;29/09/24;00:02:15;1.009;0.003;0.074;-0.02321287989616394;-0.0012217304902151227;0.00855211354792118
01:00:0A:00:00:00:00;1727568136;29/09/24;00:02:16;1.009;0.008;0.08;-0.009773843921720982;-0.025656338781118393;-0.009773843921720982
01:00:0A:00:00:00:00;1727568137;29/09/24;00:02:17;1.017;0.015;0.069;-0.019547687843441963;-0.021991148591041565;0.0073303827084600925
01:00:0A:00:00:00:00;1727568138;29/09/24;00:02:18;1.02;0.004;0.074;-0.02321287989616394;-0.0012217304902151227;0.00855211354792118
01:00:0A:00:00:00:00;1727568139;29/09/24;00:02:19;1.019;0.005;0.078;-0.010995574295520782;-0.009773843921720982;-0.012217304669320583
01:00:0A:00:00:00:00;1727568140;29/09/24;00:02:20;1.015;0.013;0.069;-0.018325956538319588;-0.01710422709584236;0.0024434609804302454
01:00:0A:00:00:00:00;1727568141;29/09/24;00:02:21;1.012;0.004;0.07;-0.02687807008624077;-0.0036651913542300463;0.01710422709584236
01:00:0A:00:00:00:00;1727568142;29/09/24;00:02:22;1.014;0.004;0.079;-0.010995574295520782;-0.015882495790719986;-0.009773843921720982
01:00:0A:00:00:00:00;1727568143;29/09/24;00:02:23;1.016;0.016;0.07;-0.015882495790719986;-0.02321287989616394;-0.0036651913542300463
01:00:0A:00:00:00:00;1727568144;29/09/24;00:02:24;1.018;0.005;0.071;-0.02687807008624077;-0.0036651913542300463;0.014660765416920185
01:00:0A:00:00:00:00;1727568145;29/09/24;00:02:25;1.018;0.001;0.079;-0.013439035043120384;-0.009773843921720982;-0.004886921960860491
01:00:0A:00:00:00:00;1727568146;29/09/24;00:02:26;1.014;0.016;0.073;-0.013439035043120384;-0.02076941914856434;-0.004886921960860491
01:00:0A:00:00:00:00;1727568147;29/09/24;00:02:27;1.013;0.008;0.073;-0.02687807008624077;-0.004886921960860491;0.01710422709584236
01:00:0A:00:00:00:00;1727568148;29/09/24;00:02:28;1.013;0.003;0.079;-0.013439035043120384;-0.0073303827084600925;-0.006108652334660292
01:00:0A:00:00:00:00;1727568149;29/09/24;00:02:29;1.016;0.014;0.072;-0.010995574295520782;-0.01710422709584236;-0.00855211354792118
01:00:0A:00:00:00:00;1727568150;29/09/24;00:02:30;1.018;0.01;0.068;-0.024434609338641167;-0.010995574295520782;0.015882495790719986
01:00:0A:00:00:00:00;1727568151;29/09/24;00:02:31;1.018;0.0;0.078;-0.013439035043120384;-0.010995574295520782;0.0
01:00:0A:00:00:00:00;1727568152;29/09/24;00:02:32;1.016;0.014;0.075;-0.00855211354792118;-0.01710422709584236;-0.0073303827084600925
01:00:0A:00:00:00:00;1727568153;29/09/24;00:02:33;1.014;0.014;0.072;-0.024434609338641167;-0.004886921960860491;0.014660765416920185
01:00:0A:00:00:00:00;1727568154;29/09/24;00:02:34;1.015;0.0;0.077;-0.015882495790719986;-0.0024434609804302454;-0.0024434609804302454
01:00:0A:00:00:00:00;1727568155;29/09/24;00:02:35;1.014;0.009;0.073;-0.0073303827084600925;-0.014660765416920185;-0.015882495790719986
01:00:0A:00:00:00:00;1727568156;29/09/24;00:02:36;1.013;0.011;0.068;-0.024434609338641167;-0.012217304669320583;0.019547687843441963
01:00:0A:00:00:00:00;1727568157;29/09/24;00:02:37;1.015;0.0;0.074;-0.018325956538319588;-0.013439035043120384;0.009773843921720982
01:00:0A:00:00:00:00;1727568158;29/09/24;00:02:38;1.016;0.011;0.076;-0.006108652334660292;-0.02076941914856434;-0.014660765416920185
01:00:0A:00:00:00:00;1727568159;29/09/24;00:02:39;1.017;0.015;0.073;-0.021991148591041565;-0.00855211354792118;0.009773843921720982
01:00:0A:00:00:00:00;1727568160;29/09/24;00:02:40;1.018;0.0;0.076;-0.021991148591041565;-0.0024434609804302454;0.00855211354792118
01:00:0A:00:00:00:00;1727568161;29/09/24;00:02:41;1.016;0.009;0.074;-0.006108652334660292;-0.010995574295520782;-0.015882495790719986
01:00:0A:00:00:00:00;1727568162;29/09/24;00:02:42;1.014;0.017;0.07;-0.019547687843441963;-0.013439035043120384;0.0073303827084600925
01:00:0A:00:00:00:00;1727568163;29/09/24;00:02:43;1.012;0.0;0.075;-0.021991148591041565;-0.010995574295520782;0.013439035043120384
01:00:0A:00:00:00:00;1727568164;29/09/24;00:02:44;1.013;0.005;0.076;-0.006108652334660292;-0.014660765416920185;-0.014660765416920185
01:00:0A:00:00:00:00;1727568165;29/09/24;00:02:45;1.014;0.017;0.071;-0.018325956538319588;-0.013439035043120384;0.0073303827084600925
01:00:0A:00:00:00:00;1727568166;29/09/24;00:02:46;1.016;0.001;0.073;-0.02321287989616394;-0.012217304669320583;0.01710422709584236
01:00:0A:00:00:00:00;1727568167;29/09/24;00:02:47;1.017;0.004;0.073;-0.004886921960860491;-0.018325956538319588;-0.010995574295520782
01:00:0A:00:00:00:00;1727568168;29/09/24;00:02:48;1.019;0.021;0.072;-0.014660765416920185;-0.013439035043120384;0.0
01:00:0A:00:00:00:00;1727568169;29/09/24;00:02:49;1.017;0.006;0.075;-0.021991148591041565;-0.006108652334660292;0.014660765416920185
01:00:0A:00:00:00:00;1727568170;29/09/24;00:02:50;1.016;0.002;0.075;-0.004886921960860491;-0.004886921960860491;-0.015882495790719986
01:00:0A:00:00:00:00;1727568171;29/09/24;00:02:51;1.011;0.016;0.071;-0.010995574295520782;-0.006108652334660292;-0.0036651913542300463
01:00:0A:00:00:00:00;1727568172;29/09/24;00:02:52;1.01;0.004;0.071;-0.02321287989616394;-0.010995574295520782;0.02321287989616394
01:00:0A:00:00:00:00;1727568173;29/09/24;00:02:53;1.013;0.001;0.073;-0.004886921960860491;-0.024434609338641167;-0.010995574295520782
01:00:0A:00:00:00:00;1727568174;29/09/24;00:02:54;1.017;0.017;0.074;-0.00855211354792118;-0.018325956538319588;-0.004886921960860491
01:00:0A:00:00:00:00;1727568175;29/09/24;00:02:55;1.019;0.005;0.078;-0.021991148591041565;-0.0073303827084600925;0.019547687843441963
01:00:0A:00:00:00:00;1727568176;29/09/24;00:02:56;1.018;0.0;0.076;-0.0073303827084600925;-0.006108652334660292;-0.004886921960860491
01:00:0A:00:00:00:00;1727568177;29/09/24;00:02:57;1.015;0.017;0.07;-0.006108652334660292;-0.004886921960860491;-0.010995574295520782
01:00:0A:00:00:00:00;1727568178;29/09/24;00:02:58;1.013;0.011;0.072;-0.02076941914856434;-0.010995574295520782;0.018325956538319588
01:00:0A:00:00:00:00;1727568179;29/09/24;00:02:59;1.015;0.0;0.073;-0.0073303827084600925;-0.01710422709584236;-0.004886921960860491
01:00:0A:00:00:00:00;1727568180;29/09/24;00:03:00;1.016;0.014;0.075;-0.0024434609804302454;-0.012217304669320583;-0.013439035043120384
01:00:0A:00:00:00:00;1727568181;29/09/24;00:03:01;1.015;0.009;0.075;-0.019547687843441963;-0.006108652334660292;0.018325956538319588
01:00:0A:00:00:00:00;1727568182;29/09/24;00:03:02;1.013;-0.001;0.074;-0.009773843921720982;-0.010995574295520782;0.004886921960860491
01:00:0A:00:00:00:00;1727568183;29/09/24;00:03:03;1.013;0.013;0.07;-0.0012217304902151227;-0.010995574295520782;-0.00855211354792118
01:00:0A:00:00:00:00;1727568184;29/09/24;00:03:04;1.014;0.015;0.073;-0.015882495790719986;-0.01710422709584236;0.018325956538319588
01:00:0A:00:00:00:00;1727568185;29/09/24;00:03:05;1.018;0.0;0.074;-0.0073303827084600925;-0.01710422709584236;0.0012217304902151227
01:00:0A:00:00:00:00;1727568186;29/09/24;00:03:06;1.021;0.012;0.075;0.0024434609804302454;-0.00855211354792118;-0.01710422709584236
01:00:0A:00:00:00:00;1727568187;29/09/24;00:03:07;1.016;0.014;0.075;-0.012217304669320583;-0.0024434609804302454;0.009773843921720982
01:00:0A:00:00:00:00;1727568188;29/09/24;00:03:08;1.014;-0.001;0.072;-0.00855211354792118;-0.010995574295520782;0.009773843921720982
01:00:0A:00:00:00:00;1727568189;29/09/24;00:03:09;1.015;0.008;0.072;0.0036651913542300463;-0.013439035043120384;-0.012217304669320583
01:00:0A:00:00:00:00;1727568190;29/09/24;00:03:10;1.015;0.016;0.074;-0.010995574295520782;-0.012217304669320583;0.012217304669320583
01:00:0A:00:00:00:00;1727568191;29/09/24;00:03:11;1.016;0.0;0.074;-0.009773843921720982;-0.012217304669320583;0.012217304669320583
01:00:0A:00:00:00:00;1727568192;29/09/24;00:03:12;1.016;0.008;0.072;0.004886921960860491;-0.010995574295520782;-0.015882495790719986
01:00:0A:00:00:00:00;1727568193;29/09/24;00:03:13;1.016;0.017;0.074;-0.0073303827084600925;-0.00855211354792118;0.006108652334660292
01:00:0A:00:00:00:00;1727568194;29/09/24;00:03:14;1.016;0.002;0.074;-0.010995574295520782;-0.013439035043120384;0.014660765416920185
01:00:0A:00:00:00:00;1727568195;29/09/24;00:03:15;1.017;0.004;0.071;0.0036651913542300463;-0.012217304669320583;-0.012217304669320583
01:00:0A:00:00:00:00;1727568196;29/09/24;00:03:16;1.015;0.017;0.074;-0.004886921960860491;-0.0073303827084600925;0.0012217304902151227
01:00:0A:00:00:00:00;1727568197;29/09/24;00:03:17;1.016;0.003;0.075;-0.010995574295520782;-0.009773843921720982;0.015882495790719986
01:00:0A:00:00:00:00;1727568198;29/09/24;00:03:18;1.013;0.004;0.071;0.0036651913542300463;-0.010995574295520782;-0.009773843921720982
01:00:0A:00:00:00:00;1727568199;29/09/24;00:03:19;1.012;0.017;0.071;-0.0036651913542300463;-0.010995574295520782;0.0012217304902151227
01:00:0A:00:00:00:00;1727568200;29/09/24;00:03:20;1.016;0.005;0.074;-0.012217304669320583;-0.015882495790719986;0.018325956538319588
01:00:0A:00:00:00:00;1727568201;29/09/24;00:03:21;1.017;0.003;0.073;0.0012217304902151227;-0.014660765416920185;-0.006108652334660292
01:00:0A:00:00:00:00;1727568202;29/09/24;00:03:22;1.018;0.015;0.073;-0.0012217304902151227;-0.0073303827084600925;-0.006108652334660292
01:00:0A:00:00:00:00;1727568203;29/09/24;00:03:23;1.015;0.008;0.073;-0.012217304669320583;-0.009773843921720982;0.015882495790719986
01:00:0A:00:00:00:00;1727568204;29/09/24;00:03:24;1.014;0.002;0.072;-0.0012217304902151227;-0.012217304669320583;-0.0024434609804302454
01:00:0A:00:00:00:00;1727568205;29/09/24;00:03:25;1.016;0.014;0.073;0.0;-0.012217304669320583;-0.0073303827084600925
01:00:0A:00:00:00:00;1727568206;29/09/24;00:03:26;1.016;0.009;0.074;-0.010995574295520782;-0.010995574295520782;0.010995574295520782
01:00:0A:00:00:00:00;1727568207;29/09/24;00:03:27;1.016;0.0;0.075;-0.0036651913542300463;-0.010995574295520782;0.0
01:00:0A:00:00:00:00;1727568208;29/09/24;00:03:28;1.016;0.011;0.073;0.0;-0.009773843921720982;-0.0036651913542300463
01:00:0A:00:00:00:00;1727568209;29/09/24;00:03:29;1.014;0.012;0.073;-0.010995574295520782;-0.010995574295520782;0.013439035043120384
01:00:0A:00:00:00:00;1727568210;29/09/24;00:03:30;1.014;0.002;0.072;-0.004886921960860491;-0.013439035043120384;0.0024434609804302454
01:00:0A:00:00:00:00;1727568211;29/09/24;00:03:31;1.016;0.011;0.074;0.0012217304902151227;-0.015882495790719986;-0.00855211354792118
01:00:0A:00:00:00:00;1727568212;29/09/24;00:03:32;1.019;0.011;0.074;-0.00855211354792118;-0.013439035043120384;0.009773843921720982
01:00:0A:00:00:00:00;1727568213;29/09/24;00:03:33;1.018;0.001;0.075;-0.006108652334660292;-0.006108652334660292;0.004886921960860491
01:00:0A:00:00:00:00;1727568214;29/09/24;00:03:34;1.014;0.008;0.073;0.0;-0.0036651913542300463;-0.0073303827084600925
01:00:0A:00:00:00:00;1727568215;29/09/24;00:03:35;1.009;0.012;0.072;-0.00855211354792118;-0.00855211354792118;0.009773843921720982
01:00:0A:00:00:00:00;1727568216;29/09/24;00:03:36;1.011;0.004;0.072;-0.006108652334660292;-0.019547687843441963;0.0073303827084600925
01:00:0A:00:00:00:00;1727568217;29/09/24;00:03:37;1.016;0.008;0.074;0.0012217304902151227;-0.02076941914856434;-0.006108652334660292
01:00:0A:00:00:00:00;1727568218;29/09/24;00:03:38;1.02;0.011;0.077;-0.004886921960860491;-0.013439035043120384;0.0036651913542300463
01:00:0A:00:00:00:00;1727568219;29/09/24;00:03:39;1.022;0.003;0.077;-0.0073303827084600925;-0.0073303827084600925;0.00855211354792118
01:00:0A:00:00:00:00;1727568220;29/09/24;00:03:40;1.016;0.009;0.076;-0.0012217304902151227;-0.0012217304902151227;-0.004886921960860491
01:00:0A:00:00:00:00;1727568221;29/09/24;00:03:41;1.011;0.013;0.073;-0.004886921960860491;-0.0073303827084600925;0.0
01:00:0A:00:00:00:00;1727568222;29/09/24;00:03:42;1.011;0.005;0.07;-0.0073303827084600925;-0.014660765416920185;0.0036651913542300463
01:00:0A:00:00:00:00;1727568223;29/09/24;00:03:43;1.015;0.004;0.073;-0.0012217304902151227;-0.02076941914856434;-0.0036651913542300463
01:00:0A:00:00:00:00;1727568224;29/09/24;00:03:44;1.018;0.011;0.075;-0.006108652334660292;-0.01710422709584236;0.004886921960860491
01:00:0A:00:00:00:00;1727568225;29/09/24;00:03:45;1.019;0.006;0.075;-0.009773843921720982;-0.0073303827084600925;0.00855211354792118
01:00:0A:00:00:00:00;1727568226;29/09/24;00:03:46;1.017;0.007;0.075;-0.0036651913542300463;-0.0036651913542300463;-0.0024434609804302454
01:00:0A:00:00:00:00;1727568227;29/09/24;00:03:47;1.012;0.012;0.07;-0.0073303827084600925;-0.00855211354792118;0.0024434609804302454
01:00:0A:00:00:00:00;1727568228;29/09/24;00:03:48;1.012;0.008;0.071;-0.009773843921720982;-0.014660765416920185;0.0073303827084600925
01:00:0A:00:00:00:00;1727568229;29/09/24;00:03:49;1.016;0.006;0.074;-0.0036651913542300463;-0.018325956538319588;-0.0024434609804302454
01:00:0A:00:00:00:00;1727568230;29/09/24;00:03:50;1.017;0.011;0.076;-0.006108652334660292;-0.012217304669320583;0.0012217304902151227
01:00:0A:00:00:00:00;1727568231;29/09/24;00:03:51;1.017;0.006;0.075;-0.009773843921720982;-0.006108652334660292;0.009773843921720982
01:00:0A:00:00:00:00;1727568232;29/09/24;00:03:52;1.013;0.005;0.072;-0.004886921960860491;-0.006108652334660292;0.0012217304902151227
01:00:0A:00:00:00:00;1727568233;29/09/24;00:03:53;1.012;0.01;0.069;-0.004886921960860491;-0.009773843921720982;0.0012217304902151227
01:00:0A:00:00:00:00;1727568234;29/09/24;00:03:54;1.015;0.009;0.071;-0.0073303827084600925;-0.01710422709584236;0.00855211354792118
01:00:0A:00:00:00:00;1727568234;29/09/24;00:03:54;1.016;0.006;0.073;-0.0024434609804302454;-0.019547687843441963;0.0
01:00:0A:00:00:00:00;1727568235;29/09/24;00:03:55;1.018;0.01;0.076;-0.0024434609804302454;-0.012217304669320583;-0.0012217304902151227
01:00:0A:00:00:00:00;1727568236;29/09/24;00:03:56;1.019;0.008;0.077;-0.006108652334660292;-0.006108652334660292;0.006108652334660292
01:00:0A:00:00:00:00;1727568237;29/09/24;00:03:57;1.017;0.004;0.073;-0.0036651913542300463;-0.0036651913542300463;0.0024434609804302454
01:00:0A:00:00:00:00;1727568238;29/09/24;00:03:58;1.014;0.009;0.071;-0.0012217304902151227;-0.010995574295520782;0.0
01:00:0A:00:00:00:00;1727568239;29/09/24;00:03:59;1.012;0.011;0.072;-0.004886921960860491;-0.013439035043120384;0.006108652334660292
01:00:0A:00:00:00:00;1727568240;29/09/24;00:04:00;1.015;0.006;0.074;-0.0024434609804302454;-0.018325956538319588;0.0012217304902151227
01:00:0A:00:00:00:00;1727568241;29/09/24;00:04:01;1.016;0.007;0.074;-0.0012217304902151227;-0.014660765416920185;-0.0012217304902151227
01:00:0A:00:00:00:00;1727568242;29/09/24;00:04:02;1.016;0.009;0.074;-0.006108652334660292;-0.0073303827084600925;0.0073303827084600925
01:00:0A:00:00:00:00;1727568243;29/09/24;00:04:03;1.016;0.006;0.075;-0.0036651913542300463;-0.00855211354792118;0.0036651913542300463
01:00:0A:00:00:00:00;1727568244;29/09/24;00:04:04;1.014;0.009;0.073;-0.0024434609804302454;-0.012217304669320583;-0.0012217304902151227
01:00:0A:00:00:00:00;1727568245;29/09/24;00:04:05;1.014;0.01;0.072;-0.006108652334660292;-0.010995574295520782;0.0036651913542300463
01:00:0A:00:00:00:00;1727568246;29/09/24;00:04:06;1.016;0.006;0.074;-0.004886921960860491;-0.012217304669320583;0.0024434609804302454
01:00:0A:00:00:00:00;1727568247;29/09/24;00:04:07;1.017;0.007;0.074;-0.0036651913542300463;-0.012217304669320583;-0.0012217304902151227
01:00:0A:00:00:00:00;1727568248;29/09/24;00:04:08;1.016;0.009;0.072;-0.0073303827084600925;-0.00855211354792118;0.004886921960860491
01:00:0A:00:00:00:00;1727568249;29/09/24;00:04:09;1.015;0.007;0.073;-0.0073303827084600925;-0.009773843921720982;0.004886921960860491
01:00:0A:00:00:00:00;1727568250;29/09/24;00:04:10;1.014;0.008;0.072;-0.004886921960860491;-0.013439035043120384;0.0012217304902151227
01:00:0A:00:00:00:00;1727568251;29/09/24;00:04:11;1.016;0.009;0.072;-0.0073303827084600925;-0.013439035043120384;0.0024434609804302454
01:00:0A:00:00:00:00;1727568252;29/09/24;00:04:12;1.017;0.007;0.074;-0.00855211354792118;-0.012217304669320583;0.0036651913542300463
01:00:0A:00:00:00:00;1727568253;29/09/24;00:04:13;1.016;0.007;0.075;-0.006108652334660292;-0.013439035043120384;0.0
01:00:0A:00:00:00:00;1727568254;29/09/24;00:04:14;1.017;0.01;0.072;-0.00855211354792118;-0.010995574295520782;0.0012217304902151227
01:00:0A:00:00:00:00;1727568255;29/09/24;00:04:15;1.016;0.007;0.074;-0.009773843921720982;-0.009773843921720982;0.0024434609804302454
01:00:0A:00:00:00:00;1727568256;29/09/24;00:04:16;1.016;0.006;0.075;-0.0073303827084600925;-0.010995574295520782;0.0
01:00:0A:00:00:00:00;1727568257;29/09/24;00:04:17;1.015;0.009;0.072;-0.00855211354792118;-0.00855211354792118;0.0024434609804302454
01:00:0A:00:00:00:00;1727568258;29/09/24;00:04:18;1.014;0.008;0.072;-0.009773843921720982;-0.009773843921720982;0.0036651913542300463
01:00:0A:00:00:00:00;1727568259;29/09/24;00:04:19;1.015;0.009;0.073;-0.0073303827084600925;-0.01710422709584236;-0.0012217304902151227
01:00:0A:00:00:00:00;1727568260;29/09/24;00:04:20;1.016;0.008;0.071;-0.00855211354792118;-0.015882495790719986;-0.0012217304902151227
01:00:0A:00:00:00:00;1727568261;29/09/24;00:04:21;1.017;0.007;0.075;-0.009773843921720982;-0.010995574295520782;0.0012217304902151227
01:00:0A:00:00:00:00;1727568262;29/09/24;00:04:22;1.017;0.006;0.075;-0.00855211354792118;-0.009773843921720982;0.0024434609804302454
01:00:0A:00:00:00:00;1727568263;29/09/24;00:04:23;1.016;0.009;0.073;-0.009773843921720982;-0.0073303827084600925;0.0024434609804302454
01:00:0A:00:00:00:00;1727568264;29/09/24;00:04:24;1.014;0.009;0.071;-0.010995574295520782;-0.006108652334660292;0.0036651913542300463
01:00:0A:00:00:00:00;1727568265;29/09/24;00:04:25;1.014;0.009;0.073;-0.00855211354792118;-0.015882495790719986;-0.0012217304902151227
01:00:0A:00:00:00:00;1727568266;29/09/24;00:04:26;1.015;0.007;0.071;-0.00855211354792118;-0.018325956538319588;-0.0012217304902151227
01:00:0A:00:00:00:00;1727568267;29/09/24;00:04:27;1.017;0.006;0.073;-0.010995574295520782;-0.009773843921720982;0.0024434609804302454
01:00:0A:00:00:00:00;1727568268;29/09/24;00:04:28;1.018;0.006;0.076;-0.010995574295520782;-0.00855211354792118;0.004886921960860491
01:00:0A:00:00:00:00;1727568269;29/09/24;00:04:29;1.016;0.008;0.073;-0.009773843921720982;-0.00855211354792118;0.004886921960860491
01:00:0A:00:00:00:00;1727568270;29/09/24;00:04:30;1.013;0.01;0.072;-0.010995574295520782;-0.00855211354792118;0.004886921960860491
01:00:0A:00:00:00:00;1727568271;29/09/24;00:04:31;1.015;0.009;0.074;-0.009773843921720982;-0.014660765416920185;0.0
01:00:0A:00:00:00:00;1727568272;29/09/24;00:04:32;1.018;0.008;0.073;-0.00855211354792118;-0.01710422709584236;-0.0024434609804302454
01:00:0A:00:00:00:00;1727568273;29/09/24;00:04:33;1.018;0.006;0.074;-0.009773843921720982;-0.00855211354792118;0.0024434609804302454
01:00:0A:00:00:00:00;1727568274;29/09/24;00:04:34;1.014;0.001;0.065;0.009773843921720982;-0.013439035043120384;0.012217304669320583
01:00:0A:00:00:00:00;1727568275;29/09/24;00:04:35;1.016;0.002;0.066;0.02932153083384037;-0.0073303827084600925;0.0024434609804302454
01:00:0A:00:00:00:00;1727568276;29/09/24;00:04:36;1.015;0.012;0.071;0.030543262138962746;-0.0012217304902151227;-0.0024434609804302454
01:00:0A:00:00:00:00;1727568277;29/09/24;00:04:37;1.016;0.011;0.078;0.02076941914856434;-0.014660765416920185;0.004886921960860491
01:00:0A:00:00:00:00;1727568278;29/09/24;00:04:38;1.017;0.005;0.073;0.02321287989616394;-0.019547687843441963;0.0012217304902151227
01:00:0A:00:00:00:00;1727568279;29/09/24;00:04:39;1.017;0.007;0.072;0.02321287989616394;-0.0036651913542300463;-0.0036651913542300463
01:00:0A:00:00:00:00;1727568280;29/09/24;00:04:40;1.016;0.008;0.078;0.018325956538319588;0.0;0.0073303827084600925
01:00:0A:00:00:00:00;1727568281;29/09/24;00:04:41;1.013;0.007;0.073;0.018325956538319588;-0.015882495790719986;0.00855211354792118
01:00:0A:00:00:00:00;1727568282;29/09/24;00:04:42;1.014;0.008;0.067;0.02076941914856434;-0.012217304669320583;0.0
01:00:0A:00:00:00:00;1727568283;29/09/24;00:04:43;1.015;0.01;0.075;0.018325956538319588;-0.009773843921720982;0.0
01:00:0A:00:00:00:00;1727568284;29/09/24;00:04:44;1.016;0.007;0.077;0.01710422709584236;-0.019547687843441963;0.004886921960860491
01:00:0A:00:00:00:00;1727568285;29/09/24;00:04:45;1.018;0.006;0.07;0.018325956538319588;-0.012217304669320583;0.0024434609804302454
01:00:0A:00:00:00:00;1727568286;29/09/24;00:04:46;1.016;0.008;0.075;0.015882495790719986;0.0;0.0036651913542300463
01:00:0A:00:00:00:00;1727568287;29/09/24;00:04:47;1.016;0.008;0.074;0.014660765416920185;-0.00855211354792118;0.0073303827084600925
01:00:0A:00:00:00:00;1727568288;29/09/24;00:04:48;1.013;0.007;0.068;0.015882495790719986;-0.012217304669320583;0.0036651913542300463
01:00:0A:00:00:00:00;1727568289;29/09/24;00:04:49;1.013;0.01;0.07;0.015882495790719986;-0.009773843921720982;0.0
01:00:0A:00:00:00:00;1727568290;29/09/24;00:04:50;1.016;0.008;0.078;0.013439035043120384;-0.014660765416920185;0.0036651913542300463
01:00:0A:00:00:00:00;1727568291;29/09/24;00:04:51;1.017;0.006;0.074;0.013439035043120384;-0.015882495790719986;0.004886921960860491
01:00:0A:00:00:00:00;1727568292;29/09/24;00:04:52;1.016;0.008;0.072;0.012217304669320583;-0.0024434609804302454;0.0024434609804302454
01:00:0A:00:00:00:00;1727568293;29/09/24;00:04:53;1.015;0.01;0.074;0.009773843921720982;-0.006108652334660292;0.004886921960860491
01:00:0A:00:00:00:00;1727568294;29/09/24;00:04:54;1.015;0.009;0.072;0.009773843921720982;-0.01710422709584236;0.0036651913542300463
01:00:0A:00:00:00:00;1727568295;29/09/24;00:04:55;1.015;0.009;0.07;0.00855211354792118;-0.010995574295520782;0.0
01:00:0A:00:00:00:00;1727568296;29/09/24;00:04:56;1.016;0.009;0.075;0.006108652334660292;-0.010995574295520782;0.0012217304902151227
01:00:0A:00:00:00:00;1727568297;29/09/24;00:04:57;1.016;0.008;0.074;0.004886921960860491;-0.014660765416920185;0.0036651913542300463
01:00:0A:00:00:00:00;1727568298;29/09/24;00:04:58;1.016;0.008;0.071;0.0036651913542300463;-0.0073303827084600925;0.0012217304902151227
01:00:0A:00:00:00:00;1727568299;29/09/24;00:04:59;1.015;0.009;0.074;0.0012217304902151227;-0.0073303827084600925;0.0024434609804302454
01:00:0A:00:00:00:00;1727568300;29/09/24;00:05:00;1.013;0.011;0.072;-0.0012217304902151227;-0.015882495790719986;0.0036651913542300463
01:00:0A:00:00:00:00;1727568301;29/09/24;00:05:01;1.016;0.007;0.071;-0.0024434609804302454;-0.014660765416920185;0.0012217304902151227
01:00:0A:00:00:00:00;1727568302;29/09/24;00:05:02;1.017;0.009;0.073;-0.006108652334660292;-0.009773843921720982;0.0
01:00:0A:00:00:00:00;1727568303;29/09/24;00:05:03;1.016;0.009;0.073;-0.00855211354792118;-0.010995574295520782;0.0024434609804302454
01:00:0A:00:00:00:00;1727568304;29/09/24;00:05:04;1.015;0.009;0.071;-0.010995574295520782;-0.009773843921720982;0.0012217304902151227
01:00:0A:00:00:00:00;1727568305;29/09/24;00:05:05;1.014;0.009;0.073;-0.012217304669320583;-0.009773843921720982;0.0012217304902151227
01:00:0A:00:00:00:00;1727568306;29/09/24;00:05:06;1.014;0.009;0.073;-0.014660765416920185;-0.014660765416920185;0.0036651913542300463
01:00:0A:00:00:00:00;1727568307;29/09/24;00:05:07;1.015;0.008;0.07;-0.015882495790719986;-0.013439035043120384;0.0024434609804302454
01:00:0A:00:00:00:00;1727568308;29/09/24;00:05:08;1.016;0.008;0.071;-0.018325956538319588;-0.010995574295520782;0.0012217304902151227
01:00:0A:00:00:00:00;1727568309;29/09/24;00:05:09;1.014;0.009;0.073;-0.019547687843441963;-0.013439035043120384;0.0024434609804302454
01:00:0A:00:00:00:00;1727568310;29/09/24;00:05:10;1.016;0.008;0.072;-0.019547687843441963;-0.013439035043120384;0.0012217304902151227
01:00:0A:00:00:00:00;1727568311;29/09/24;00:05:11;1.016;0.008;0.074;-0.02076941914856434;-0.009773843921720982;0.0
01:00:0A:00:00:00:00;1727568312;29/09/24;00:05:12;1.015;0.009;0.073;-0.02321287989616394;-0.010995574295520782;0.0024434609804302454
01:00:0A:00:00:00:00;1727568313;29/09/24;00:05:13;1.015;0.008;0.072;-0.02321287989616394;-0.012217304669320583;0.0012217304902151227
01:00:0A:00:00:00:00;1727568314;29/09/24;00:05:14;1.015;0.009;0.071;-0.024434609338641167;-0.010995574295520782;0.0012217304902151227
01:00:0A:00:00:00:00;1727568315;29/09/24;00:05:15;1.015;0.01;0.074;-0.025656338781118393;-0.013439035043120384;0.0012217304902151227
01:00:0A:00:00:00:00;1727568316;29/09/24;00:05:16;1.016;0.008;0.073;-0.025656338781118393;-0.013439035043120384;0.0
01:00:0A:00:00:00:00;1727568317;29/09/24;00:05:17;1.017;0.008;0.073;-0.02687807008624077;-0.009773843921720982;0.0
01:00:0A:00:00:00:00;1727568318;29/09/24;00:05:18;1.016;0.009;0.074;-0.028099799528717995;-0.009773843921720982;0.0012217304902151227
01:00:0A:00:00:00:00;1727568319;29/09/24;00:05:19;1.014;0.008;0.071;-0.028099799528717995;-0.012217304669320583;0.0024434609804302454
01:00:0A:00:00:00:00;1727568320;29/09/24;00:05:20;1.013;0.009;0.071;-0.028099799528717995;-0.012217304669320583;0.0012217304902151227
01:00:0A:00:00:00:00;1727568321;29/09/24;00:05:21;1.016;0.008;0.074;-0.028099799528717995;-0.014660765416920185;0.0
01:00:0A:00:00:00:00;1727568322;29/09/24;00:05:22;1.016;0.009;0.073;-0.02932153083384037;-0.014660765416920185;0.0
01:00:0A:00:00:00:00;1727568323;29/09/24;00:05:23;1.017;0.008;0.074;-0.030543262138962746;-0.010995574295520782;0.0012217304902151227
01:00:0A:00:00:00:00;1727568324;29/09/24;00:05:24;1.015;0.008;0.075;-0.030543262138962746;-0.009773843921720982;0.0024434609804302454
01:00:0A:00:00:00:00;1727568325;29/09/24;00:05:25;1.014;0.01;0.072;-0.03176499158143997;-0.012217304669320583;0.0024434609804302454
01:00:0A:00:00:00:00;1727568326;29/09/24;00:05:26;1.014;0.009;0.071;-0.03176499158143997;-0.013439035043120384;0.0
01:00:0A:00:00:00:00;1727568327;29/09/24;00:05:27;1.015;0.009;0.073;-0.03298672288656235;-0.014660765416920185;0.0
01:00:0A:00:00:00:00;1727568328;29/09/24;00:05:28;1.016;0.007;0.074;-0.03298672288656235;-0.014660765416920185;0.0
01:00:0A:00:00:00:00;1727568329;29/09/24;00:05:29;1.017;0.007;0.073;-0.03420845419168472;-0.010995574295520782;0.0012217304902151227
01:00:0A:00:00:00:00;1727568330;29/09/24;00:05:30;1.016;0.008;0.074;-0.0354301817715168;-0.009773843921720982;0.0024434609804302454
01:00:0A:00:00:00:00;1727568331;29/09/24;00:05:31;1.014;0.008;0.073;-0.036651913076639175;-0.012217304669320583;0.0024434609804302454
01:00:0A:00:00:00:00;1727568332;29/09/24;00:05:32;1.015;0.009;0.072;-0.036651913076639175;-0.013439035043120384;0.0
01:00:0A:00:00:00:00;1727568333;29/09/24;00:05:33;1.016;0.009;0.074;-0.03787364438176155;-0.013439035043120384;0.0
01:00:0A:00:00:00:00;1727568334;29/09/24;00:05:34;1.016;0.007;0.073;-0.03787364438176155;-0.013439035043120384;-0.0012217304902151227
01:00:0A:00:00:00:00;1727568335;29/09/24;00:05:35;1.016;0.007;0.073;-0.040317103266716;-0.010995574295520782;0.0
01:00:0A:00:00:00:00;1727568336;29/09/24;00:05:36;1.016;0.008;0.074;-0.04153883829712868;-0.009773843921720982;0.0012217304902151227
01:00:0A:00:00:00:00;1727568337;29/09/24;00:05:37;1.015;0.009;0.073;-0.042760565876960754;-0.012217304669320583;0.0012217304902151227
01:00:0A:00:00:00:00;1727568338;29/09/24;00:05:38;1.014;0.009;0.073;-0.04398229718208313;-0.012217304669320583;-0.0012217304902151227
01:00:0A:00:00:00:00;1727568339;29/09/24;00:05:39;1.015;0.008;0.073;-0.045204028487205505;-0.012217304669320583;0.0
01:00:0A:00:00:00:00;1727568340;29/09/24;00:05:40;1.017;0.007;0.074;-0.04642575979232788;-0.013439035043120384;0.0
01:00:0A:00:00:00:00;1727568341;29/09/24;00:05:41;1.016;0.008;0.072;-0.04764748737215996;-0.009773843921720982;0.0
01:00:0A:00:00:00:00;1727568342;29/09/24;00:05:42;1.016;0.009;0.074;-0.04886921867728233;-0.009773843921720982;0.0012217304902151227
01:00:0A:00:00:00:00;1727568343;29/09/24;00:05:43;1.013;0.008;0.073;-0.05009094998240471;-0.013439035043120384;0.0012217304902151227
01:00:0A:00:00:00:00;1727568344;29/09/24;00:05:44;1.013;0.008;0.073;-0.05009094998240471;-0.014660765416920185;-0.0012217304902151227
01:00:0A:00:00:00:00;1727568345;29/09/24;00:05:45;1.016;0.011;0.074;-0.05253440886735916;-0.013439035043120384;0.0
01:00:0A:00:00:00:00;1727568346;29/09/24;00:05:46;1.017;0.008;0.075;-0.05375614017248154;-0.013439035043120384;0.0012217304902151227
01:00:0A:00:00:00:00;1727568347;29/09/24;00:05:47;1.017;0.008;0.072;-0.05497787147760391;-0.012217304669320583;-0.0012217304902151227
01:00:0A:00:00:00:00;1727568348;29/09/24;00:05:48;1.016;0.01;0.073;-0.05619959905743599;-0.009773843921720982;-0.0012217304902151227
01:00:0A:00:00:00:00;1727568349;29/09/24;00:05:49;1.013;0.008;0.074;-0.05742133408784866;-0.013439035043120384;0.0
01:00:0A:00:00:00:00;1727568350;29/09/24;00:05:50;1.014;0.007;0.072;-0.05742133408784866;-0.013439035043120384;-0.0012217304902151227
01:00:0A:00:00:00:00;1727568351;29/09/24;00:05:51;1.016;0.008;0.074;-0.05864306166768074;-0.012217304669320583;0.0
01:00:0A:00:00:00:00;1727568352;29/09/24;00:05:52;1.017;0.009;0.074;-0.059864792972803116;-0.013439035043120384;0.0012217304902151227
01:00:0A:00:00:00:00;1727568353;29/09/24;00:05:53;1.016;0.006;0.073;-0.059864792972803116;-0.012217304669320583;-0.0024434609804302454
01:00:0A:00:00:00:00;1727568354;29/09/24;00:05:54;1.015;0.008;0.074;-0.06108652427792549;-0.009773843921720982;-0.0024434609804302454
01:00:0A:00:00:00:00;1727568355;29/09/24;00:05:55;1.014;0.008;0.073;-0.06230825558304787;-0.014660765416920185;0.0012217304902151227
01:00:0A:00:00:00:00;1727568356;29/09/24;00:05:56;1.016;0.008;0.071;-0.06230825558304787;-0.014660765416920185;0.0
01:00:0A:00:00:00:00;1727568357;29/09/24;00:05:57;1.015;0.009;0.074;-0.06230825558304787;-0.010995574295520782;-0.0024434609804302454
01:00:0A:00:00:00:00;1727568358;29/09/24;00:05:58;1.016;0.008;0.075;-0.06352998316287994;-0.013439035043120384;0.0
01:00:0A:00:00:00:00;1727568359;29/09/24;00:05:59;1.016;0.007;0.073;-0.06352998316287994;-0.013439035043120384;-0.0012217304902151227
01:00:0A:00:00:00:00;1727568360;29/09/24;00:06:00;1.015;0.01;0.073;-0.06352998316287994;-0.009773843921720982;-0.0024434609804302454
01:00:0A:00:00:00:00;1727568361;29/09/24;00:06:01;1.016;0.009;0.075;-0.06475171446800232;-0.013439035043120384;0.0012217304902151227
01:00:0A:00:00:00:00;1727568362;29/09/24;00:06:02;1.016;0.007;0.072;-0.06352998316287994;-0.014660765416920185;0.0
01:00:0A:00:00:00:00;1727568363;29/09/24;00:06:03;1.015;0.009;0.073;-0.06352998316287994;-0.010995574295520782;-0.0024434609804302454
01:00:0A:00:00:00:00;1727568364;29/09/24;00:06:04;1.016;0.01;0.075;-0.06352998316287994;-0.012217304669320583;0.0
01:00:0A:00:00:00:00;1727568365;29/09/24;00:06:05;1.016;0.007;0.072;-0.06230825558304787;-0.014660765416920185;0.0
01:00:0A:00:00:00:00;1727568366;29/09/24;00:06:06;1.015;0.008;0.073;-0.06230825558304787;-0.010995574295520782;-0.0024434609804302454
01:00:0A:00:00:00:00;1727568367;29/09/24;00:06:07;1.015;0.009;0.077;-0.06230825558304787;-0.013439035043120384;0.0
01:00:0A:00:00:00:00;1727568368;29/09/24;00:06:08;1.016;0.008;0.073;-0.06108652427792549;-0.014660765416920185;-0.0012217304902151227
01:00:0A:00:00:00:00;1727568369;29/09/24;00:06:09;1.015;0.006;0.072;-0.059864792972803116;-0.009773843921720982;-0.0024434609804302454
01:00:0A:00:00:00:00;1727568370;29/09/24;00:06:10;1.014;0.008;0.075;-0.06108652427792549;-0.013439035043120384;0.0012217304902151227
01:00:0A:00:00:00:00;1727568371;29/09/24;00:06:11;1.016;0.007;0.074;-0.05864306166768074;-0.01710422709584236;0.0012217304902151227
01:00:0A:00:00:00:00;1727568372;29/09/24;00:06:12;1.016;0.008;0.072;-0.05742133408784866;-0.009773843921720982;-0.0024434609804302454
01:00:0A:00:00:00:00;1727568373;29/09/24;00:06:13;1.016;0.009;0.076;-0.05742133408784866;-0.00855211354792118;-0.0012217304902151227
01:00:0A:00:00:00:00;1727568374;29/09/24;00:06:14;1.015;0.006;0.073;-0.05497787147760391;-0.015882495790719986;-0.0012217304902151227
01:00:0A:00:00:00:00;1727568375;29/09/24;00:06:15;1.015;0.006;0.071;-0.05497787147760391;-0.010995574295520782;-0.0024434609804302454
01:00:0A:00:00:00:00;1727568376;29/09/24;00:06:16;1.014;0.007;0.075;-0.05375614017248154;-0.010995574295520782;0.0
01:00:0A:00:00:00:00;1727568377;29/09/24;00:06:17;1.016;0.008;0.075;-0.05253440886735916;-0.018325956538319588;0.0024434609804302454
01:00:0A:00:00:00:00;1727568378;29/09/24;00:06:18;1.016;0.008;0.071;-0.051312677562236786;-0.010995574295520782;-0.0012217304902151227
01:00:0A:00:00:00:00;1727568379;29/09/24;00:06:19;1.016;0.008;0.076;-0.051312677562236786;-0.0073303827084600925;-0.0012217304902151227
01:00:0A:00:00:00:00;1727568380;29/09/24;00:06:20;1.015;0.008;0.073;-0.04886921867728233;-0.014660765416920185;-0.0012217304902151227
01:00:0A:00:00:00:00;1727568381;29/09/24;00:06:21;1.015;0.006;0.07;-0.04886921867728233;-0.012217304669320583;-0.0012217304902151227
01:00:0A:00:00:00:00;1727568382;29/09/24;00:06:22;1.015;0.006;0.074;-0.04886921867728233;-0.009773843921720982;0.0012217304902151227
01:00:0A:00:00:00:00;1727568383;29/09/24;00:06:23;1.016;0.007;0.075;-0.04642575979232788;-0.01710422709584236;0.0024434609804302454
01:00:0A:00:00:00:00;1727568384;29/09/24;00:06:24;1.016;0.008;0.07;-0.045204028487205505;-0.012217304669320583;0.0
01:00:0A:00:00:00:00;1727568385;29/09/24;00:06:25;1.016;0.008;0.075;-0.045204028487205505;-0.0073303827084600925;-0.0012217304902151227
01:00:0A:00:00:00:00;1727568386;29/09/24;00:06:26;1.015;0.006;0.075;-0.04398229718208313;-0.014660765416920185;-0.0024434609804302454
01:00:0A:00:00:00:00;1727568387;29/09/24;00:06:27;1.015;0.006;0.071;-0.042760565876960754;-0.014660765416920185;0.0
01:00:0A:00:00:00:00;1727568388;29/09/24;00:06:28;1.015;0.006;0.075;-0.04398229718208313;-0.00855211354792118;0.0024434609804302454
01:00:0A:00:00:00:00;1727568389;29/09/24;00:06:29;1.016;0.007;0.076;-0.04153883829712868;-0.015882495790719986;0.0012217304902151227
01:00:0A:00:00:00:00;1727568390;29/09/24;00:06:30;1.016;0.009;0.071;-0.04153883829712868;-0.015882495790719986;0.0
01:00:0A:00:00:00:00;1727568391;29/09/24;00:06:31;1.016;0.008;0.073;-0.04153883829712868;-0.006108652334660292;-0.0012217304902151227
01:00:0A:00:00:00:00;1727568392;29/09/24;00:06:32;1.015;0.008;0.076;-0.040317103266716;-0.010995574295520782;-0.0012217304902151227
01:00:0A:00:00:00:00;1727568393;29/09/24;00:06:33;1.015;0.007;0.071;-0.039095375686883926;-0.015882495790719986;0.0
01:00:0A:00:00:00:00;1727568394;29/09/24;00:06:34;1.016;0.007;0.073;-0.040317103266716;-0.010995574295520782;0.0024434609804302454
01:00:0A:00:00:00:00;1727568395;29/09/24;00:06:35;1.016;0.008;0.076;-0.039095375686883926;-0.013439035043120384;0.0024434609804302454
01:00:0A:00:00:00:00;1727568396;29/09/24;00:06:36;1.017;0.009;0.073;-0.039095375686883926;-0.014660765416920185;0.0
01:00:0A:00:00:00:00;1727568397;29/09/24;00:06:37;1.016;0.008;0.072;-0.040317103266716;-0.0073303827084600925;-0.0012217304902151227
01:00:0A:00:00:00:00;1727568398;29/09/24;00:06:38;1.015;0.006;0.074;-0.040317103266716;-0.00855211354792118;-0.0012217304902151227
01:00:0A:00:00:00:00;1727568399;29/09/24;00:06:39;1.015;0.007;0.072;-0.039095375686883926;-0.015882495790719986;0.0
01:00:0A:00:00:00:00;1727568400;29/09/24;00:06:40;1.015;0.007;0.07;-0.040317103266716;-0.013439035043120384;0.0024434609804302454
01:00:0A:00:00:00:00;1727568401;29/09/24;00:06:41;1.016;0.008;0.076;-0.040317103266716;-0.013439035043120384;0.0012217304902151227
01:00:0A:00:00:00:00;1727568402;29/09/24;00:06:42;1.016;0.009;0.074;-0.039095375686883926;-0.014660765416920185;0.0
01:00:0A:00:00:00:00;1727568403;29/09/24;00:06:43;1.016;0.008;0.072;-0.040317103266716;-0.00855211354792118;-0.0012217304902151227
01:00:0A:00:00:00:00;1727568404;29/09/24;00:06:44;1.014;0.007;0.074;-0.040317103266716;-0.00855211354792118;0.0012217304902151227
01:00:0A:00:00:00:00;1727568405;29/09/24;00:06:45;1.015;0.007;0.073;-0.039095375686883926;-0.01710422709584236;0.0
01:00:0A:00:00:00:00;1727568406;29/09/24;00:06:46;1.016;0.008;0.07;-0.040317103266716;-0.014660765416920185;0.0012217304902151227
01:00:0A:00:00:00:00;1727568407;29/09/24;00:06:47;1.016;0.009;0.075;-0.04153883829712868;-0.009773843921720982;0.0012217304902151227
01:00:0A:00:00:00:00;1727568408;29/09/24;00:06:48;1.016;0.009;0.074;-0.040317103266716;-0.012217304669320583;0.0
01:00:0A:00:00:00:00;1727568409;29/09/24;00:06:49;1.016;0.008;0.071;-0.040317103266716;-0.012217304669320583;0.0
01:00:0A:00:00:00:00;1727568410;29/09/24;00:06:50;1.015;0.007;0.073;-0.04153883829712868;-0.00855211354792118;0.0012217304902151227
01:00:0A:00:00:00:00;1727568411;29/09/24;00:06:51;1.014;0.008;0.074;-0.040317103266716;-0.014660765416920185;0.0
01:00:0A:00:00:00:00;1727568412;29/09/24;00:06:52;1.016;0.007;0.072;-0.024434609338641167;-0.010995574295520782;0.0073303827084600925
01:00:0A:00:00:00:00;1727568413;29/09/24;00:06:53;1.016;0.005;0.075;-0.014660765416920185;-0.010995574295520782;0.0
01:00:0A:00:00:00:00;1727568414;29/09/24;00:06:54;1.016;0.009;0.074;-0.010995574295520782;-0.012217304669320583;-0.0024434609804302454
01:00:0A:00:00:00:00;1727568415;29/09/24;00:06:55;1.014;0.009;0.072;-0.015882495790719986;-0.010995574295520782;0.0024434609804302454
01:00:0A:00:00:00:00;1727568416;29/09/24;00:06:56;1.016;0.006;0.073;-0.018325956538319588;-0.009773843921720982;0.0036651913542300463
01:00:0A:00:00:00:00;1727568417;29/09/24;00:06:57;1.016;0.007;0.074;-0.015882495790719986;-0.013439035043120384;-0.0012217304902151227
01:00:0A:00:00:00:00;1727568418;29/09/24;00:06:58;1.016;0.009;0.072;-0.018325956538319588;-0.012217304669320583;0.0012217304902151227
01:00:0A:00:00:00:00;1727568419;29/09/24;00:06:59;1.016;0.008;0.074;-0.021991148591041565;-0.009773843921720982;0.0036651913542300463
01:00:0A:00:00:00:00;1727568420;29/09/24;00:07:00;1.015;0.007;0.075;-0.019547687843441963;-0.012217304669320583;0.0
01:00:0A:00:00:00:00;1727568421;29/09/24;00:07:01;1.016;0.008;0.072;-0.019547687843441963;-0.013439035043120384;0.0
01:00:0A:00:00:00:00;1727568422;29/09/24;00:07:02;1.015;0.009;0.073;-0.02321287989616394;-0.009773843921720982;0.0024434609804302454
01:00:0A:00:00:00:00;1727568423;29/09/24;00:07:03;1.016;0.007;0.074;-0.021991148591041565;-0.010995574295520782;0.0012217304902151227
01:00:0A:00:00:00:00;1727568424;29/09/24;00:07:04;1.015;0.007;0.072;-0.02076941914856434;-0.012217304669320583;0.0
01:00:0A:00:00:00:00;1727568425;29/09/24;00:07:05;1.016;0.009;0.072;-0.02321287989616394;-0.010995574295520782;0.0024434609804302454
01:00:0A:00:00:00:00;1727568426;29/09/24;00:07:06;1.016;0.006;0.074;-0.02321287989616394;-0.012217304669320583;0.0024434609804302454
01:00:0A:00:00:00:00;1727568427;29/09/24;00:07:07;1.015;0.007;0.073;-0.021991148591041565;-0.013439035043120384;0.0
01:00:0A:00:00:00:00;1727568428;29/09/24;00:07:08;1.016;0.009;0.074;-0.02321287989616394;-0.009773843921720982;0.0012217304902151227
01:00:0A:00:00:00:00;1727568429;29/09/24;00:07:09;1.016;0.008;0.074;-0.024434609338641167;-0.009773843921720982;0.0024434609804302454
01:00:0A:00:00:00:00;1727568430;29/09/24;00:07:10;1.014;0.006;0.074;-0.021991148591041565;-0.012217304669320583;0.0
01:00:0A:00:00:00:00;1727568431;29/09/24;00:07:11;1.013;0.008;0.072;-0.02321287989616394;-0.012217304669320583;0.0
01:00:0A:00:00:00:00;1727568432;29/09/24;00:07:12;1.016;0.009;0.074;-0.024434609338641167;-0.012217304669320583;0.0024434609804302454
01:00:0A:00:00:00:00;1727568433;29/09/24;00:07:13;1.016;0.007;0.073;-0.02321287989616394;-0.013439035043120384;0.0
01:00:0A:00:00:00:00;1727568434;29/09/24;00:07:14;1.016;0.008;0.073;-0.02321287989616394;-0.009773843921720982;0.0
01:00:0A:00:00:00:00;1727568435;29/09/24;00:07:15;1.015;0.008;0.074;-0.024434609338641167;-0.00855211354792118;0.0024434609804302454
01:00:0A:00:00:00:00;1727568436;29/09/24;00:07:16;1.014;0.008;0.074;-0.02321287989616394;-0.012217304669320583;0.0012217304902151227
01:00:0A:00:00:00:00;1727568437;29/09/24;00:07:17;1.015;0.008;0.072;-0.02321287989616394;-0.012217304669320583;0.0
01:00:0A:00:00:00:00;1727568438;29/09/24;00:07:18;1.016;0.009;0.073;-0.024434609338641167;-0.012217304669320583;0.0012217304902151227
01:00:0A:00:00:00:00;1727568439;29/09/24;00:07:19;1.017;0.008;0.074;-0.02321287989616394;-0.013439035043120384;0.0012217304902151227
01:00:0A:00:00:00:00;1727568440;29/09/24;00:07:20;1.016;0.008;0.073;-0.02321287989616394;-0.010995574295520782;0.0
01:00:0A:00:00:00:00;1727568441;29/09/24;00:07:21;1.016;0.008;0.073;-0.024434609338641167;-0.00855211354792118;0.0012217304902151227
01:00:0A:00:00:00:00;1727568442;29/09/24;00:07:22;1.015;0.008;0.073;-0.024434609338641167;-0.010995574295520782;0.0024434609804302454
01:00:0A:00:00:00:00;1727568443;29/09/24;00:07:23;1.015;0.008;0.072;-0.02321287989616394;-0.013439035043120384;0.0
01:00:0A:00:00:00:00;1727568444;29/09/24;00:07:24;1.016;0.008;0.073;-0.02321287989616394;-0.012217304669320583;0.0012217304902151227
01:00:0A:00:00:00:00;1727568445;29/09/24;00:07:25;1.016;0.007;0.075;-0.02321287989616394;-0.013439035043120384;0.0024434609804302454
01:00:0A:00:00:00:00;1727568446;29/09/24;00:07:26;1.016;0.007;0.073;-0.021991148591041565;-0.010995574295520782;0.0
01:00:0A:00:00:00:00;1727568447;29/09/24;00:07:27;1.016;0.008;0.073;-0.02321287989616394;-0.00855211354792118;0.0
01:00:0A:00:00:00:00;1727568448;29/09/24;00:07:28;1.015;0.006;0.073;-0.02321287989616394;-0.012217304669320583;0.0024434609804302454
01:00:0A:00:00:00:00;1727568449;29/09/24;00:07:29;1.014;0.008;0.072;-0.021991148591041565;-0.013439035043120384;0.0012217304902151227
01:00:0A:00:00:00:00;1727568450;29/09/24;00:07:30;1.016;0.009;0.073;-0.021991148591041565;-0.013439035043120384;0.0
01:00:0A:00:00:00:00;1727568451;29/09/24;00:07:31;1.016;0.008;0.075;-0.02321287989616394;-0.012217304669320583;0.0024434609804302454
01:00:0A:00:00:00:00;1727568452;29/09/24;00:07:32;1.016;0.007;0.074;-0.021991148591041565;-0.010995574295520782;0.0012217304902151227
01:00:0A:00:00:00:00;1727568453;29/09/24;00:07:33;1.016;0.008;0.073;-0.021991148591041565;-0.00855211354792118;0.0
01:00:0A:00:00:00:00;1727568454;29/09/24;00:07:34;1.013;0.009;0.073;-0.021991148591041565;-0.010995574295520782;0.0024434609804302454
01:00:0A:00:00:00:00;1727568455;29/09/24;00:07:35;1.014;0.008;0.072;-0.021991148591041565;-0.014660765416920185;0.0024434609804302454
01:00:0A:00:00:00:00;1727568456;29/09/24;00:07:36;1.016;0.008;0.073;-0.021991148591041565;-0.012217304669320583;0.0
01:00:0A:00:00:00:00;1727568457;29/09/24;00:07:37;1.017;0.007;0.074;-0.021991148591041565;-0.010995574295520782;0.0012217304902151227
01:00:0A:00:00:00:00;1727568458;29/09/24;00:07:38;1.016;0.008;0.074;-0.021991148591041565;-0.010995574295520782;0.0012217304902151227
01:00:0A:00:00:00:00;1727568459;29/09/24;00:07:39;1.016;0.009;0.073;-0.02076941914856434;-0.009773843921720982;0.0
01:00:0A:00:00:00:00;1727568460;29/09/24;00:07:40;1.014;0.009;0.074;-0.021991148591041565;-0.010995574295520782;0.0024434609804302454
01:00:0A:00:00:00:00;1727568461;29/09/24;00:07:41;1.014;0.007;0.075;-0.021991148591041565;-0.014660765416920185;0.0024434609804302454
01:00:0A:00:00:00:00;1727568462;29/09/24;00:07:42;1.016;0.008;0.073;-0.02076941914856434;-0.012217304669320583;0.0
01:00:0A:00:00:00:00;1727568463;29/09/24;00:07:43;1.017;0.008;0.074;-0.021991148591041565;-0.010995574295520782;0.0012217304902151227
01:00:0A:00:00:00:00;1727568464;29/09/24;00:07:44;1.016;0.005;0.074;-0.021991148591041565;-0.012217304669320583;0.0024434609804302454
01:00:0A:00:00:00:00;1727568465;29/09/24;00:07:45;1.015;0.008;0.072;-0.02076941914856434;-0.010995574295520782;0.0
01:00:0A:00:00:00:00;1727568466;29/09/24;00:07:46;1.015;0.009;0.074;-0.02076941914856434;-0.010995574295520782;0.0012217304902151227
01:00:0A:00:00:00:00;1727568467;29/09/24;00:07:47;1.016;0.008;0.074;-0.021991148591041565;-0.013439035043120384;0.0024434609804302454
01:00:0A:00:00:00:00;1727568468;29/09/24;00:07:48;1.016;0.007;0.073;-0.02076941914856434;-0.012217304669320583;0.0012217304902151227
01:00:0A:00:00:00:00;1727568469;29/09/24;00:07:49;1.016;0.008;0.074;-0.02076941914856434;-0.010995574295520782;0.0012217304902151227
01:00:0A:00:00:00:00;1727568470;29/09/24;00:07:50;1.015;0.008;0.073;-0.02076941914856434;-0.012217304669320583;0.0024434609804302454
01:00:0A:00:00:00:00;1727568471;29/09/24;00:07:51;1.016;0.008;0.073;-0.02076941914856434;-0.012217304669320583;0.0012217304902151227
01:00:0A:00:00:00:00;1727568472;29/09/24;00:07:52;1.016;0.009;0.073;-0.02076941914856434;-0.010995574295520782;0.0012217304902151227
01:00:0A:00:00:00:00;1727568473;29/09/24;00:07:53;1.016;0.007;0.074;-0.02076941914856434;-0.012217304669320583;0.0024434609804302454
01:00:0A:00:00:00:00;1727568474;29/09/24;00:07:54;1.015;0.007;0.072;-0.019547687843441963;-0.012217304669320583;0.0012217304902151227
01:00:0A:00:00:00:00;1727568475;29/09/24;00:07:55;1.016;0.008;0.073;-0.019547687843441963;-0.010995574295520782;0.0
01:00:0A:00:00:00:00;1727568476;29/09/24;00:07:56;1.016;0.009;0.073;-0.02076941914856434;-0.012217304669320583;0.0024434609804302454
01:00:0A:00:00:00:00;1727568477;29/09/24;00:07:57;1.015;0.008;0.072;-0.019547687843441963;-0.012217304669320583;0.0012217304902151227
01:00:0A:00:00:00:00;1727568478;29/09/24;00:07:58;1.016;0.008;0.073;-0.019547687843441963;-0.010995574295520782;0.0
01:00:0A:00:00:00:00;1727568479;29/09/24;00:07:59;1.016;0.007;0.074;-0.02076941914856434;-0.012217304669320583;0.0024434609804302454
01:00:0A:00:00:00:00;1727568480;29/09/24;00:08:00;1.015;0.006;0.072;-0.019547687843441963;-0.012217304669320583;0.0012217304902151227
01:00:0A:00:00:00:00;1727568481;29/09/24;00:08:01;1.016;0.007;0.072;-0.019547687843441963;-0.010995574295520782;0.0
01:00:0A:00:00:00:00;1727568482;29/09/24;00:08:02;1.016;0.007;0.073;-0.019547687843441963;-0.012217304669320583;0.0012217304902151227
01:00:0A:00:00:00:00;1727568483;29/09/24;00:08:03;1.015;0.007;0.073;-0.018325956538319588;-0.012217304669320583;0.0012217304902151227
01:00:0A:00:00:00:00;1727568484;29/09/24;00:08:04;1.016;0.008;0.073;-0.018325956538319588;-0.009773843921720982;0.0
01:00:0A:00:00:00:00;1727568485;29/09/24;00:08:05;1.016;0.008;0.074;-0.019547687843441963;-0.010995574295520782;0.0024434609804302454
01:00:0A:00:00:00:00;1727568486;29/09/24;00:08:06;1.015;0.008;0.073;-0.018325956538319588;-0.013439035043120384;0.0024434609804302454
01:00:0A:00:00:00:00;1727568487;29/09/24;00:08:07;1.015;0.009;0.073;-0.018325956538319588;-0.010995574295520782;0.0
01:00:0A:00:00:00:00;1727568488;29/09/24;00:08:08;1.016;0.009;0.074;-0.018325956538319588;-0.010995574295520782;0.0012217304902151227
01:00:0A:00:00:00:00;1727568489;29/09/24;00:08:09;1.016;0.007;0.073;-0.018325956538319588;-0.012217304669320583;0.0024434609804302454
01:00:0A:00:00:00:00;1727568490;29/09/24;00:08:10;1.015;0.007;0.073;-0.01710422709584236;-0.009773843921720982;0.0012217304902151227
01:00:0A:00:00:00:00;1727568491;29/09/24;00:08:11;1.015;0.009;0.074;-0.018325956538319588;-0.010995574295520782;0.0024434609804302454
01:00:0A:00:00:00:00;1727568492;29/09/24;00:08:12;1.016;0.006;0.073;-0.018325956538319588;-0.012217304669320583;0.0024434609804302454
01:00:0A:00:00:00:00;1727568493;29/09/24;00:08:13;1.015;0.008;0.073;-0.01710422709584236;-0.012217304669320583;0.0012217304902151227
01:00:0A:00:00:00:00;1727568494;29/09/24;00:08:14;1.016;0.008;0.074;-0.01710422709584236;-0.010995574295520782;0.0012217304902151227
01:00:0A:00:00:00:00;1727568495;29/09/24;00:08:15;1.016;0.009;0.074;-0.018325956538319588;-0.012217304669320583;0.0024434609804302454
01:00:0A:00:00:00:00;1727568496;29/09/24;00:08:16;1.015;0.008;0.073;-0.01710422709584236;-0.010995574295520782;0.0012217304902151227
01:00:0A:00:00:00:00;1727568497;29/09/24;00:08:17;1.016;0.008;0.074;-0.01710422709584236;-0.009773843921720982;0.0012217304902151227
01:00:0A:00:00:00:00;1727568498;29/09/24;00:08:18;1.016;0.008;0.073;-0.01710422709584236;-0.012217304669320583;0.0024434609804302454
01:00:0A:00:00:00:00;1727568499;29/09/24;00:08:19;1.016;0.008;0.073;-0.01710422709584236;-0.012217304669320583;0.0012217304902151227
01:00:0A:00:00:00:00;1727568500;29/09/24;00:08:20;1.015;0.008;0.074;-0.01710422709584236;-0.010995574295520782;0.0012217304902151227
01:00:0A:00:00:00:00;1727568501;29/09/24;00:08:21;1.016;0.007;0.074;-0.01710422709584236;-0.012217304669320583;0.0024434609804302454
01:00:0A:00:00:00:00;1727568502;29/09/24;00:08:22;1.016;0.007;0.072;-0.01710422709584236;-0.010995574295520782;0.0012217304902151227
01:00:0A:00:00:00:00;1727568503;29/09/24;00:08:23;1.014;0.009;0.074;-0.01710422709584236;-0.009773843921720982;0.0012217304902151227
01:00:0A:00:00:00:00;1727568504;29/09/24;00:08:24;1.014;0.008;0.074;-0.018325956538319588;-0.013439035043120384;0.0024434609804302454
01:00:0A:00:00:00:00;1727568505;29/09/24;00:08:25;1.015;0.007;0.073;-0.01710422709584236;-0.012217304669320583;0.0012217304902151227
01:00:0A:00:00:00:00;1727568506;29/09/24;00:08:26;1.016;0.008;0.073;-0.01710422709584236;-0.010995574295520782;0.0012217304902151227
01:00:0A:00:00:00:00;1727568507;29/09/24;00:08:27;1.016;0.008;0.073;-0.01710422709584236;-0.012217304669320583;0.0024434609804302454
01:00:0A:00:00:00:00;1727568508;29/09/24;00:08:28;1.016;0.007;0.073;-0.01710422709584236;-0.012217304669320583;0.0024434609804302454
01:00:0A:00:00:00:00;1727568509;29/09/24;00:08:29;1.014;0.008;0.073;-0.01710422709584236;-0.010995574295520782;0.0012217304902151227
01:00:0A:00:00:00:00;1727568510;29/09/24;00:08:30;1.015;0.008;0.074;-0.018325956538319588;-0.012217304669320583;0.0024434609804302454
01:00:0A:00:00:00:00;1727568511;29/09/24;00:08:31;1.016;0.007;0.072;-0.01710422709584236;-0.013439035043120384;0.0012217304902151227
01:00:0A:00:00:00:00;1727568512;29/09/24;00:08:32;1.016;0.008;0.073;-0.01710422709584236;-0.010995574295520782;0.0
01:00:0A:00:00:00:00;1727568513;29/09/24;00:08:33;1.016;0.008;0.074;-0.018325956538319588;-0.010995574295520782;0.0024434609804302454
01:00:0A:00:00:00:00;1727568514;29/09/24;00:08:34;1.015;0.007;0.073;-0.01710422709584236;-0.012217304669320583;0.0012217304902151227
01:00:0A:00:00:00:00;1727568515;29/09/24;00:08:35;1.015;0.009;0.073;-0.01710422709584236;-0.010995574295520782;0.0012217304902151227
01:00:0A:00:00:00:00;1727568516;29/09/24;00:08:36;1.015;0.008;0.074;-0.01710422709584236;-0.012217304669320583;0.0024434609804302454
01:00:0A:00:00:00:00;1727568517;29/09/24;00:08:37;1.016;0.008;0.073;-0.01710422709584236;-0.012217304669320583;0.0012217304902151227
01:00:0A:00:00:00:00;1727568518;29/09/24;00:08:38;1.016;0.007;0.072;-0.01710422709584236;-0.009773843921720982;0.0012217304902151227
01:00:0A:00:00:00:00;1727568519;29/09/24;00:08:39;1.016;0.009;0.072;-0.01710422709584236;-0.010995574295520782;0.0024434609804302454
01:00:0A:00:00:00:00;1727568520;29/09/24;00:08:40;1.014;0.007;0.073;-0.01710422709584236;-0.012217304669320583;0.0024434609804302454
01:00:0A:00:00:00:00;1727568521;29/09/24;00:08:41;1.016;0.008;0.073;-0.015882495790719986;-0.010995574295520782;0.0012217304902151227
01:00:0A:00:00:00:00;1727568522;29/09/24;00:08:42;1.015;0.008;0.073;-0.015882495790719986;-0.010995574295520782;0.0012217304902151227
01:00:0A:00:00:00:00;1727568523;29/09/24;00:08:43;1.016;0.008;0.074;-0.015882495790719986;-0.012217304669320583;0.0012217304902151227
01:00:0A:00:00:00:00;1727568524;29/09/24;00:08:44;1.016;0.008;0.073;-0.015882495790719986;-0.010995574295520782;0.0012217304902151227
01:00:0A:00:00:00:00;1727568525;29/09/24;00:08:45;1.016;0.008;0.073;-0.01710422709584236;-0.010995574295520782;0.0012217304902151227
01:00:0A:00:00:00:00;1727568526;29/09/24;00:08:46;1.016;0.008;0.074;-0.01710422709584236;-0.012217304669320583;0.0024434609804302454
01:00:0A:00:00:00:00;1727568527;29/09/24;00:08:47;1.016;0.008;0.072;-0.015882495790719986;-0.010995574295520782;0.0012217304902151227
01:00:0A:00:00:00:00;1727568528;29/09/24;00:08:48;1.016;0.008;0.073;-0.015882495790719986;-0.010995574295520782;0.0012217304902151227
01:00:0A:00:00:00:00;1727568529;29/09/24;00:08:49;1.016;0.008;0.074;-0.01710422709584236;-0.012217304669320583;0.0012217304902151227
01:00:0A:00:00:00:00;1727568530;29/09/24;00:08:50;1.016;0.014;0.069;-0.00855211354792118;-0.014660765416920185;-0.0036651913542300463
01:00:0A:00:00:00:00;1727568531;29/09/24;00:08:51;1.015;0.016;0.069;-0.0024434609804302454;-0.009773843921720982;0.0024434609804302454
01:00:0A:00:00:00:00;1727568532;29/09/24;00:08:52;1.015;0.011;0.073;-0.0024434609804302454;-0.00855211354792118;0.00855211354792118
01:00:0A:00:00:00:00;1727568533;29/09/24;00:08:53;1.015;0.004;0.074;-0.0024434609804302454;-0.010995574295520782;0.0073303827084600925
01:00:0A:00:00:00:00;1727568534;29/09/24;00:08:54;1.016;0.005;0.072;0.004886921960860491;-0.013439035043120384;-0.0036651913542300463
01:00:0A:00:00:00:00;1727568535;29/09/24;00:08:55;1.016;0.011;0.072;0.0024434609804302454;-0.010995574295520782;0.0
01:00:0A:00:00:00:00;1727568536;29/09/24;00:08:56;1.016;0.007;0.073;-0.0024434609804302454;-0.009773843921720982;0.00855211354792118
01:00:0A:00:00:00:00;1727568537;29/09/24;00:08:57;1.016;0.005;0.074;0.0024434609804302454;-0.012217304669320583;0.0012217304902151227
01:00:0A:00:00:00:00;1727568538;29/09/24;00:08:58;1.015;0.009;0.073;0.0036651913542300463;-0.010995574295520782;-0.0024434609804302454
01:00:0A:00:00:00:00;1727568539;29/09/24;00:08:59;1.016;0.01;0.073;-0.0024434609804302454;-0.009773843921720982;0.006108652334660292
01:00:0A:00:00:00:00;1727568540;29/09/24;00:09:00;1.016;0.005;0.074;0.0;-0.010995574295520782;0.0036651913542300463
01:00:0A:00:00:00:00;1727568541;29/09/24;00:09:01;1.016;0.008;0.073;0.0036651913542300463;-0.012217304669320583;-0.0012217304902151227
01:00:0A:00:00:00:00;1727568542;29/09/24;00:09:02;1.016;0.01;0.073;0.0;-0.009773843921720982;0.0036651913542300463
01:00:0A:00:00:00:00;1727568543;29/09/24;00:09:03;1.016;0.007;0.074;-0.0012217304902151227;-0.010995574295520782;0.004886921960860491
01:00:0A:00:00:00:00;1727568544;29/09/24;00:09:04;1.016;0.006;0.075;0.0024434609804302454;-0.012217304669320583;0.0
01:00:0A:00:00:00:00;1727568545;29/09/24;00:09:05;1.016;0.009;0.072;0.0012217304902151227;-0.010995574295520782;0.0012217304902151227
01:00:0A:00:00:00:00;1727568546;29/09/24;00:09:06;1.015;0.008;0.073;-0.0024434609804302454;-0.009773843921720982;0.006108652334660292
01:00:0A:00:00:00:00;1727568547;29/09/24;00:09:07;1.015;0.007;0.073;0.0012217304902151227;-0.012217304669320583;0.0024434609804302454
01:00:0A:00:00:00:00;1727568548;29/09/24;00:09:08;1.015;0.009;0.072;0.0012217304902151227;-0.012217304669320583;0.0012217304902151227
01:00:0A:00:00:00:00;1727568549;29/09/24;00:09:09;1.015;0.009;0.074;-0.0012217304902151227;-0.009773843921720982;0.0036651913542300463
01:00:0A:00:00:00:00;1727568550;29/09/24;00:09:10;1.016;0.007;0.074;0.0;-0.012217304669320583;0.0024434609804302454
01:00:0A:00:00:00:00;1727568551;29/09/24;00:09:11;1.016;0.007;0.072;0.0012217304902151227;-0.012217304669320583;0.0
01:00:0A:00:00:00:00;1727568552;29/09/24;00:09:12;1.016;0.008;0.074;0.0;-0.009773843921720982;0.0024434609804302454
01:00:0A:00:00:00:00;1727568553;29/09/24;00:09:13;1.016;0.007;0.074;-0.0012217304902151227;-0.010995574295520782;0.0036651913542300463
01:00:0A:00:00:00:00;1727568554;29/09/24;00:09:14;1.015;0.006;0.073;0.0012217304902151227;-0.012217304669320583;0.0012217304902151227
01:00:0A:00:00:00:00;1727568555;29/09/24;00:09:15;1.015;0.008;0.073;0.0;-0.009773843921720982;0.0024434609804302454
01:00:0A:00:00:00:00;1727568556;29/09/24;00:09:16;1.016;0.008;0.074;-0.0012217304902151227;-0.009773843921720982;0.0036651913542300463
01:00:0A:00:00:00:00;1727568557;29/09/24;00:09:17;1.016;0.007;0.073;0.0;-0.012217304669320583;0.0024434609804302454
01:00:0A:00:00:00:00;1727568558;29/09/24;00:09:18;1.016;0.009;0.073;0.0012217304902151227;-0.010995574295520782;0.0012217304902151227
01:00:0A:00:00:00:00;1727568559;29/09/24;00:09:19;1.015;0.008;0.074;-0.0012217304902151227;-0.010995574295520782;0.0036651913542300463
01:00:0A:00:00:00:00;1727568560;29/09/24;00:09:20;1.017;0.007;0.074;0.0;-0.014660765416920185;0.0036651913542300463
01:00:0A:00:00:00:00;1727568561;29/09/24;00:09:21;1.019;0.009;0.073;0.0;-0.006108652334660292;0.0
01:00:0A:00:00:00:00;1727568562;29/09/24;00:09:22;1.018;0.01;0.072;-0.0012217304902151227;0.00855211354792118;-0.0012217304902151227
01:00:0A:00:00:00:00;1727568563;29/09/24;00:09:23;1.006;0.006;0.061;0.0;-0.010995574295520782;0.0
01:00:0A:00:00:00:00;1727568564;29/09/24;00:09:24;0.997;0.006;0.06;0.0012217304902151227;-0.01710422709584236;-0.0012217304902151227
01:00:0A:00:00:00:00;1727568565;29/09/24;00:09:25;0.999;0.007;0.071;-0.0012217304902151227;-0.0354301817715168;0.0036651913542300463
01:00:0A:00:00:00:00;1727568566;29/09/24;00:09:26;1.007;0.005;0.078;-0.0012217304902151227;-0.051312677562236786;0.012217304669320583
01:00:0A:00:00:00:00;1727568567;29/09/24;00:09:27;1.032;0.0;0.092;0.009773843921720982;-0.004886921960860491;0.018325956538319588
01:00:0A:00:00:00:00;1727568568;29/09/24;00:09:28;1.047;-0.027;0.094;0.059864792972803116;0.05253440886735916;0.009773843921720982
01:00:0A:00:00:00:00;1727568569;29/09/24;00:09:29;1.026;0.048;0.066;0.0708603635430336;-0.014660765416920185;-0.12461651116609573
01:00:0A:00:00:00:00;1727568570;29/09/24;00:09:30;0.987;0.067;-0.004;-0.09896016865968704;-0.028099799528717995;-0.06230825558304787
01:00:0A:00:00:00:00;1727568571;29/09/24;00:09:31;0.974;0.096;0.115;-0.3078760802745819;0.02076941914856434;0.06230825558304787
01:00:0A:00:00:00:00;1727568572;29/09/24;00:09:32;1.001;0.01;0.132;-0.3017674386501312;-0.2687807083129883;0.04398229718208313
01:00:0A:00:00:00:00;1727568573;29/09/24;00:09:33;1.022;0.0;0.023;-0.2638937830924988;-0.0073303827084600925;-0.07941248267889023
01:00:0A:00:00:00:00;1727568574;29/09/24;00:09:34;1.004;0.038;0.163;-0.3078760802745819;0.17592918872833252;0.04642575979232788
01:00:0A:00:00:00:00;1727568575;29/09/24;00:09:35;0.991;-0.043;0.14;-0.1661553531885147;-0.1417207270860672;0.10018189996480942
01:00:0A:00:00:00:00;1727568576;29/09/24;00:09:36;0.989;0.024;0.093;-0.018325956538319588;0.02321287989616394;-0.13439035415649414
01:00:0A:00:00:00:00;1727568577;29/09/24;00:09:37;1.008;0.104;0.207;-0.07330382615327835;-0.18936821818351746;0.11728612333536148
01:00:0A:00:00:00:00;1727568578;29/09/24;00:09:38;1.068;0.026;0.047;-0.14049901068210602;0.012217304669320583;0.14782939851284027
01:00:0A:00:00:00:00;1727568579;29/09/24;00:09:39;1.076;0.022;0.196;-0.09040805697441101;0.14294245839118958;-0.07696902006864548
01:00:0A:00:00:00:00;1727568580;29/09/24;00:09:40;1.054;0.111;0.053;-0.14049901068210602;0.04153883829712868;-0.07696902006864548
01:00:0A:00:00:00:00;1727568581;29/09/24;00:09:41;0.954;-0.135;0.094;-0.09896016865968704;0.17470745742321014;0.2687807083129883
01:00:0A:00:00:00:00;1727568582;29/09/24;00:09:42;0.934;0.088;-0.027;0.17348572611808777;-0.21868975460529327;-0.5265658497810364
01:00:0A:00:00:00:00;1727568583;29/09/24;00:09:43;0.947;-0.008;0.042;-0.20402899384498596;0.14294245839118958;0.76846843957901
01:00:0A:00:00:00:00;1727568584;29/09/24;00:09:44;0.966;-0.101;0.059;0.4092797040939331;-0.16249015927314758;-0.646295428276062
01:00:0A:00:00:00:00;1727568585;29/09/24;00:09:45;0.981;0.282;0.028;0.15393804013729095;0.0708603635430336;0.02076941914856434
01:00:0A:00:00:00:00;1727568586;29/09/24;00:09:46;1.018;0.054;0.225;-0.10384709388017654;0.22357667982578278;0.322536826133728
01:00:0A:00:00:00:00;1727568587;29/09/24;00:09:47;0.994;-0.167;0.014;0.5253441333770752;-0.05497787147760391;-0.12217304855585098
01:00:0A:00:00:00:00;1727568588;29/09/24;00:09:48;0.951;0.097;0.101;0.6230825185775757;0.13561207056045532;-0.2076941877603531
01:00:0A:00:00:00:00;1727568589;29/09/24;00:09:49;0.973;-0.08;0.064;0.47280970215797424;-0.24190263450145721;0.46303585171699524
01:00:0A:00:00:00:00;1727568590;29/09/24;00:09:50;1.013;-0.171;-0.016;0.9101892113685608;0.06108652427792549;-0.6597344279289246
01:00:0A:00:00:00:00;1727568591;29/09/24;00:09:51;1.001;0.24;0.129;0.7049384713172913;0.9346237778663635;0.6377432942390442
01:00:0A:00:00:00:00;1727568592;29/09/24;00:09:52;0.864;0.214;0.494;2.1258111000061035;-0.03420845419168472;0.7965682148933411
01:00:0A:00:00:00:00;1727568593;29/09/24;00:09:53;0.956;-0.326;0.14;2.394591808319092;-0.3286454975605011;0.4764748811721802
01:00:0A:00:00:00:00;1727568594;29/09/24;00:09:54;0.987;-0.025;0.114;2.7843236923217773;-0.46547931432724;0.26022857427597046
01:00:0A:00:00:00:00;1727568595;29/09/24;00:09:55;0.967;-0.048;-0.025;2.65726375579834;0.0;-0.27122414112091064
01:00:0A:00:00:00:00;1727568596;29/09/24;00:09:56;0.985;-0.061;-0.05;2.3041834831237793;0.17470745742321014;-0.4202752709388733
01:00:0A:00:00:00:00;1727568597;29/09/24;00:09:57;1.057;-0.009;-0.097;1.907121181488037;0.24068090319633484;-0.06963863223791122
01:00:0A:00:00:00:00;1727568598;29/09/24;00:09:58;1.022;0.222;0.224;1.5943583250045776;-0.2382374405860901;0.4544837474822998
01:00:0A:00:00:00:00;1727568599;29/09/24;00:09:59;1.023;-0.303;0.16;1.588249683380127;-0.09529497474431992;0.2736676335334778
01:00:0A:00:00:00:00;1727568600;29/09/24;00:10:00;1.013;-0.255;0.135;1.870469331741333;-0.4239404499530792;0.4996877610683441
01:00:0A:00:00:00:00;1727568601;29/09/24;00:10:01;0.968;-0.148;0.168;2.1429152488708496;-0.2382374405860901;0.3335324227809906
01:00:0A:00:00:00:00;1727568602;29/09/24;00:10:02;0.951;0.006;0.101;1.880243182182312;-0.02932153083384037;0.18081611394882202
01:00:0A:00:00:00:00;1727568603;29/09/24;00:10:03;0.952;0.127;0.09;1.3610076904296875;0.22846359014511108;0.04398229718208313
01:00:0A:00:00:00:00;1727568604;29/09/24;00:10:04;0.999;0.154;0.156;0.7696901559829712;0.38117989897727966;0.607200026512146
01:00:0A:00:00:00:00;1727568605;29/09/24;00:10:05;0.963;0.037;0.424;0.8894197940826416;-0.2724458873271942;-0.0073303827084600925
01:00:0A:00:00:00:00;1727568606;29/09/24;00:10:06;1.05;-0.013;0.035;0.6389650106430054;-0.12095131725072861;0.445931613445282
01:00:0A:00:00:00:00;1727568607;29/09/24;00:10:07;0.949;-0.259;0.346;1.0580185651779175;-0.02076941914856434;0.2895500957965851
01:00:0A:00:00:00:00;1727568608;29/09/24;00:10:08;0.942;-0.359;-0.069;1.5161675214767456;-0.8735373020172119;0.4740314185619354
01:00:0A:00:00:00:00;1727568609;29/09/24;00:10:09;0.835;-0.443;0.401;2.2687535285949707;-0.7965682148933411;0.2724458873271942
01:00:0A:00:00:00:00;1727568610;29/09/24;00:10:10;0.939;-0.201;0.319;2.5253169536590576;-0.9248499870300293;0.8930849432945251
01:00:0A:00:00:00:00;1727568611;29/09/24;00:10:11;0.871;0.059;0.523;2.6316075325012207;-0.02321287989616394;0.8185594081878662
01:00:0A:00:00:00:00;1727568612;29/09/24;00:10:12;0.915;0.329;0.338;1.7495180368423462;0.8161159753799438;0.9517280459403992
01:00:0A:00:00:00:00;1727568613;29/09/24;00:10:13;0.901;0.037;0.553;1.4208725690841675;0.46181410551071167;0.93095862865448
01:00:0A:00:00:00:00;1727568614;29/09/24;00:10:14;0.908;-0.179;0.482;1.6358970403671265;-0.49357908964157104;1.1704179048538208
01:00:0A:00:00:00:00;1727568615;29/09/24;00:10:15;0.875;-0.505;-0.199;1.1264355182647705;-1.6163493394851685;-0.1563815027475357
01:00:0A:00:00:00:00;1727568616;29/09/24;00:10:16;0.923;-0.155;-0.466;1.8961256742477417;-0.042760565876960754;-1.1728612184524536
01:00:0A:00:00:00:00;1727568617;29/09/24;00:10:17;0.854;0.445;-0.24;1.3341296911239624;0.6047565937042236;-0.3530800938606262
01:00:0A:00:00:00:00;1727568618;29/09/24;00:10:18;0.911;0.207;0.412;0.9798278212547302;1.3512338399887085;1.0445796251296997
01:00:0A:00:00:00:00;1727568619;29/09/24;00:10:19;0.917;-0.506;0.296;1.8753563165664673;-0.587652325630188;1.0470229387283325
01:00:0A:00:00:00:00;1727568620;29/09/24;00:10:20;1.016;-0.339;-0.024;2.4727823734283447;-1.0409142971038818;0.0659734457731247
01:00:0A:00:00:00:00;1727568621;29/09/24;00:10:21;0.905;-0.597;0.122;2.3383920192718506;0.49235740303993225;0.6255260109901428
01:00:0A:00:00:00:00;1727568622;29/09/24;00:10:22;0.774;-0.421;0.659;0.9272934198379517;-0.2431243658065796;1.0348056554794312
01:00:0A:00:00:00:00;1727568623;29/09/24;00:10:23;0.732;-0.409;0.623;2.1062633991241455;-0.8112289905548096;1.6762142181396484
01:00:0A:00:00:00:00;1727568624;29/09/24;00:10:24;0.977;-0.222;0.308;2.765997886657715;-0.8197811245918274;0.5351179242134094
01:00:0A:00:00:00:00;1727568625;29/09/24;00:10:25;0.99;-0.233;-0.069;3.07387375831604;-0.6951646208763123;-0.06841690838336945
01:00:0A:00:00:00:00;1727568626;29/09/24;00:10:26;0.992;-0.09;-0.096;3.152064800262451;-0.7709119319915771;0.09407324343919754
01:00:0A:00:00:00:00;1727568627;29/09/24;00:10:27;0.925;0.048;0.422;3.1031954288482666;-0.03176499158143997;0.294437050819397
01:00:0A:00:00:00:00;1727568628;29/09/24;00:10:28;0.991;0.104;0.244;2.2883012294769287;0.6548475623130798;0.3481931686401367
01:00:0A:00:00:00:00;1727568629;29/09/24;00:10:29;0.998;0.187;-0.043;1.440420150756836;0.08552113175392151;0.24190263450145721
01:00:0A:00:00:00:00;1727568630;29/09/24;00:10:30;0.98;0.025;0.089;1.0885618925094604;0.16982054710388184;-0.07330382615327835
01:00:0A:00:00:00:00;1727568631;29/09/24;00:10:31;0.97;0.046;-0.137;0.7819074988365173;-0.19914205372333527;0.19303341209888458
01:00:0A:00:00:00:00;1727568632;29/09/24;00:10:32;0.979;-0.04;-0.015;0.7159340977668762;0.375071257352829;-0.4593706727027893
01:00:0A:00:00:00:00;1727568633;29/09/24;00:10:33;0.988;0.168;0.007;0.3445279896259308;-0.02321287989616394;0.3738495111465454
01:00:0A:00:00:00:00;1727568634;29/09/24;00:10:34;1.003;-0.085;0.136;0.3543018400669098;-0.042760565876960754;-0.33719760179519653
01:00:0A:00:00:00:00;1727568635;29/09/24;00:10:35;1.027;0.119;0.055;0.17592918872833252;-0.24556782841682434;0.02932153083384037
01:00:0A:00:00:00:00;1727568636;29/09/24;00:10:36;1.015;0.165;0.043;-0.2223549485206604;0.485027015209198;0.1160643920302391
01:00:0A:00:00:00:00;1727568637;29/09/24;00:10:37;0.96;-0.04;0.341;-0.1368338167667389;0.0;0.15393804013729095
01:00:0A:00:00:00:00;1727568638;29/09/24;00:10:38;0.981;-0.133;0.112;0.27000245451927185;-0.5045746564865112;0.12339477241039276
01:00:0A:00:00:00:00;1727568639;29/09/24;00:10:39;0.986;-0.136;0.006;0.6206390857696533;-0.10018189996480942;-0.13561207056045532
01:00:0A:00:00:00:00;1727568640;29/09/24;00:10:40;1.014;-0.054;0.094;0.8271114826202393;-0.2223549485206604;-0.14905111491680145
01:00:0A:00:00:00:00;1727568641;29/09/24;00:10:41;1.021;0.006;-0.147;0.8210028409957886;-0.10873401165008545;-0.22113320231437683
01:00:0A:00:00:00:00;1727568642;29/09/24;00:10:42;1.026;0.123;-0.085;0.645073652267456;0.39706242084503174;-0.32620203495025635
01:00:0A:00:00:00:00;1727568643;29/09/24;00:10:43;1.011;0.155;0.19;0.3738495111465454;0.24678954482078552;0.06108652427792549
01:00:0A:00:00:00:00;1727568644;29/09/24;00:10:44;0.966;0.121;0.229;0.2565633952617645;0.2785545289516449;0.3481931686401367
01:00:0A:00:00:00:00;1727568645;29/09/24;00:10:45;0.875;-0.408;0.328;0.7147123217582703;-0.1820378452539444;0.8857545852661133
01:00:0A:00:00:00:00;1727568646;29/09/24;00:10:46;0.826;-0.491;0.353;1.6029103994369507;-1.0213667154312134;0.6401867866516113
01:00:0A:00:00:00:00;1727568647;29/09/24;00:10:47;0.791;-0.478;0.244;0.5510004162788391;-2.580294609069824;0.9578366875648499
01:00:0A:00:00:00:00;1727568648;29/09/24;00:10:48;0.486;-0.71;-0.68;2.0989327430725098;-1.6163493394851685;-1.4880677461624146
01:00:0A:00:00:00:00;1727568649;29/09/24;00:10:49;0.825;-0.254;-0.557;2.344500780105591;-0.013439035043120384;-1.9230037927627563
01:00:0A:00:00:00:00;1727568650;29/09/24;00:10:50;1.003;-0.063;-0.081;3.2681288719177246;1.2705997228622437;0.2638937830924988
01:00:0A:00:00:00:00;1727568651;29/09/24;00:10:51;0.926;-0.189;-0.096;3.306002616882324;-0.38728854060173035;-0.22479839622974396
01:00:0A:00:00:00:00;1727568652;29/09/24;00:10:52;0.949;-0.141;0.019;3.1312952041625977;-0.9859364628791809;0.09162978082895279
01:00:0A:00:00:00:00;1727568653;29/09/24;00:10:53;0.88;-0.076;0.301;3.2424726486206055;-0.9834930300712585;0.25534167885780334
01:00:0A:00:00:00:00;1727568654;29/09/24;00:10:54;0.993;-0.056;0.17;2.7562239170074463;0.03420845419168472;0.2919935882091522
01:00:0A:00:00:00:00;1727568655;29/09/24;00:10:55;0.914;0.398;0.271;1.93766450881958;1.2131783962249756;0.7599163055419922
01:00:0A:00:00:00:00;1727568656;29/09/24;00:10:56;0.706;0.479;0.532;0.9101892113685608;0.4337143301963806;1.1191051006317139
01:00:0A:00:00:00:00;1727568657;29/09/24;00:10:57;0.919;-0.169;0.418;0.5815436840057373;-0.5192354917526245;1.0946705341339111
01:00:0A:00:00:00:00;1727568658;29/09/24;00:10:58;0.987;-0.195;0.069;1.1655309200286865;-0.5143485069274902;-0.010995574295520782
01:00:0A:00:00:00:00;1727568659;29/09/24;00:10:59;0.94;-0.274;0.178;1.3695597648620605;-0.18570303916931152;0.3286454975605011
01:00:0A:00:00:00:00;1727568660;29/09/24;00:11:00;0.98;-0.153;0.122;1.8020524978637695;-0.9896016716957092;-0.21868975460529327
01:00:0A:00:00:00:00;1727568661;29/09/24;00:11:01;1.006;-0.111;0.028;1.9804250001907349;0.1514945775270462;-0.7000515460968018
01:00:0A:00:00:00:00;1727568662;29/09/24;00:11:02;0.963;0.298;0.098;1.4880677461624146;0.2541199326515198;0.13439035415649414
01:00:0A:00:00:00:00;1727568663;29/09/24;00:11:03;1.008;0.09;0.088;0.978606104850769;0.2675589621067047;0.3188716471195221
01:00:0A:00:00:00:00;1727568664;29/09/24;00:11:04;1.004;-0.009;0.053;0.9761626720428467;-0.38117989897727966;-0.06719517707824707
01:00:0A:00:00:00:00;1727568665;29/09/24;00:11:05;0.991;-0.051;-0.014;0.8393288850784302;0.1771509200334549;-0.013439035043120384
01:00:0A:00:00:00:00;1727568666;29/09/24;00:11:06;0.984;0.075;0.071;0.8698720932006836;-0.2919935882091522;-0.2541199326515198
01:00:0A:00:00:00:00;1727568667;29/09/24;00:11:07;0.985;-0.04;-0.236;0.7012733221054077;0.04642575979232788;-0.09529497474431992
01:00:0A:00:00:00:00;1727568668;29/09/24;00:11:08;1.029;0.043;-0.067;0.616973876953125;0.46547931432724;-0.39217546582221985
01:00:0A:00:00:00:00;1727568669;29/09/24;00:11:09;0.969;0.353;0.152;0.251676470041275;0.12461651116609573;0.12217304855585098
01:00:0A:00:00:00:00;1727568670;29/09/24;00:11:10;1.029;-0.156;0.081;0.1258382350206375;-0.09529497474431992;0.38240164518356323
01:00:0A:00:00:00:00;1727568671;29/09/24;00:11:11;0.993;-0.072;0.11;0.46303585171699524;0.21624629199504852;-0.25045475363731384
01:00:0A:00:00:00:00;1727568672;29/09/24;00:11:12;0.933;-0.059;0.329;0.445931613445282;0.2919935882091522;0.5216788649559021
01:00:0A:00:00:00:00;1727568673;29/09/24;00:11:13;0.908;-0.356;0.324;0.8735373020172119;-0.44226640462875366;0.587652325630188
01:00:0A:00:00:00:00;1727568674;29/09/24;00:11:14;0.835;-0.56;0.255;1.6004669666290283;-0.9517280459403992;0.5510004162788391
01:00:0A:00:00:00:00;1727568675;29/09/24;00:11:15;0.866;-0.378;0.447;2.1319196224212646;-0.891863226890564;0.5546656250953674
01:00:0A:00:00:00:00;1727568676;29/09/24;00:11:16;0.887;-0.116;0.482;2.1759018898010254;-0.7464773058891296;1.2376129627227783
01:00:0A:00:00:00:00;1727568677;29/09/24;00:11:17;0.879;0.097;0.519;2.0231857299804688;-0.2370157092809677;0.656069278717041
01:00:0A:00:00:00:00;1727568678;29/09/24;00:11:18;0.976;0.108;0.277;1.4563027620315552;0.1417207270860672;0.8356636166572571
01:00:0A:00:00:00:00;1727568679;29/09/24;00:11:19;0.995;0.115;0.176;1.2095131874084473;-0.3090977966785431;0.15515977144241333
01:00:0A:00:00:00:00;1727568680;29/09/24;00:11:20;1.02;-0.055;-0.036;0.9566149115562439;0.21868975460529327;0.025656338781118393
01:00:0A:00:00:00:00;1727568681;29/09/24;00:11:21;0.987;0.246;0.102;0.7122688889503479;-0.01710422709584236;-0.21013763546943665
01:00:0A:00:00:00:00;1727568682;29/09/24;00:11:22;0.985;0.265;-0.117;0.07941248267889023;-0.09651670604944229;0.3494149148464203
01:00:0A:00:00:00:00;1727568683;29/09/24;00:11:23;1.02;-0.134;-0.069;-0.07696902006864548;0.16982054710388184;0.028099799528717995
01:00:0A:00:00:00:00;1727568684;29/09/24;00:11:24;1.011;0.121;0.148;-0.0354301817715168;0.080634206533432;-0.3897320330142975
01:00:0A:00:00:00:00;1727568685;29/09/24;00:11:25;1.015;0.086;0.031;-0.2528982162475586;-0.15515977144241333;0.09896016865968704
01:00:0A:00:00:00:00;1727568686;29/09/24;00:11:26;1.001;-0.135;0.007;-0.2174680233001709;0.06230825558304787;0.12217304855585098
01:00:0A:00:00:00:00;1727568687;29/09/24;00:11:27;0.994;-0.022;0.083;-0.04398229718208313;0.04398229718208313;-0.23579397797584534
01:00:0A:00:00:00:00;1727568688;29/09/24;00:11:28;0.984;0.051;0.068;-0.1368338167667389;-0.14782939851284027;0.06841690838336945
01:00:0A:00:00:00:00;1727568689;29/09/24;00:11:29;0.989;-0.066;0.053;-0.14049901068210602;0.0073303827084600925;0.07819075137376785
01:00:0A:00:00:00:00;1727568690;29/09/24;00:11:30;0.997;-0.013;0.086;-0.010995574295520782;0.01710422709584236;-0.19914205372333527
01:00:0A:00:00:00:00;1727568691;29/09/24;00:11:31;1.019;0.116;0.106;-0.13316862285137177;0.059864792972803116;0.07941248267889023
01:00:0A:00:00:00:00;1727568692;29/09/24;00:11:32;1.059;-0.051;0.086;-0.14538592100143433;-0.024434609338641167;0.06719517707824707
01:00:0A:00:00:00:00;1727568693;29/09/24;00:11:33;1.058;-0.018;-0.026;-0.09407324343919754;-0.040317103266716;-0.059864792972803116
01:00:0A:00:00:00:00;1727568694;29/09/24;00:11:34;0.988;0.049;0.157;-0.1820378452539444;0.27977627515792847;-0.04398229718208313
01:00:0A:00:00:00:00;1727568695;29/09/24;00:11:35;0.971;-0.007;0.039;-0.1722639948129654;-0.22479839622974396;0.1014036238193512
01:00:0A:00:00:00:00;1727568696;29/09/24;00:11:36;0.953;0.053;0.067;-0.21135938167572021;0.2773328125476837;-0.07330382615327835
01:00:0A:00:00:00:00;1727568697;29/09/24;00:11:37;0.968;0.088;0.109;-0.2724458873271942;-0.29688048362731934;0.05253440886735916
01:00:0A:00:00:00:00;1727568698;29/09/24;00:11:38;0.985;0.199;-0.062;-0.44348815083503723;-0.13316862285137177;0.0012217304902151227
01:00:0A:00:00:00:00;1727568699;29/09/24;00:11:39;1.006;0.15;0.025;-0.7611380815505981;0.021991148591041565;0.18325956165790558
01:00:0A:00:00:00:00;1727568700;29/09/24;00:11:40;1.019;-0.036;0.051;-0.7257078886032104;0.07819075137376785;-0.0354301817715168
01:00:0A:00:00:00:00;1727568701;29/09/24;00:11:41;1.014;0.012;0.15;-0.6181955933570862;0.02076941914856434;-0.1111774742603302
01:00:0A:00:00:00:00;1727568702;29/09/24;00:11:42;1.017;0.049;0.127;-0.5155702233314514;-0.2125810980796814;-0.05009094998240471
01:00:0A:00:00:00:00;1727568703;29/09/24;00:11:43;1.036;-0.038;0.039;-0.44104471802711487;0.03787364438176155;-0.0354301817715168
01:00:0A:00:00:00:00;1727568704;29/09/24;00:11:44;1.032;-0.066;0.173;-0.29688048362731934;0.15393804013729095;-0.08796459436416626
01:00:0A:00:00:00:00;1727568705;29/09/24;00:11:45;1.026;0.031;0.049;-0.24434609711170197;-0.05497787147760391;-0.04398229718208313
01:00:0A:00:00:00:00;1727568706;29/09/24;00:11:46;1.015;0.0;-0.023;-0.3274237811565399;0.02321287989616394;0.0708603635430336
01:00:0A:00:00:00:00;1727568707;29/09/24;00:11:47;1.001;0.026;0.078;-0.33597588539123535;0.07819075137376785;-0.12217304855585098
01:00:0A:00:00:00:00;1727568708;29/09/24;00:11:48;1.001;0.042;0.076;-0.35063666105270386;-0.1771509200334549;-0.07330382615327835
01:00:0A:00:00:00:00;1727568709;29/09/24;00:11:49;1.008;-0.021;0.013;-0.3995058536529541;-0.05864306166768074;0.009773843921720982
01:00:0A:00:00:00:00;1727568710;29/09/24;00:11:50;1.011;-0.044;0.079;-0.38606682419776917;0.02687807008624077;0.015882495790719986
01:00:0A:00:00:00:00;1727568711;29/09/24;00:11:51;1.018;-0.022;0.094;-0.3298672139644623;-0.16249015927314758;0.019547687843441963
01:00:0A:00:00:00:00;1727568712;29/09/24;00:11:52;1.029;0.028;0.06;-0.3335324227809906;-0.05009094998240471;0.07819075137376785
01:00:0A:00:00:00:00;1727568713;29/09/24;00:11:53;1.03;-0.007;0.113;-0.3090977966785431;0.018325956538319588;0.08918632566928864
01:00:0A:00:00:00:00;1727568714;29/09/24;00:11:54;1.009;0.04;0.08;-0.25534167885780334;0.018325956538319588;-0.07819075137376785
01:00:0A:00:00:00:00;1727568715;29/09/24;00:11:55;0.984;0.041;0.08;-0.3042108714580536;0.05864306166768074;0.04398229718208313
01:00:0A:00:00:00:00;1727568716;29/09/24;00:11:56;0.996;-0.01;0.057;-0.2638937830924988;-0.02932153083384037;-0.0012217304902151227
01:00:0A:00:00:00:00;1727568717;29/09/24;00:11:57;1.021;0.001;0.043;-0.2015855312347412;-0.030543262138962746;-0.06719517707824707
01:00:0A:00:00:00:00;1727568718;29/09/24;00:11:58;1.056;0.028;0.07;-0.2125810980796814;-0.06108652427792549;0.0073303827084600925
01:00:0A:00:00:00:00;1727568719;29/09/24;00:11:59;1.053;-0.052;0.07;-0.17104226350784302;-0.021991148591041565;0.00855211354792118
01:00:0A:00:00:00:00;1727568720;29/09/24;00:12:00;1.029;0.006;0.081;-0.12339477241039276;0.018325956538319588;-0.10018189996480942
01:00:0A:00:00:00:00;1727568721;29/09/24;00:12:01;0.98;-0.03;0.068;-0.15271630883216858;0.01710422709584236;0.0659734457731247
01:00:0A:00:00:00:00;1727568722;29/09/24;00:12:02;0.974;-0.037;0.047;-0.09529497474431992;-0.01710422709584236;-0.0012217304902151227
01:00:0A:00:00:00:00;1727568723;29/09/24;00:12:03;0.997;0.007;0.046;-0.10873401165008545;0.012217304669320583;0.0659734457731247
01:00:0A:00:00:00:00;1727568724;29/09/24;00:12:04;1.02;0.009;0.066;-0.11362093687057495;-0.03787364438176155;0.07696902006864548
01:00:0A:00:00:00:00;1727568725;29/09/24;00:12:05;1.039;0.009;0.042;-0.08674286305904388;-0.03420845419168472;-0.009773843921720982
01:00:0A:00:00:00:00;1727568726;29/09/24;00:12:06;1.037;0.032;0.06;-0.07452555745840073;0.028099799528717995;-0.03176499158143997
01:00:0A:00:00:00:00;1727568727;29/09/24;00:12:07;1.036;-0.003;0.079;-0.051312677562236786;0.012217304669320583;-0.040317103266716
01:00:0A:00:00:00:00;1727568728;29/09/24;00:12:08;1.023;-0.03;0.058;-0.013439035043120384;-0.02321287989616394;-0.02321287989616394
01:00:0A:00:00:00:00;1727568729;29/09/24;00:12:09;1.016;-0.026;0.065;-0.0012217304902151227;0.028099799528717995;0.009773843921720982
01:00:0A:00:00:00:00;1727568730;29/09/24;00:12:10;0.997;-0.021;0.08;0.0036651913542300463;0.0024434609804302454;0.08552113175392151
01:00:0A:00:00:00:00;1727568731;29/09/24;00:12:11;0.988;-0.007;0.062;0.03298672288656235;-0.00855211354792118;0.07696902006864548
01:00:0A:00:00:00:00;1727568732;29/09/24;00:12:12;0.993;0.029;0.057;0.051312677562236786;0.006108652334660292;0.045204028487205505
01:00:0A:00:00:00:00;1727568733;29/09/24;00:12:13;1.008;0.033;0.06;0.07330382615327835;-0.02687807008624077;0.004886921960860491
01:00:0A:00:00:00:00;1727568734;29/09/24;00:12:14;1.035;0.012;0.054;0.08674286305904388;-0.02321287989616394;-0.051312677562236786
01:00:0A:00:00:00:00;1727568735;29/09/24;00:12:15;1.037;-0.007;0.066;0.08307767659425735;-0.006108652334660292;-0.012217304669320583
01:00:0A:00:00:00:00;1727568736;29/09/24;00:12:16;1.027;-0.027;0.078;0.09040805697441101;0.0024434609804302454;0.018325956538319588
01:00:0A:00:00:00:00;1727568737;29/09/24;00:12:17;1.012;0.0;0.072;0.08185594528913498;0.028099799528717995;0.04886921867728233
01:00:0A:00:00:00:00;1727568738;29/09/24;00:12:18;1.019;0.009;0.069;0.06719517707824707;0.03787364438176155;0.05253440886735916
01:00:0A:00:00:00:00;1727568739;29/09/24;00:12:19;1.037;0.004;0.073;0.08307767659425735;0.028099799528717995;0.006108652334660292
01:00:0A:00:00:00:00;1727568740;29/09/24;00:12:20;1.047;0.007;0.059;0.10262535512447357;0.012217304669320583;-0.024434609338641167
01:00:0A:00:00:00:00;1727568741;29/09/24;00:12:21;1.023;-0.003;0.053;0.1014036238193512;0.036651913076639175;-0.015882495790719986
01:00:0A:00:00:00:00;1727568742;29/09/24;00:12:22;0.991;-0.006;0.052;0.09529497474431992;0.030543262138962746;0.004886921960860491
01:00:0A:00:00:00:00;1727568743;29/09/24;00:12:23;0.943;-0.002;0.037;0.08307767659425735;-0.02076941914856434;0.03298672288656235
01:00:0A:00:00:00:00;1727568744;29/09/24;00:12:24;0.95;0.009;0.038;0.08307767659425735;0.004886921960860491;-0.004886921960860491
01:00:0A:00:00:00:00;1727568745;29/09/24;00:12:25;1.017;0.025;0.038;0.06719517707824707;-0.1319468915462494;0.02932153083384037
01:00:0A:00:00:00:00;1727568746;29/09/24;00:12:26;1.07;-0.002;0.019;0.05253440886735916;-0.05864306166768074;-0.03420845419168472
01:00:0A:00:00:00:00;1727568747;29/09/24;00:12:27;1.068;0.033;0.115;0.03176499158143997;-0.07696902006864548;-0.013439035043120384
01:00:0A:00:00:00:00;1727568748;29/09/24;00:12:28;1.048;-0.016;0.061;0.02076941914856434;-0.06108652427792549;0.025656338781118393
01:00:0A:00:00:00:00;1727568749;29/09/24;00:12:29;1.007;0.02;0.101;0.015882495790719986;0.09285151958465576;-0.02932153083384037
01:00:0A:00:00:00:00;1727568750;29/09/24;00:12:30;0.979;0.028;0.095;-0.009773843921720982;-0.012217304669320583;0.04642575979232788
01:00:0A:00:00:00:00;1727568751;29/09/24;00:12:31;1.003;0.007;0.066;0.0024434609804302454;-0.010995574295520782;0.0024434609804302454
01:00:0A:00:00:00:00;1727568752;29/09/24;00:12:32;1.041;0.016;0.062;0.0036651913542300463;0.04642575979232788;-0.02687807008624077
01:00:0A:00:00:00:00;1727568753;29/09/24;00:12:33;1.051;0.013;0.089;-0.013439035043120384;0.03787364438176155;-0.013439035043120384
01:00:0A:00:00:00:00;1727568754;29/09/24;00:12:34;1.03;-0.021;0.038;-0.009773843921720982;-0.02076941914856434;0.021991148591041565
01:00:0A:00:00:00:00;1727568755;29/09/24;00:12:35;0.97;0.002;0.035;-0.006108652334660292;0.010995574295520782;-0.004886921960860491
01:00:0A:00:00:00:00;1727568756;29/09/24;00:12:36;0.949;0.007;0.047;-0.02687807008624077;-0.02687807008624077;0.05742133408784866
01:00:0A:00:00:00:00;1727568757;29/09/24;00:12:37;0.984;0.006;0.053;-0.00855211354792118;-0.08185594528913498;-0.006108652334660292
01:00:0A:00:00:00:00;1727568758;29/09/24;00:12:38;1.02;0.031;0.054;-0.028099799528717995;-0.021991148591041565;0.024434609338641167
01:00:0A:00:00:00:00;1727568759;29/09/24;00:12:39;1.06;0.015;0.086;-0.025656338781118393;-0.02321287989616394;-0.0024434609804302454
01:00:0A:00:00:00:00;1727568760;29/09/24;00:12:40;1.069;0.006;0.067;-0.010995574295520782;-0.00855211354792118;-0.04153883829712868
01:00:0A:00:00:00:00;1727568761;29/09/24;00:12:41;1.048;0.016;0.059;-0.028099799528717995;0.025656338781118393;-0.02687807008624077
01:00:0A:00:00:00:00;1727568762;29/09/24;00:12:42;1.015;-0.01;0.064;-0.04153883829712868;0.040317103266716;0.02321287989616394
01:00:0A:00:00:00:00;1727568763;29/09/24;00:12:43;0.968;0.003;0.045;-0.02076941914856434;-0.006108652334660292;-0.025656338781118393
01:00:0A:00:00:00:00;1727568764;29/09/24;00:12:44;0.973;0.016;0.032;-0.040317103266716;-0.03420845419168472;0.021991148591041565
01:00:0A:00:00:00:00;1727568765;29/09/24;00:12:45;0.999;0.017;0.04;-0.045204028487205505;-0.03420845419168472;0.004886921960860491
01:00:0A:00:00:00:00;1727568766;29/09/24;00:12:46;1.035;0.023;0.062;-0.0354301817715168;-0.05864306166768074;-0.040317103266716
01:00:0A:00:00:00:00;1727568767;29/09/24;00:12:47;1.042;0.026;0.07;-0.045204028487205505;-0.06841690838336945;-0.03298672288656235
01:00:0A:00:00:00:00;1727568768;29/09/24;00:12:48;1.03;0.003;0.08;-0.05497787147760391;0.0012217304902151227;-0.00855211354792118
01:00:0A:00:00:00:00;1727568769;29/09/24;00:12:49;1.011;0.0;0.09;-0.045204028487205505;0.02687807008624077;0.0036651913542300463
01:00:0A:00:00:00:00;1727568770;29/09/24;00:12:50;0.988;0.017;0.076;-0.04398229718208313;0.00855211354792118;0.018325956538319588
01:00:0A:00:00:00:00;1727568771;29/09/24;00:12:51;0.987;0.014;0.067;-0.05619959905743599;0.01710422709584236;0.040317103266716
01:00:0A:00:00:00:00;1727568772;29/09/24;00:12:52;1.008;0.008;0.058;-0.03298672288656235;-0.013439035043120384;-0.015882495790719986
01:00:0A:00:00:00:00;1727568773;29/09/24;00:12:53;1.029;0.018;0.061;-0.025656338781118393;-0.04642575979232788;-0.039095375686883926
01:00:0A:00:00:00:00;1727568774;29/09/24;00:12:54;1.036;0.011;0.059;-0.04398229718208313;-0.05619959905743599;0.0
01:00:0A:00:00:00:00;1727568775;29/09/24;00:12:55;1.04;-0.01;0.081;-0.039095375686883926;-0.0354301817715168;-0.0036651913542300463
01:00:0A:00:00:00:00;1727568776;29/09/24;00:12:56;1.03;0.005;0.091;-0.025656338781118393;-0.0073303827084600925;-0.019547687843441963
01:00:0A:00:00:00:00;1727568777;29/09/24;00:12:57;1.009;0.008;0.073;-0.04153883829712868;0.02932153083384037;0.02076941914856434
01:00:0A:00:00:00:00;1727568778;29/09/24;00:12:58;0.993;-0.006;0.063;-0.04398229718208313;0.045204028487205505;0.036651913076639175
01:00:0A:00:00:00:00;1727568779;29/09/24;00:12:59;0.982;0.006;0.049;-0.019547687843441963;-0.0073303827084600925;0.0
01:00:0A:00:00:00:00;1727568780;29/09/24;00:13:00;1.006;0.031;0.042;-0.02932153083384037;-0.06108652427792549;0.030543262138962746
01:00:0A:00:00:00:00;1727568781;29/09/24;00:13:01;1.026;0.021;0.06;-0.02932153083384037;-0.05009094998240471;-0.0012217304902151227
01:00:0A:00:00:00:00;1727568782;29/09/24;00:13:02;1.043;0.007;0.083;-0.004886921960860491;-0.018325956538319588;-0.0708603635430336
01:00:0A:00:00:00:00;1727568783;29/09/24;00:13:03;1.034;0.02;0.069;-0.015882495790719986;-0.006108652334660292;-0.06841690838336945
01:00:0A:00:00:00:00;1727568784;29/09/24;00:13:04;1.019;-0.019;0.066;-0.039095375686883926;0.015882495790719986;0.012217304669320583
01:00:0A:00:00:00:00;1727568785;29/09/24;00:13:05;1.015;-0.021;0.066;-0.02687807008624077;-0.014660765416920185;0.014660765416920185
01:00:0A:00:00:00:00;1727568786;29/09/24;00:13:06;1.021;0.022;0.068;-0.04764748737215996;-0.024434609338641167;0.06475171446800232
01:00:0A:00:00:00:00;1727568787;29/09/24;00:13:07;1.033;0.017;0.081;-0.06963863223791122;-0.004886921960860491;0.07941248267889023
01:00:0A:00:00:00:00;1727568788;29/09/24;00:13:08;1.024;0.029;0.081;-0.05009094998240471;0.02321287989616394;0.0012217304902151227
01:00:0A:00:00:00:00;1727568789;29/09/24;00:13:09;0.987;0.048;0.06;-0.04764748737215996;0.014660765416920185;-0.06841690838336945
01:00:0A:00:00:00:00;1727568790;29/09/24;00:13:10;0.964;0.017;0.049;-0.07819075137376785;0.0024434609804302454;0.006108652334660292
01:00:0A:00:00:00:00;1727568791;29/09/24;00:13:11;0.977;-0.003;0.049;-0.05253440886735916;-0.024434609338641167;-0.05253440886735916
01:00:0A:00:00:00:00;1727568792;29/09/24;00:13:12;1.0;0.017;0.054;-0.06475171446800232;-0.07208210229873657;0.028099799528717995
01:00:0A:00:00:00:00;1727568793;29/09/24;00:13:13;1.051;0.0;0.059;-0.06841690838336945;-0.059864792972803116;0.018325956538319588
01:00:0A:00:00:00:00;1727568794;29/09/24;00:13:14;1.065;0.004;0.083;-0.05742133408784866;-0.024434609338641167;-0.00855211354792118
01:00:0A:00:00:00:00;1727568795;29/09/24;00:13:15;1.055;0.021;0.076;-0.0659734457731247;0.03176499158143997;-0.006108652334660292
01:00:0A:00:00:00:00;1727568796;29/09/24;00:13:16;1.031;0.002;0.064;-0.07452555745840073;0.03298672288656235;0.006108652334660292
01:00:0A:00:00:00:00;1727568797;29/09/24;00:13:17;0.978;0.001;0.05;-0.05742133408784866;0.0012217304902151227;-0.019547687843441963
01:00:0A:00:00:00:00;1727568798;29/09/24;00:13:18;0.971;0.013;0.063;-0.05497787147760391;-0.04398229718208313;0.006108652334660292
01:00:0A:00:00:00:00;1727568799;29/09/24;00:13:19;0.991;0.015;0.079;-0.059864792972803116;-0.04153883829712868;0.028099799528717995
01:00:0A:00:00:00:00;1727568800;29/09/24;00:13:20;1.021;0.04;0.028;0.1160643920302391;-0.06108652427792549;-0.03298672288656235
01:00:0A:00:00:00:00;1727568801;29/09/24;00:13:21;1.026;0.031;0.056;0.01710422709584236;0.08552113175392151;0.045204028487205505
01:00:0A:00:00:00:00;1727568802;29/09/24;00:13:22;1.025;-0.021;0.127;0.05253440886735916;0.00855211354792118;-0.0073303827084600925
01:00:0A:00:00:00:00;1727568803;29/09/24;00:13:23;1.031;0.012;0.037;0.07941248267889023;-0.07696902006864548;-0.040317103266716
01:00:0A:00:00:00:00;1727568804;29/09/24;00:13:24;1.035;0.022;0.032;0.01710422709584236;0.036651913076639175;0.01710422709584236
01:00:0A:00:00:00:00;1727568805;29/09/24;00:13:25;1.033;-0.014;0.121;0.019547687843441963;0.013439035043120384;0.03176499158143997
01:00:0A:00:00:00:00;1727568806;29/09/24;00:13:26;1.016;0.007;0.06;0.04642575979232788;-0.08796459436416626;0.0
01:00:0A:00:00:00:00;1727568807;29/09/24;00:13:27;0.983;0.026;0.042;0.0073303827084600925;0.01710422709584236;0.03176499158143997
01:00:0A:00:00:00:00;1727568808;29/09/24;00:13:28;0.977;0.018;0.086;-0.0024434609804302454;0.009773843921720982;0.04153883829712868
01:00:0A:00:00:00:00;1727568809;29/09/24;00:13:29;0.993;0.023;0.072;0.02687807008624077;-0.08796459436416626;-0.03420845419168472
01:00:0A:00:00:00:00;1727568810;29/09/24;00:13:30;1.013;0.032;0.039;-0.00855211354792118;0.021991148591041565;-0.009773843921720982
01:00:0A:00:00:00:00;1727568811;29/09/24;00:13:31;1.04;0.006;0.096;-0.014660765416920185;-0.013439035043120384;-0.030543262138962746
01:00:0A:00:00:00:00;1727568812;29/09/24;00:13:32;1.045;0.003;0.068;-0.013439035043120384;-0.039095375686883926;-0.036651913076639175
01:00:0A:00:00:00:00;1727568813;29/09/24;00:13:33;1.036;0.005;0.042;-0.045204028487205505;0.012217304669320583;0.021991148591041565
01:00:0A:00:00:00:00;1727568814;29/09/24;00:13:34;1.025;0.0;0.081;-0.06108652427792549;0.015882495790719986;0.05253440886735916
01:00:0A:00:00:00:00;1727568815;29/09/24;00:13:35;1.017;0.017;0.07;-0.05375614017248154;-0.059864792972803116;0.024434609338641167
01:00:0A:00:00:00:00;1727568816;29/09/24;00:13:36;1.015;0.029;0.056;-0.06841690838336945;-0.025656338781118393;0.009773843921720982
01:00:0A:00:00:00:00;1727568817;29/09/24;00:13:37;1.021;0.015;0.096;-0.07330382615327835;0.013439035043120384;0.004886921960860491
01:00:0A:00:00:00:00;1727568818;29/09/24;00:13:38;1.011;0.004;0.092;-0.05742133408784866;0.0036651913542300463;-0.01710422709584236
01:00:0A:00:00:00:00;1727568819;29/09/24;00:13:39;0.992;0.003;0.06;-0.06475171446800232;0.015882495790719986;0.0012217304902151227
01:00:0A:00:00:00:00;1727568820;29/09/24;00:13:40;0.969;-0.003;0.054;-0.07208210229873657;0.03298672288656235;0.03298672288656235
01:00:0A:00:00:00:00;1727568821;29/09/24;00:13:41;0.976;0.001;0.055;-0.045204028487205505;-0.05742133408784866;0.004886921960860491
01:00:0A:00:00:00:00;1727568822;29/09/24;00:13:42;1.022;0.021;0.049;-0.05497787147760391;-0.04764748737215996;0.025656338781118393
01:00:0A:00:00:00:00;1727568823;29/09/24;00:13:43;1.059;0.009;0.076;-0.05619959905743599;-0.04153883829712868;-0.01710422709584236
01:00:0A:00:00:00:00;1727568824;29/09/24;00:13:44;1.067;0.011;0.084;-0.05742133408784866;-0.02932153083384037;-0.04153883829712868
01:00:0A:00:00:00:00;1727568825;29/09/24;00:13:45;1.037;-0.001;0.071;-0.07696902006864548;0.03420845419168472;0.006108652334660292
01:00:0A:00:00:00:00;1727568826;29/09/24;00:13:46;1.0;0.004;0.067;-0.08429940044879913;0.042760565876960754;0.00855211354792118
01:00:0A:00:00:00:00;1727568827;29/09/24;00:13:47;0.968;0.002;0.018;-0.12339477241039276;-0.07696902006864548;0.01710422709584236
01:00:0A:00:00:00:00;1727568828;29/09/24;00:13:48;0.975;0.025;0.062;-0.13561207056045532;0.09040805697441101;-0.0024434609804302454
01:00:0A:00:00:00:00;1727568829;29/09/24;00:13:49;1.019;0.04;0.08;0.006108652334660292;-0.051312677562236786;-0.014660765416920185
01:00:0A:00:00:00:00;1727568830;29/09/24;00:13:50;1.047;0.011;0.058;-0.010995574295520782;-0.028099799528717995;-0.040317103266716
01:00:0A:00:00:00:00;1727568831;29/09/24;00:13:51;1.056;0.0;0.078;-0.02076941914856434;0.009773843921720982;-0.03176499158143997
01:00:0A:00:00:00:00;1727568832;29/09/24;00:13:52;1.024;0.001;0.079;-0.03420845419168472;0.028099799528717995;0.006108652334660292
01:00:0A:00:00:00:00;1727568833;29/09/24;00:13:53;1.0;0.001;0.058;-0.040317103266716;0.004886921960860491;0.024434609338641167
01:00:0A:00:00:00:00;1727568834;29/09/24;00:13:54;0.969;0.015;0.057;-0.04153883829712868;-0.0024434609804302454;0.009773843921720982
01:00:0A:00:00:00:00;1727568835;29/09/24;00:13:55;0.973;0.02;0.067;-0.045204028487205505;-0.03176499158143997;0.0073303827084600925
01:00:0A:00:00:00:00;1727568836;29/09/24;00:13:56;1.011;0.009;0.062;-0.045204028487205505;-0.03176499158143997;-0.0024434609804302454
01:00:0A:00:00:00:00;1727568837;29/09/24;00:13:57;1.032;0.005;0.061;-0.051312677562236786;-0.030543262138962746;0.015882495790719986
01:00:0A:00:00:00:00;1727568838;29/09/24;00:13:58;1.054;0.009;0.077;-0.051312677562236786;-0.039095375686883926;0.009773843921720982
01:00:0A:00:00:00:00;1727568839;29/09/24;00:13:59;1.057;0.007;0.076;-0.045204028487205505;-0.02687807008624077;0.009773843921720982
01:00:0A:00:00:00:00;1727568840;29/09/24;00:14:00;1.033;0.019;0.082;-0.04153883829712868;0.040317103266716;-0.014660765416920185
01:00:0A:00:00:00:00;1727568841;29/09/24;00:14:01;0.983;0.004;0.058;-0.03298672288656235;0.030543262138962746;-0.028099799528717995
01:00:0A:00:00:00:00;1727568842;29/09/24;00:14:02;0.961;-0.006;0.047;-0.019547687843441963;-0.0036651913542300463;-0.019547687843441963
01:00:0A:00:00:00:00;1727568843;29/09/24;00:14:03;0.978;-0.01;0.049;-0.015882495790719986;-0.0354301817715168;0.03420845419168472
01:00:0A:00:00:00:00;1727568844;29/09/24;00:14:04;1.009;-0.014;0.048;-0.0012217304902151227;-0.05619959905743599;0.05009094998240471
01:00:0A:00:00:00:00;1727568845;29/09/24;00:14:05;1.053;0.009;0.068;0.014660765416920185;-0.05864306166768074;0.028099799528717995
01:00:0A:00:00:00:00;1727568846;29/09/24;00:14:06;1.062;0.023;0.087;0.02076941914856434;-0.010995574295520782;-0.013439035043120384
01:00:0A:00:00:00:00;1727568847;29/09/24;00:14:07;1.04;0.003;0.075;0.02321287989616394;0.036651913076639175;0.0024434609804302454
01:00:0A:00:00:00:00;1727568848;29/09/24;00:14:08;1.004;0.009;0.065;0.03298672288656235;0.0354301817715168;-0.01710422709584236
01:00:0A:00:00:00:00;1727568849;29/09/24;00:14:09;0.96;-0.005;0.043;0.09773843735456467;-0.030543262138962746;0.013439035043120384
01:00:0A:00:00:00:00;1727568850;29/09/24;00:14:10;0.985;-0.009;0.041;0.38728854060173035;0.0036651913542300463;-0.012217304669320583
01:00:0A:00:00:00:00;1727568851;29/09/24;00:14:11;1.016;0.018;0.062;0.40072759985923767;0.006108652334660292;0.0036651913542300463
01:00:0A:00:00:00:00;1727568852;29/09/24;00:14:12;1.048;0.028;0.096;0.3384193480014801;-0.025656338781118393;0.0659734457731247
01:00:0A:00:00:00:00;1727568853;29/09/24;00:14:13;1.05;-0.023;0.069;0.3274237811565399;-0.0024434609804302454;0.02076941914856434
01:00:0A:00:00:00:00;1727568854;29/09/24;00:14:14;1.028;0.025;0.063;0.31642818450927734;0.02321287989616394;-0.03298672288656235
01:00:0A:00:00:00:00;1727568855;29/09/24;00:14:15;1.013;0.021;0.071;0.2528982162475586;0.05497787147760391;0.04764748737215996
01:00:0A:00:00:00:00;1727568856;29/09/24;00:14:16;1.0;-0.003;0.062;0.2541199326515198;-0.0073303827084600925;0.030543262138962746
01:00:0A:00:00:00:00;1727568857;29/09/24;00:14:17;1.005;0.009;0.049;0.2626720666885376;-0.045204028487205505;-0.018325956538319588
01:00:0A:00:00:00:00;1727568858;29/09/24;00:14:18;1.01;0.018;0.067;0.2223549485206604;-0.00855211354792118;0.028099799528717995
01:00:0A:00:00:00:00;1727568859;29/09/24;00:14:19;1.012;0.001;0.089;0.21013763546943665;-0.006108652334660292;0.024434609338641167
01:00:0A:00:00:00:00;1727568860;29/09/24;00:14:20;1.015;0.002;0.074;0.21502456068992615;-0.03298672288656235;-0.006108652334660292
01:00:0A:00:00:00:00;1727568861;29/09/24;00:14:21;1.024;0.01;0.063;0.18936821818351746;0.013439035043120384;0.013439035043120384
01:00:0A:00:00:00:00;1727568862;29/09/24;00:14:22;1.028;0.006;0.088;0.16982054710388184;0.010995574295520782;0.0354301817715168
01:00:0A:00:00:00:00;1727568863;29/09/24;00:14:23;1.03;0.012;0.076;0.17104226350784302;-0.009773843921720982;0.018325956538319588
01:00:0A:00:00:00:00;1727568864;29/09/24;00:14:24;1.027;0.013;0.059;0.16249015927314758;0.010995574295520782;0.006108652334660292
01:00:0A:00:00:00:00;1727568865;29/09/24;00:14:25;1.011;0.018;0.076;0.15271630883216858;0.028099799528717995;-0.009773843921720982
01:00:0A:00:00:00:00;1727568866;29/09/24;00:14:26;1.001;0.01;0.074;0.15027284622192383;-0.0354301817715168;-0.00855211354792118
01:00:0A:00:00:00:00;1727568867;29/09/24;00:14:27;0.999;-0.003;0.068;0.14416420459747314;-0.03176499158143997;0.012217304669320583
01:00:0A:00:00:00:00;1727568868;29/09/24;00:14:28;1.012;0.009;0.081;0.13805554807186127;0.0036651913542300463;0.01710422709584236
01:00:0A:00:00:00:00;1727568869;29/09/24;00:14:29;1.02;0.019;0.09;0.1270599663257599;-0.009773843921720982;0.018325956538319588
01:00:0A:00:00:00:00;1727568870;29/09/24;00:14:30;1.034;0.005;0.063;0.12339477241039276;0.0073303827084600925;0.00855211354792118
01:00:0A:00:00:00:00;1727568871;29/09/24;00:14:31;1.033;0.008;0.063;0.12461651116609573;0.00855211354792118;-0.006108652334660292
01:00:0A:00:00:00:00;1727568872;29/09/24;00:14:32;1.018;0.014;0.071;0.11362093687057495;-0.014660765416920185;-0.0012217304902151227
01:00:0A:00:00:00:00;1727568873;29/09/24;00:14:33;1.013;-0.002;0.066;0.1062905490398407;-0.024434609338641167;0.02321287989616394
01:00:0A:00:00:00:00;1727568874;29/09/24;00:14:34;1.002;0.01;0.073;0.10751228034496307;-0.00855211354792118;0.010995574295520782
01:00:0A:00:00:00:00;1727568875;29/09/24;00:14:35;1.001;0.022;0.077;0.09407324343919754;-0.014660765416920185;0.021991148591041565
01:00:0A:00:00:00:00;1727568876;29/09/24;00:14:36;1.011;0.012;0.072;0.08918632566928864;-0.012217304669320583;0.00855211354792118
01:00:0A:00:00:00:00;1727568877;29/09/24;00:14:37;1.018;0.007;0.067;0.09407324343919754;-0.0024434609804302454;-0.018325956538319588
01:00:0A:00:00:00:00;1727568878;29/09/24;00:14:38;1.016;0.016;0.063;0.08429940044879913;-0.013439035043120384;-0.00855211354792118
01:00:0A:00:00:00:00;1727568879;29/09/24;00:14:39;1.019;0.002;0.068;0.07819075137376785;-0.030543262138962746;0.0024434609804302454
01:00:0A:00:00:00:00;1727568880;29/09/24;00:14:40;1.016;-0.002;0.071;0.08307767659425735;-0.028099799528717995;-0.006108652334660292
01:00:0A:00:00:00:00;1727568881;29/09/24;00:14:41;1.019;0.008;0.075;0.07208210229873657;-0.0036651913542300463;0.012217304669320583
01:00:0A:00:00:00:00;1727568882;29/09/24;00:14:42;1.021;0.002;0.077;0.06352998316287994;0.00855211354792118;0.02321287989616394
01:00:0A:00:00:00:00;1727568883;29/09/24;00:14:43;1.023;0.002;0.068;0.0708603635430336;0.0073303827084600925;0.0073303827084600925
01:00:0A:00:00:00:00;1727568884;29/09/24;00:14:44;1.019;0.015;0.059;0.06475171446800232;0.006108652334660292;0.010995574295520782
01:00:0A:00:00:00:00;1727568885;29/09/24;00:14:45;1.012;0.01;0.066;0.05619959905743599;-0.012217304669320583;0.015882495790719986
01:00:0A:00:00:00:00;1727568886;29/09/24;00:14:46;1.005;0.005;0.075;0.06719517707824707;-0.02321287989616394;-0.009773843921720982
01:00:0A:00:00:00:00;1727568887;29/09/24;00:14:47;1.001;0.015;0.067;0.06108652427792549;-0.010995574295520782;-0.0036651913542300463
01:00:0A:00:00:00:00;1727568888;29/09/24;00:14:48;1.007;0.009;0.072;0.051312677562236786;-0.0036651913542300463;0.0012217304902151227
01:00:0A:00:00:00:00;1727568889;29/09/24;00:14:49;1.012;0.0;0.072;0.059864792972803116;-0.021991148591041565;-0.018325956538319588
01:00:0A:00:00:00:00;1727568890;29/09/24;00:14:50;1.024;0.007;0.065;0.05253440886735916;-0.028099799528717995;0.013439035043120384
01:00:0A:00:00:00:00;1727568891;29/09/24;00:14:51;1.026;0.007;0.073;0.039095375686883926;-0.009773843921720982;0.024434609338641167
01:00:0A:00:00:00:00;1727568892;29/09/24;00:14:52;1.027;0.006;0.081;0.04642575979232788;-0.009773843921720982;0.0024434609804302454
01:00:0A:00:00:00:00;1727568893;29/09/24;00:14:53;1.017;0.017;0.071;0.04886921867728233;0.0012217304902151227;-0.013439035043120384
01:00:0A:00:00:00:00;1727568894;29/09/24;00:14:54;1.01;0.011;0.064;0.039095375686883926;0.02076941914856434;-0.0036651913542300463
01:00:0A:00:00:00:00;1727568895;29/09/24;00:14:55;1.003;0.0;0.069;0.04642575979232788;-0.012217304669320583;-0.012217304669320583
01:00:0A:00:00:00:00;1727568896;29/09/24;00:14:56;1.008;0.003;0.062;0.045204028487205505;-0.02687807008624077;0.004886921960860491
01:00:0A:00:00:00:00;1727568897;29/09/24;00:14:57;1.023;0.01;0.066;0.03298672288656235;-0.019547687843441963;0.036651913076639175
01:00:0A:00:00:00:00;1727568898;29/09/24;00:14:58;1.029;0.009;0.087;0.04153883829712868;-0.01710422709584236;0.018325956538319588
01:00:0A:00:00:00:00;1727568899;29/09/24;00:14:59;1.027;0.021;0.072;0.04764748737215996;-0.004886921960860491;-0.01710422709584236
01:00:0A:00:00:00:00;1727568900;29/09/24;00:15:00;1.018;0.013;0.071;0.03787364438176155;0.028099799528717995;-0.009773843921720982
01:00:0A:00:00:00:00;1727568901;29/09/24;00:15:01;1.002;0.0;0.072;0.04398229718208313;0.013439035043120384;-0.004886921960860491
01:00:0A:00:00:00:00;1727568902;29/09/24;00:15:02;0.998;0.002;0.059;0.04764748737215996;-0.036651913076639175;0.010995574295520782
01:00:0A:00:00:00:00;1727568903;29/09/24;00:15:03;1.002;0.009;0.056;0.036651913076639175;-0.009773843921720982;0.030543262138962746
01:00:0A:00:00:00:00;1727568904;29/09/24;00:15:04;1.017;0.015;0.076;0.04398229718208313;-0.03787364438176155;0.009773843921720982
01:00:0A:00:00:00:00;1727568905;29/09/24;00:15:05;1.026;0.021;0.071;0.051312677562236786;-0.04642575979232788;-0.00855211354792118
01:00:0A:00:00:00:00;1727568906;29/09/24;00:15:06;1.036;0.01;0.066;0.042760565876960754;-0.0012217304902151227;-0.012217304669320583
01:00:0A:00:00:00:00;1727568907;29/09/24;00:15:07;1.036;0.003;0.089;0.042760565876960754;0.004886921960860491;-0.0036651913542300463
01:00:0A:00:00:00:00;1727568908;29/09/24;00:15:08;1.024;0.008;0.074;0.042760565876960754;-0.006108652334660292;0.0024434609804302454
01:00:0A:00:00:00:00;1727568909;29/09/24;00:15:09;1.013;0.008;0.062;0.03176499158143997;0.021991148591041565;0.009773843921720982
01:00:0A:00:00:00:00;1727568910;29/09/24;00:15:10;0.991;0.01;0.069;0.03176499158143997;0.009773843921720982;0.006108652334660292
01:00:0A:00:00:00:00;1727568911;29/09/24;00:15:11;0.994;0.01;0.062;0.03787364438176155;-0.05619959905743599;0.0036651913542300463
01:00:0A:00:00:00:00;1727568912;29/09/24;00:15:12;1.005;0.008;0.052;0.030543262138962746;-0.024434609338641167;0.0
01:00:0A:00:00:00:00;1727568913;29/09/24;00:15:13;1.027;0.007;0.081;0.028099799528717995;-0.021991148591041565;0.0024434609804302454
01:00:0A:00:00:00:00;1727568914;29/09/24;00:15:14;1.031;0.007;0.083;0.02932153083384037;-0.0354301817715168;0.0073303827084600925
01:00:0A:00:00:00:00;1727568915;29/09/24;00:15:15;1.027;0.005;0.063;0.024434609338641167;0.0012217304902151227;0.0036651913542300463
01:00:0A:00:00:00:00;1727568916;29/09/24;00:15:16;1.018;0.007;0.081;0.02321287989616394;0.0354301817715168;0.0012217304902151227
01:00:0A:00:00:00:00;1727568917;29/09/24;00:15:17;1.006;0.007;0.072;0.02687807008624077;-0.01710422709584236;0.006108652334660292
