Source;Epoch timestamp (UTC);Date;Time (UTC);Accel X (G);Accel Y (G);Accel Z (G);Gyro X (rad/s);Gyro Y (rad/s);Gyro Z (rad/s)
01:00:0A:00:00:00:00;1727308791;25/09/24;23:59:51;1.015;0.002;0.066;0.010995574295520782;-0.010995574295520782;0.0024434609804302454
01:00:0A:00:00:00:00;1727308792;25/09/24;23:59:52;1.016;0.002;0.065;0.010995574295520782;-0.010995574295520782;0.0024434609804302454
01:00:0A:00:00:00:00;1727308793;25/09/24;23:59:53;1.016;0.002;0.066;0.010995574295520782;-0.010995574295520782;0.0024434609804302454
01:00:0A:00:00:00:00;1727308794;25/09/24;23:59:54;1.016;0.003;0.065;0.010995574295520782;-0.010995574295520782;0.0024434609804302454
01:00:0A:00:00:00:00;1727308795;25/09/24;23:59:55;1.015;0.002;0.066;0.010995574295520782;-0.010995574295520782;0.0036651913542300463
01:00:0A:00:00:00:00;1727308796;25/09/24;23:59:56;1.016;0.003;0.066;0.010995574295520782;-0.010995574295520782;0.0036651913542300463
01:00:0A:00:00:00:00;1727308797;25/09/24;23:59:57;1.016;0.002;0.066;0.010995574295520782;-0.010995574295520782;0.0024434609804302454
01:00:0A:00:00:00:00;1727308798;25/09/24;23:59:58;1.016;0.002;0.066;0.010995574295520782;-0.010995574295520782;0.0024434609804302454
01:00:0A:00:00:00:00;1727308799;25/09/24;23:59:59;1.016;0.002;0.066;0.010995574295520782;-0.010995574295520782;0.0036651913542300463
01:00:0A:00:00:00:00;1727308800;26/09/24;00:00:00;1.016;0.003;0.066;0.010995574295520782;-0.010995574295520782;0.0036651913542300463
01:00:0A:00:00:00:00;1727308801;26/09/24;00:00:01;1.016;0.003;0.066;0.010995574295520782;-0.010995574295520782;0.0024434609804302454
01:00:0A:00:00:00:00;1727308802;26/09/24;00:00:02;1.016;0.003;0.067;0.010995574295520782;-0.010995574295520782;0.0024434609804302454
01:00:0A:00:00:00:00;1727308803;26/09/24;00:00:03;1.016;0.003;0.067;0.010995574295520782;-0.010995574295520782;0.0036651913542300463
01:00:0A:00:00:00:00;1727308804;26/09/24;00:00:04;1.015;0.003;0.067;0.010995574295520782;-0.010995574295520782;0.0036651913542300463
01:00:0A:00:00:00:00;1727308805;26/09/24;00:00:05;1.016;0.003;0.066;0.010995574295520782;-0.010995574295520782;0.0036651913542300463
01:00:0A:00:00:00:00;1727308806;26/09/24;00:00:06;1.016;0.002;0.066;0.010995574295520782;-0.010995574295520782;0.0024434609804302454
01:00:0A:00:00:00:00;1727308807;26/09/24;00:00:07;1.016;0.002;0.066;0.010995574295520782;-0.010995574295520782;0.0024434609804302454
01:00:0A:00:00:00:00;1727308808;26/09/24;00:00:08;1.016;0.002;0.066;0.010995574295520782;-0.010995574295520782;0.0024434609804302454
01:00:0A:00:00:00:00;1727308809;26/09/24;00:00:09;1.016;0.002;0.066;0.010995574295520782;-0.010995574295520782;0.0024434609804302454
01:00:0A:00:00:00:00;1727308810;26/09/24;00:00:10;1.015;0.002;0.066;0.010995574295520782;-0.010995574295520782;0.0024434609804302454
01:00:0A:00:00:00:00;1727308811;26/09/24;00:00:11;1.016;0.003;0.066;0.010995574295520782;-0.010995574295520782;0.0024434609804302454
01:00:0A:00:00:00:00;1727308812;26/09/24;00:00:12;1.015;0.002;0.066;0.010995574295520782;-0.010995574295520782;0.0024434609804302454
01:00:0A:00:00:00:00;1727308813;26/09/24;00:00:13;1.016;0.002;0.066;0.010995574295520782;-0.010995574295520782;0.0036651913542300463
01:00:0A:00:00:00:00;1727308814;26/09/24;00:00:14;1.016;0.002;0.066;0.010995574295520782;-0.010995574295520782;0.0036651913542300463
01:00:0A:00:00:00:00;1727308815;26/09/24;00:00:15;1.016;0.003;0.067;0.010995574295520782;-0.010995574295520782;0.0024434609804302454
01:00:0A:00:00:00:00;1727308816;26/09/24;00:00:16;1.015;0.003;0.064;0.010995574295520782;-0.010995574295520782;0.0024434609804302454
01:00:0A:00:00:00:00;1727308817;26/09/24;00:00:17;1.015;0.003;0.066;0.010995574295520782;-0.010995574295520782;0.0024434609804302454
01:00:0A:00:00:00:00;1727308818;26/09/24;00:00:18;1.016;0.002;0.066;0.010995574295520782;-0.010995574295520782;0.0024434609804302454
01:00:0A:00:00:00:00;1727308819;26/09/24;00:00:19;1.016;0.002;0.066;0.010995574295520782;-0.010995574295520782;0.0036651913542300463
01:00:0A:00:00:00:00;1727308820;26/09/24;00:00:20;1.016;0.003;0.066;0.010995574295520782;-0.010995574295520782;0.0036651913542300463
01:00:0A:00:00:00:00;1727308821;26/09/24;00:00:21;1.016;0.002;0.066;0.010995574295520782;-0.010995574295520782;0.0024434609804302454
01:00:0A:00:00:00:00;1727308822;26/09/24;00:00:22;1.016;0.002;0.066;0.010995574295520782;-0.010995574295520782;0.0024434609804302454
01:00:0A:00:00:00:00;1727308823;26/09/24;00:00:23;1.016;0.002;0.066;0.010995574295520782;-0.010995574295520782;0.0024434609804302454
01:00:0A:00:00:00:00;1727308824;26/09/24;00:00:24;1.015;0.002;0.066;0.010995574295520782;-0.010995574295520782;0.0036651913542300463
01:00:0A:00:00:00:00;1727308825;26/09/24;00:00:25;1.016;0.003;0.067;0.010995574295520782;-0.010995574295520782;0.0024434609804302454
01:00:0A:00:00:00:00;1727308826;26/09/24;00:00:26;1.016;0.003;0.066;0.010995574295520782;-0.010995574295520782;0.0024434609804302454
01:00:0A:00:00:00:00;1727308827;26/09/24;00:00:27;1.016;0.002;0.066;0.010995574295520782;-0.010995574295520782;0.0024434609804302454
01:00:0A:00:00:00:00;1727308828;26/09/24;00:00:28;1.016;0.002;0.066;0.010995574295520782;-0.010995574295520782;0.0024434609804302454
01:00:0A:00:00:00:00;1727308829;26/09/24;00:00:29;1.016;0.002;0.066;0.010995574295520782;-0.010995574295520782;0.0036651913542300463
01:00:0A:00:00:00:00;1727308830;26/09/24;00:00:30;1.015;0.001;0.067;0.010995574295520782;-0.010995574295520782;0.0024434609804302454
01:00:0A:00:00:00:00;1727308831;26/09/24;00:00:31;1.015;0.003;0.067;0.010995574295520782;-0.010995574295520782;0.0036651913542300463
01:00:0A:00:00:00:00;1727308832;26/09/24;00:00:32;1.015;0.002;0.066;0.010995574295520782;-0.010995574295520782;0.0036651913542300463
01:00:0A:00:00:00:00;1727308833;26/09/24;00:00:33;1.015;0.004;0.065;0.010995574295520782;-0.010995574295520782;0.0024434609804302454
01:00:0A:00:00:00:00;1727308834;26/09/24;00:00:34;1.016;0.002;0.066;0.010995574295520782;-0.010995574295520782;0.0036651913542300463
01:00:0A:00:00:00:00;1727308835;26/09/24;00:00:35;1.016;0.002;0.066;0.010995574295520782;-0.010995574295520782;0.0024434609804302454
01:00:0A:00:00:00:00;1727308836;26/09/24;00:00:36;1.015;0.003;0.065;0.010995574295520782;-0.010995574295520782;0.0036651913542300463
01:00:0A:00:00:00:00;1727308837;26/09/24;00:00:37;1.016;0.003;0.067;0.010995574295520782;-0.010995574295520782;0.0036651913542300463
01:00:0A:00:00:00:00;1727308838;26/09/24;00:00:38;1.015;0.003;0.065;0.012217304669320583;-0.010995574295520782;0.0036651913542300463
01:00:0A:00:00:00:00;1727308839;26/09/24;00:00:39;1.015;0.002;0.066;0.010995574295520782;-0.010995574295520782;0.0024434609804302454
01:00:0A:00:00:00:00;1727308840;26/09/24;00:00:40;1.016;0.002;0.066;0.012217304669320583;-0.010995574295520782;0.0024434609804302454
01:00:0A:00:00:00:00;1727308841;26/09/24;00:00:41;1.016;0.002;0.066;0.012217304669320583;-0.010995574295520782;0.0036651913542300463
01:00:0A:00:00:00:00;1727308842;26/09/24;00:00:42;1.015;0.002;0.066;0.012217304669320583;-0.010995574295520782;0.0024434609804302454
01:00:0A:00:00:00:00;1727308843;26/09/24;00:00:43;1.016;0.003;0.065;0.012217304669320583;-0.010995574295520782;0.0036651913542300463
01:00:0A:00:00:00:00;1727308844;26/09/24;00:00:44;1.015;0.001;0.067;0.012217304669320583;-0.010995574295520782;0.0036651913542300463
01:00:0A:00:00:00:00;1727308845;26/09/24;00:00:45;1.016;0.002;0.067;0.010995574295520782;-0.010995574295520782;0.0036651913542300463
01:00:0A:00:00:00:00;1727308846;26/09/24;00:00:46;1.015;0.003;0.066;0.012217304669320583;-0.010995574295520782;0.0036651913542300463
01:00:0A:00:00:00:00;1727308847;26/09/24;00:00:47;1.016;0.002;0.065;0.012217304669320583;-0.010995574295520782;0.0036651913542300463
01:00:0A:00:00:00:00;1727308848;26/09/24;00:00:48;1.013;-0.019;0.11;0.03787364438176155;0.021991148591041565;-0.07941248267889023
01:00:0A:00:00:00:00;1727308849;26/09/24;00:00:49;0.552;-0.226;0.767;-0.5412266254425049;-0.09407324343919754;-0.901637077331543
01:00:0A:00:00:00:00;1727308850;26/09/24;00:00:50;0.845;0.016;-0.563;-0.5778785347938538;-2.1038198471069336;0.38606682419776917
01:00:0A:00:00:00:00;1727308851;26/09/24;00:00:51;0.823;0.42;-0.413;-0.8417722582817078;0.7660250067710876;0.5363396406173706
01:00:0A:00:00:00:00;1727308852;26/09/24;00:00:52;0.63;0.812;0.391;-1.2693779468536377;-0.26633724570274353;0.013439035043120384
01:00:0A:00:00:00:00;1727308853;26/09/24;00:00:53;0.955;-0.204;0.235;-0.8491026759147644;-1.1716395616531372;-0.036651913076639175
01:00:0A:00:00:00:00;1727308854;26/09/24;00:00:54;0.991;0.062;-0.196;-0.6206390857696533;0.08918632566928864;0.0708603635430336
01:00:0A:00:00:00:00;1727308855;26/09/24;00:00:55;0.983;-0.238;0.116;-0.3530800938606262;0.09529497474431992;-0.2895500957965851
01:00:0A:00:00:00:00;1727308856;26/09/24;00:00:56;0.415;0.075;-1.106;0.16371189057826996;-0.059864792972803116;-0.38728854060173035
01:00:0A:00:00:00:00;1727308857;26/09/24;00:00:57;0.797;0.175;-0.526;0.14538592100143433;0.1563815027475357;-0.41783180832862854
01:00:0A:00:00:00:00;1727308858;26/09/24;00:00:58;0.987;-0.018;-0.023;0.10018189996480942;0.49235740303993225;0.08185594528913498
01:00:0A:00:00:00:00;1727308859;26/09/24;00:00:59;0.863;0.325;0.337;-0.15882496535778046;0.21991148591041565;-0.445931613445282
01:00:0A:00:00:00:00;1727308860;26/09/24;00:01:00;0.962;0.197;0.211;-0.37629297375679016;-0.025656338781118393;0.6401867866516113
01:00:0A:00:00:00:00;1727308861;26/09/24;00:01:01;0.877;-0.413;0.432;-0.015882495790719986;0.62796950340271;0.18081611394882202
01:00:0A:00:00:00:00;1727308862;26/09/24;00:01:02;1.054;-0.017;-0.104;0.00855211354792118;0.08185594528913498;-0.19914205372333527
01:00:0A:00:00:00:00;1727308863;26/09/24;00:01:03;1.072;-0.088;0.157;0.00855211354792118;0.16371189057826996;0.05375614017248154
01:00:0A:00:00:00:00;1727308864;26/09/24;00:01:04;1.031;0.046;-0.083;0.0354301817715168;-0.38240164518356323;-0.3604104816913605
01:00:0A:00:00:00:00;1727308865;26/09/24;00:01:05;0.931;0.152;-0.128;0.04764748737215996;0.2822197377681732;-0.8552113175392151
01:00:0A:00:00:00:00;1727308866;26/09/24;00:01:06;0.675;0.206;0.68;-0.03787364438176155;-0.9395107626914978;0.7806857824325562
01:00:0A:00:00:00:00;1727308867;26/09/24;00:01:07;1.01;-0.099;-0.154;0.32131510972976685;-0.940732479095459;0.09285151958465576
01:00:0A:00:00:00:00;1727308868;26/09/24;00:01:08;0.988;-0.154;-0.257;0.39828410744667053;0.6010913848876953;-0.2993239760398865
01:00:0A:00:00:00:00;1727308869;26/09/24;00:01:09;0.881;0.349;0.45;0.17470745742321014;-0.20525071024894714;0.3152064383029938
01:00:0A:00:00:00:00;1727308870;26/09/24;00:01:10;0.689;-0.697;-0.025;-2.5314254760742188;-1.243721604347229;4.061031818389893
01:00:0A:00:00:00:00;1727308871;26/09/24;00:01:11;0.745;0.521;-0.521;-1.2571606636047363;0.8894197940826416;0.11484266817569733
01:00:0A:00:00:00:00;1727308872;26/09/24;00:01:12;0.884;-0.304;0.555;-1.0286970138549805;-0.44348815083503723;0.09773843735456467
01:00:0A:00:00:00:00;1727308873;26/09/24;00:01:13;1.02;0.283;0.029;-0.44226640462875366;0.24923302233219147;-0.5558874011039734
01:00:0A:00:00:00:00;1727308874;26/09/24;00:01:14;0.832;-0.003;0.69;-0.5082398653030396;0.5571090579032898;0.5387831330299377
01:00:0A:00:00:00:00;1727308875;26/09/24;00:01:15;0.98;-0.286;-0.193;0.18936821818351746;-0.38117989897727966;-0.5827654600143433
01:00:0A:00:00:00:00;1727308876;26/09/24;00:01:16;0.492;-0.949;-0.411;0.080634206533432;0.08552113175392151;-0.27977627515792847
01:00:0A:00:00:00:00;1727308877;26/09/24;00:01:17;0.647;-0.476;0.489;1.0543533563613892;0.15027284622192383;-0.4703662395477295
01:00:0A:00:00:00:00;1727308878;26/09/24;00:01:18;0.935;0.361;-0.114;0.8967502117156982;-1.4367550611495972;-0.5461135506629944
01:00:0A:00:00:00:00;1727308879;26/09/24;00:01:19;0.942;-0.112;-0.23;0.36651912331581116;0.36651912331581116;0.23090705275535583
01:00:0A:00:00:00:00;1727308880;26/09/24;00:01:20;0.923;0.162;0.239;0.21135938167572021;0.0354301817715168;-0.3946189284324646
01:00:0A:00:00:00:00;1727308881;26/09/24;00:01:21;1.002;0.066;0.015;-0.2076941877603531;-0.5974262356758118;0.9382889866828918
01:00:0A:00:00:00:00;1727308882;26/09/24;00:01:22;0.835;-0.57;-0.319;0.2321287840604782;0.20036379992961884;-0.27611109614372253
01:00:0A:00:00:00:00;1727308883;26/09/24;00:01:23;0.861;0.137;-0.497;-5.611408233642578;-2.1429152488708496;-1.7935004234313965
01:00:0A:00:00:00:00;1727308884;26/09/24;00:01:24;0.805;-0.631;-0.361;-3.3731977939605713;0.2577851116657257;-0.7806857824325562
01:00:0A:00:00:00:00;1727308885;26/09/24;00:01:25;0.949;-0.424;0.333;-2.411695957183838;-0.29688048362731934;0.5412266254425049
01:00:0A:00:00:00:00;1727308886;26/09/24;00:01:26;0.362;-1.117;-0.269;0.4288274049758911;0.9724974632263184;1.0580185651779175
01:00:0A:00:00:00:00;1727308887;26/09/24;00:01:27;0.958;-0.244;0.266;1.0555751323699951;-0.6866125464439392;-0.4813618063926697
01:00:0A:00:00:00:00;1727308888;26/09/24;00:01:28;0.791;0.504;0.503;0.45814892649650574;0.9053022265434265;-0.5742133259773254
01:00:0A:00:00:00:00;1727308889;26/09/24;00:01:29;0.758;-0.458;0.572;-0.02321287989616394;-0.7965682148933411;1.3866640329360962
01:00:0A:00:00:00:00;1727308890;26/09/24;00:01:30;0.845;-0.569;-0.049;0.9065240025520325;-0.817337691783905;-0.7855727076530457
01:00:0A:00:00:00:00;1727308891;26/09/24;00:01:31;0.931;0.093;-0.337;0.9346237778663635;0.3127630054950714;-0.5937609672546387
01:00:0A:00:00:00:00;1727308892;26/09/24;00:01:32;0.986;0.245;-0.078;0.5277875661849976;0.7440338730812073;0.5607742667198181
01:00:0A:00:00:00:00;1727308893;26/09/24;00:01:33;0.903;-0.035;0.556;0.645073652267456;-0.6902776956558228;0.3543018400669098
01:00:0A:00:00:00:00;1727308894;26/09/24;00:01:34;1.041;-0.19;-0.162;0.9089674949645996;-0.08796459436416626;-0.36163222789764404
01:00:0A:00:00:00:00;1727308895;26/09/24;00:01:35;0.783;0.371;-0.15;0.6524040699005127;-0.7574728727340698;-0.5913175940513611
01:00:0A:00:00:00:00;1727308896;26/09/24;00:01:36;0.644;0.47;-0.623;-0.5497786998748779;-0.2528982162475586;0.07696902006864548
01:00:0A:00:00:00:00;1727308897;26/09/24;00:01:37;0.718;0.718;-0.051;-1.3182471990585327;-0.4312708377838135;0.21380282938480377
01:00:0A:00:00:00:00;1727308898;26/09/24;00:01:38;0.866;0.06;0.498;-2.610837936401367;-0.7757988572120667;-0.6658430695533752
01:00:0A:00:00:00:00;1727308899;26/09/24;00:01:39;0.913;-0.418;-0.054;-2.613281488418579;0.7672467231750488;-0.6133087277412415
01:00:0A:00:00:00:00;1727308900;26/09/24;00:01:40;0.968;-0.05;-0.389;-1.9914206266403198;0.3579670488834381;-0.2785545289516449
01:00:0A:00:00:00:00;1727308901;26/09/24;00:01:41;0.65;0.87;0.516;-3.4379494190216064;-0.49235740303993225;-1.3634511232376099
01:00:0A:00:00:00:00;1727308902;26/09/24;00:01:42;0.907;-0.034;-0.377;-2.4385740756988525;-0.929736852645874;-0.3176499307155609
01:00:0A:00:00:00:00;1727308903;26/09/24;00:01:43;0.939;-0.086;0.271;-2.3298401832580566;0.15271630883216858;0.7929030656814575
01:00:0A:00:00:00:00;1727308904;26/09/24;00:01:44;0.973;-0.008;-0.12;-1.684766411781311;0.34574973583221436;-0.32620203495025635
01:00:0A:00:00:00:00;1727308905;26/09/24;00:01:45;0.965;-0.274;0.026;-1.3683381080627441;-0.2724458873271942;0.2480112910270691
01:00:0A:00:00:00:00;1727308906;26/09/24;00:01:46;0.957;0.136;-0.25;-1.0091493129730225;0.5180137157440186;-0.2993239760398865
01:00:0A:00:00:00:00;1727308907;26/09/24;00:01:47;0.967;0.093;0.379;-0.836885392665863;0.28466320037841797;-0.09651670604944229
01:00:0A:00:00:00:00;1727308908;26/09/24;00:01:48;0.874;0.198;0.459;-0.5900958180427551;-0.47769662737846375;-0.5656611919403076
01:00:0A:00:00:00:00;1727308909;26/09/24;00:01:49;0.732;0.34;0.551;-0.750142514705658;-0.45204028487205505;1.2363911867141724
01:00:0A:00:00:00:00;1727308910;26/09/24;00:01:50;0.907;-0.517;0.266;-0.045204028487205505;-0.4996877610683441;-0.5497786998748779
01:00:0A:00:00:00:00;1727308911;26/09/24;00:01:51;0.98;0.404;-0.019;0.06719517707824707;0.29565879702568054;-0.07941248267889023
01:00:0A:00:00:00:00;1727308912;26/09/24;00:01:52;0.95;0.275;0.473;-0.11972958594560623;-0.20036379992961884;0.4605923891067505
01:00:0A:00:00:00:00;1727308913;26/09/24;00:01:53;1.079;-0.152;-0.047;0.02687807008624077;-0.11728612333536148;-0.14905111491680145
01:00:0A:00:00:00:00;1727308914;26/09/24;00:01:54;1.023;0.388;0.083;-0.13072516024112701;0.11850785464048386;-0.27122414112091064
01:00:0A:00:00:00:00;1727308915;26/09/24;00:01:55;1.053;-0.155;0.187;-0.3090977966785431;0.20647244155406952;0.2932153046131134
01:00:0A:00:00:00:00;1727308916;26/09/24;00:01:56;0.989;0.157;0.053;-0.16493360698223114;-0.0757472887635231;-0.4239404499530792
01:00:0A:00:00:00:00;1727308917;26/09/24;00:01:57;0.913;-0.289;-0.207;-0.19792033731937408;-0.6976081132888794;1.0934487581253052
01:00:0A:00:00:00:00;1727308918;26/09/24;00:01:58;0.707;0.563;-0.194;-2.0671679973602295;0.7159340977668762;0.4190535545349121
01:00:0A:00:00:00:00;1727308919;26/09/24;00:01:59;0.903;-0.286;0.122;-1.5039502382278442;-0.42760565876960754;-0.27611109614372253
01:00:0A:00:00:00:00;1727308920;26/09/24;00:02:00;0.944;0.264;0.118;-0.8772024512290955;0.9162978529930115;-0.7330382466316223
01:00:0A:00:00:00:00;1727308921;26/09/24;00:02:01;0.878;0.052;0.324;-0.9932668209075928;-1.8350391387939453;0.12339477241039276
01:00:0A:00:00:00:00;1727308922;26/09/24;00:02:02;0.976;-0.016;-0.365;-1.6310101747512817;-0.39217546582221985;0.6963863372802734
01:00:0A:00:00:00:00;1727308923;26/09/24;00:02:03;0.996;0.063;-0.32;-1.9120081663131714;0.6255260109901428;1.0543533563613892
01:00:0A:00:00:00:00;1727308924;26/09/24;00:02:04;0.831;-0.625;-0.108;-1.5137239694595337;-0.3335324227809906;0.44226640462875366
01:00:0A:00:00:00:00;1727308925;26/09/24;00:02:05;1.022;0.091;-0.221;-1.4098769426345825;-0.598647952079773;0.010995574295520782
01:00:0A:00:00:00:00;1727308926;26/09/24;00:02:06;0.881;0.083;-0.452;-1.0494663715362549;0.1270599663257599;1.1215485334396362
01:00:0A:00:00:00:00;1727308927;26/09/24;00:02:07;0.772;0.478;0.471;-1.2290607690811157;1.056796908378601;-0.9737191796302795
01:00:0A:00:00:00:00;1727308928;26/09/24;00:02:08;0.867;-0.12;0.566;-1.1154398918151855;-0.8356636166572571;0.006108652334660292
01:00:0A:00:00:00:00;1727308929;26/09/24;00:02:09;0.951;0.357;-0.122;-0.7892378568649292;0.14416420459747314;-0.33108896017074585
01:00:0A:00:00:00:00;1727308930;26/09/24;00:02:10;1.011;-0.149;0.173;-0.6841690540313721;-0.1062905490398407;0.5082398653030396
01:00:0A:00:00:00:00;1727308931;26/09/24;00:02:11;1.022;-0.081;-0.159;-0.2590068578720093;-0.1160643920302391;-0.4544837474822998
01:00:0A:00:00:00:00;1727308932;26/09/24;00:02:12;1.051;0.195;0.015;-0.37140607833862305;-0.09773843735456467;0.021991148591041565
01:00:0A:00:00:00:00;1727308933;26/09/24;00:02:13;1.072;-0.113;0.067;-0.4031710624694824;-0.22602014243602753;0.09407324343919754
01:00:0A:00:00:00:00;1727308934;26/09/24;00:02:14;1.0;0.047;-0.261;-0.33597588539123535;0.11850785464048386;-0.0757472887635231
01:00:0A:00:00:00:00;1727308935;26/09/24;00:02:15;0.775;-0.31;0.075;-0.5864306092262268;-1.7495180368423462;1.6395622491836548
01:00:0A:00:00:00:00;1727308936;26/09/24;00:02:16;0.877;0.449;-0.135;-0.25045475363731384;-0.07819075137376785;-1.252273678779602
01:00:0A:00:00:00:00;1727308937;26/09/24;00:02:17;0.662;0.723;-0.49;-0.7086036801338196;-0.4056144952774048;0.5791001915931702
01:00:0A:00:00:00:00;1727308938;26/09/24;00:02:18;0.943;-0.373;-0.274;-0.7806857824325562;0.6719517707824707;0.8772024512290955
01:00:0A:00:00:00:00;1727308939;26/09/24;00:02:19;0.908;-0.489;-0.14;2.8160886764526367;-0.1417207270860672;1.3671163320541382
01:00:0A:00:00:00:00;1727308940;26/09/24;00:02:20;0.914;-0.08;0.229;-1.5320500135421753;1.3768903017044067;1.5650367736816406
01:00:0A:00:00:00:00;1727308941;26/09/24;00:02:21;0.909;-0.428;0.175;-0.8026769161224365;0.7342600226402283;-1.2510520219802856
01:00:0A:00:00:00:00;1727308942;26/09/24;00:02:22;0.935;-0.196;0.373;-0.12339477241039276;0.3579670488834381;-1.1618657112121582
01:00:0A:00:00:00:00;1727308943;26/09/24;00:02:23;0.749;-0.775;0.291;0.21624629199504852;0.27977627515792847;-1.0641272068023682
01:00:0A:00:00:00:00;1727308944;26/09/24;00:02:24;0.653;-0.708;0.228;1.8118263483047485;1.2889256477355957;-0.17348572611808777
01:00:0A:00:00:00:00;1727308945;26/09/24;00:02:25;0.735;-0.473;-0.018;0.46181410551071167;2.6279420852661133;1.920560359954834
01:00:0A:00:00:00:00;1727308946;26/09/24;00:02:26;1.03;0.095;-0.033;0.5705481767654419;-0.36163222789764404;0.8307767510414124
01:00:0A:00:00:00:00;1727308947;26/09/24;00:02:27;0.981;-0.098;0.246;-1.1948524713516235;-0.09529497474431992;-0.949284553527832
01:00:0A:00:00:00:00;1727308948;26/09/24;00:02:28;0.872;-0.605;0.0;-0.025656338781118393;0.19914205372333527;-0.2834414541721344
01:00:0A:00:00:00:00;1727308949;26/09/24;00:02:29;0.951;-0.312;0.107;0.4508185386657715;0.4105014204978943;0.7098253965377808
01:00:0A:00:00:00:00;1727308950;26/09/24;00:02:30;0.97;0.008;0.227;0.12828169763088226;-1.156978726387024;-0.12828169763088226
01:00:0A:00:00:00:00;1727308951;26/09/24;00:02:31;0.985;-0.032;-0.152;0.14416420459747314;0.3127630054950714;-0.17104226350784302
01:00:0A:00:00:00:00;1727308952;26/09/24;00:02:32;0.93;0.261;0.106;-0.29077184200286865;-0.10018189996480942;-0.20891590416431427
01:00:0A:00:00:00:00;1727308953;26/09/24;00:02:33;0.852;-0.363;0.514;-0.44348815083503723;1.1447614431381226;-0.2736676335334778
01:00:0A:00:00:00:00;1727308954;26/09/24;00:02:34;0.979;-0.135;-0.105;-0.15882496535778046;0.23090705275535583;0.18814648687839508
01:00:0A:00:00:00:00;1727308955;26/09/24;00:02:35;0.564;0.978;0.221;1.5552629232406616;-0.2883284091949463;-1.7935004234313965
01:00:0A:00:00:00:00;1727308956;26/09/24;00:02:36;0.909;0.162;-0.464;-0.1258382350206375;1.0054842233657837;0.9871581792831421
01:00:0A:00:00:00:00;1727308957;26/09/24;00:02:37;1.001;-0.174;0.324;-0.09651670604944229;0.1966986060142517;0.10751228034496307
01:00:0A:00:00:00:00;1727308958;26/09/24;00:02:38;0.954;-0.023;0.337;0.11972958594560623;0.028099799528717995;-0.46181410551071167
01:00:0A:00:00:00:00;1727308959;26/09/24;00:02:39;0.935;0.079;-0.301;-0.1966986060142517;-0.7648032903671265;0.36163222789764404
01:00:0A:00:00:00:00;1727308960;26/09/24;00:02:40;0.953;-0.099;0.024;-0.4190535545349121;0.872315526008606;0.26511549949645996
01:00:0A:00:00:00:00;1727308961;26/09/24;00:02:41;0.951;-0.053;0.181;-0.16493360698223114;-0.20036379992961884;-0.30543261766433716
01:00:0A:00:00:00:00;1727308962;26/09/24;00:02:42;0.921;0.024;-0.161;-0.14905111491680145;-0.33719760179519653;0.12217304855585098
01:00:0A:00:00:00:00;1727308963;26/09/24;00:02:43;0.894;0.341;0.444;-0.00855211354792118;0.6548475623130798;-1.1691960096359253
01:00:0A:00:00:00:00;1727308964;26/09/24;00:02:44;0.848;0.646;0.198;-0.9224064946174622;-0.38728854060173035;0.2919935882091522
01:00:0A:00:00:00:00;1727308965;26/09/24;00:02:45;0.913;-0.056;0.591;-1.783726453781128;-0.16004669666290283;-0.09285151958465576
01:00:0A:00:00:00:00;1727308966;26/09/24;00:02:46;0.952;0.383;-0.078;-1.3927726745605469;0.15271630883216858;0.04886921867728233
01:00:0A:00:00:00:00;1727308967;26/09/24;00:02:47;1.027;-0.126;0.218;-1.1948524713516235;-0.3689626157283783;-0.08307767659425735
01:00:0A:00:00:00:00;1727308968;26/09/24;00:02:48;1.018;0.241;0.12;-1.1288789510726929;-0.0757472887635231;0.10506881773471832
01:00:0A:00:00:00:00;1727308969;26/09/24;00:02:49;1.058;-0.175;-0.026;-1.0824532508850098;-0.22479839622974396;0.20891590416431427
01:00:0A:00:00:00:00;1727308970;26/09/24;00:02:50;0.782;0.586;-0.044;-1.9486600160598755;0.2834414541721344;0.7757988572120667
01:00:0A:00:00:00:00;1727308971;26/09/24;00:02:51;0.935;-0.266;-0.266;-1.5931364297866821;-0.5925393104553223;0.010995574295520782
01:00:0A:00:00:00:00;1727308972;26/09/24;00:02:52;0.977;0.183;0.109;-1.6212363243103027;0.5485569834709167;0.5900958180427551
01:00:0A:00:00:00:00;1727308973;26/09/24;00:02:53;0.926;-0.395;0.126;-1.1386528015136719;-0.17959438264369965;-0.07941248267889023
01:00:0A:00:00:00:00;1727308974;26/09/24;00:02:54;1.021;-0.037;-0.112;-0.6633996367454529;0.07696902006864548;-0.4447098970413208
01:00:0A:00:00:00:00;1727308975;26/09/24;00:02:55;0.994;0.165;0.224;-0.807563841342926;-0.0073303827084600925;0.3066543638706207
01:00:0A:00:00:00:00;1727308976;26/09/24;00:02:56;1.012;-0.235;0.04;-0.5412266254425049;-0.18325956165790558;0.021991148591041565
01:00:0A:00:00:00:00;1727308977;26/09/24;00:02:57;1.012;0.144;-0.036;-0.4605923891067505;0.13927726447582245;-0.23090705275535583
01:00:0A:00:00:00:00;1727308978;26/09/24;00:02:58;0.998;0.099;0.103;-0.6682865619659424;-0.12095131725072861;0.16371189057826996
01:00:0A:00:00:00:00;1727308979;26/09/24;00:02:59;1.005;-0.046;-0.017;-0.6414085030555725;-0.015882495790719986;0.0708603635430336
01:00:0A:00:00:00:00;1727308980;26/09/24;00:03:00;1.038;-0.048;0.068;-0.5754350423812866;0.26022857427597046;-0.012217304669320583
01:00:0A:00:00:00:00;1727308981;26/09/24;00:03:01;1.017;-0.004;0.309;-0.46670106053352356;-0.17959438264369965;-0.20647244155406952
01:00:0A:00:00:00:00;1727308982;26/09/24;00:03:02;1.019;0.219;-0.158;-0.5546656250953674;-0.3286454975605011;-0.19425514340400696
01:00:0A:00:00:00:00;1727308983;26/09/24;00:03:03;1.027;-0.049;0.08;-0.7415903806686401;0.16493360698223114;0.2015855312347412
01:00:0A:00:00:00:00;1727308984;26/09/24;00:03:04;1.016;0.045;0.067;-0.6719517707824707;-0.00855211354792118;-0.32131510972976685
01:00:0A:00:00:00:00;1727308985;26/09/24;00:03:05;1.016;0.089;0.041;-0.8210028409957886;-0.17959438264369965;0.018325956538319588
01:00:0A:00:00:00:00;1727308986;26/09/24;00:03:06;1.02;-0.169;0.01;-0.797789990901947;0.09040805697441101;0.19792033731937408
01:00:0A:00:00:00:00;1727308987;26/09/24;00:03:07;0.991;-0.053;0.139;-0.5791001915931702;0.2370157092809677;-0.37140607833862305
01:00:0A:00:00:00:00;1727308988;26/09/24;00:03:08;0.969;0.099;0.06;-0.6181955933570862;-0.39095374941825867;-0.18081611394882202
01:00:0A:00:00:00:00;1727308989;26/09/24;00:03:09;0.968;0.006;-0.063;-0.7660250067710876;-0.09651670604944229;0.3237585723400116
01:00:0A:00:00:00:00;1727308990;26/09/24;00:03:10;0.998;-0.078;-0.02;-0.6059783101081848;0.31642818450927734;-0.10262535512447357
01:00:0A:00:00:00:00;1727308991;26/09/24;00:03:11;1.018;0.0;0.205;-0.48380526900291443;-0.2028072476387024;-0.15393804013729095
01:00:0A:00:00:00:00;1727308992;26/09/24;00:03:12;1.027;0.066;-0.075;-0.5497786998748779;-0.22602014243602753;-0.02932153083384037
01:00:0A:00:00:00:00;1727308993;26/09/24;00:03:13;1.012;0.077;0.024;-0.6670648455619812;0.05253440886735916;0.06719517707824707
01:00:0A:00:00:00:00;1727308994;26/09/24;00:03:14;1.016;-0.003;0.039;-0.6194173693656921;-0.09529497474431992;0.03298672288656235
01:00:0A:00:00:00:00;1727308995;26/09/24;00:03:15;1.018;0.004;0.019;-0.5436700582504272;0.07452555745840073;-0.030543262138962746
01:00:0A:00:00:00:00;1727308996;26/09/24;00:03:16;1.043;-0.002;0.152;-0.5155702233314514;0.1111774742603302;0.04398229718208313
01:00:0A:00:00:00:00;1727308997;26/09/24;00:03:17;0.924;-0.133;0.346;-0.2528982162475586;-0.02321287989616394;0.006108652334660292
01:00:0A:00:00:00:00;1727308998;26/09/24;00:03:18;0.994;-0.016;0.091;-0.04153883829712868;-0.7061601877212524;-0.37262779474258423
01:00:0A:00:00:00:00;1727308999;26/09/24;00:03:19;0.985;0.078;-0.173;-0.3286454975605011;0.49235740303993225;0.3335324227809906
01:00:0A:00:00:00:00;1727309000;26/09/24;00:03:20;0.99;-0.244;0.279;-0.13316862285137177;-0.13805554807186127;-0.12217304855585098
01:00:0A:00:00:00:00;1727309001;26/09/24;00:03:21;1.064;-0.004;0.018;-0.021991148591041565;-0.2028072476387024;-0.11362093687057495
01:00:0A:00:00:00:00;1727309002;26/09/24;00:03:22;1.052;0.027;-0.009;-0.14416420459747314;0.12339477241039276;0.12095131725072861
01:00:0A:00:00:00:00;1727309003;26/09/24;00:03:23;1.01;-0.114;0.167;-0.0757472887635231;0.17837265133857727;0.11850785464048386
01:00:0A:00:00:00:00;1727309004;26/09/24;00:03:24;1.02;0.002;0.081;0.05619959905743599;-0.1563815027475357;-0.17470745742321014
01:00:0A:00:00:00:00;1727309005;26/09/24;00:03:25;1.003;0.017;0.001;-0.059864792972803116;-0.0012217304902151227;0.05009094998240471
01:00:0A:00:00:00:00;1727309006;26/09/24;00:03:26;0.98;-0.054;0.103;-0.07452555745840073;0.12950342893600464;0.09040805697441101
01:00:0A:00:00:00:00;1727309007;26/09/24;00:03:27;0.971;-0.003;0.058;0.013439035043120384;-0.1918116807937622;-0.13439035415649414
01:00:0A:00:00:00:00;1727309008;26/09/24;00:03:28;0.981;0.167;0.033;-0.030543262138962746;0.13072516024112701;-0.23579397797584534
01:00:0A:00:00:00:00;1727309009;26/09/24;00:03:29;0.972;0.298;0.234;-0.2626720666885376;-0.0354301817715168;-0.036651913076639175
01:00:0A:00:00:00:00;1727309010;26/09/24;00:03:30;0.971;0.04;0.157;-0.4593706727027893;-0.20891590416431427;0.2125810980796814
01:00:0A:00:00:00:00;1727309011;26/09/24;00:03:31;0.977;-0.041;0.274;-0.38117989897727966;0.08918632566928864;-0.03420845419168472
01:00:0A:00:00:00:00;1727309012;26/09/24;00:03:32;0.96;-0.004;0.356;-0.2773328125476837;0.0036651913542300463;-0.15393804013729095
01:00:0A:00:00:00:00;1727309013;26/09/24;00:03:33;0.962;-0.057;0.354;-0.2321287840604782;-0.009773843921720982;0.08429940044879913
01:00:0A:00:00:00:00;1727309014;26/09/24;00:03:34;1.021;-0.04;0.087;-0.02687807008624077;-0.39828410744667053;-0.16859880089759827
01:00:0A:00:00:00:00;1727309015;26/09/24;00:03:35;1.004;0.094;-0.091;-0.15027284622192383;0.0659734457731247;-0.012217304669320583
01:00:0A:00:00:00:00;1727309016;26/09/24;00:03:36;0.992;-0.06;0.186;-0.2028072476387024;0.1820378452539444;0.21624629199504852
01:00:0A:00:00:00:00;1727309017;26/09/24;00:03:37;0.998;-0.057;0.135;0.05375614017248154;-0.23457224667072296;-0.20036379992961884
01:00:0A:00:00:00:00;1727309018;26/09/24;00:03:38;1.01;0.085;-0.022;-0.0354301817715168;0.021991148591041565;-0.02076941914856434
01:00:0A:00:00:00:00;1727309019;26/09/24;00:03:39;1.022;0.003;0.119;-0.13561207056045532;0.11850785464048386;0.11850785464048386
01:00:0A:00:00:00:00;1727309020;26/09/24;00:03:40;1.011;-0.052;0.109;-0.0354301817715168;-0.09651670604944229;-0.05253440886735916
01:00:0A:00:00:00:00;1727309021;26/09/24;00:03:41;1.001;0.046;0.037;-0.039095375686883926;-0.080634206533432;-0.04886921867728233
01:00:0A:00:00:00:00;1727309022;26/09/24;00:03:42;1.01;0.003;0.073;-0.1270599663257599;0.05742133408784866;0.12217304855585098
01:00:0A:00:00:00:00;1727309023;26/09/24;00:03:43;1.032;-0.071;0.129;-0.02932153083384037;-0.08552113175392151;-0.04153883829712868
01:00:0A:00:00:00:00;1727309024;26/09/24;00:03:44;1.047;0.052;0.022;-0.030543262138962746;-0.04153883829712868;-0.0354301817715168
01:00:0A:00:00:00:00;1727309025;26/09/24;00:03:45;1.025;0.011;0.07;-0.10751228034496307;0.08307767659425735;0.0659734457731247
01:00:0A:00:00:00:00;1727309026;26/09/24;00:03:46;1.004;-0.034;0.068;-0.06719517707824707;-0.004886921960860491;0.006108652334660292
01:00:0A:00:00:00:00;1727309027;26/09/24;00:03:47;0.987;0.002;0.022;-0.040317103266716;-0.03787364438176155;-0.06108652427792549
01:00:0A:00:00:00:00;1727309028;26/09/24;00:03:48;1.005;0.01;0.054;-0.08307767659425735;0.036651913076639175;0.02687807008624077
01:00:0A:00:00:00:00;1727309029;26/09/24;00:03:49;1.012;-0.018;0.104;-0.06963863223791122;-0.025656338781118393;-0.006108652334660292
01:00:0A:00:00:00:00;1727309030;26/09/24;00:03:50;1.016;0.012;0.057;-0.0659734457731247;-0.06108652427792549;-0.0354301817715168
01:00:0A:00:00:00:00;1727309031;26/09/24;00:03:51;1.016;0.016;0.038;-0.12461651116609573;0.00855211354792118;0.040317103266716
01:00:0A:00:00:00:00;1727309032;26/09/24;00:03:52;1.021;0.0;0.072;-0.1319468915462494;-0.010995574295520782;0.0036651913542300463
01:00:0A:00:00:00:00;1727309033;26/09/24;00:03:53;1.025;0.004;0.063;-0.12950342893600464;-0.05253440886735916;-0.02932153083384037
01:00:0A:00:00:00:00;1727309034;26/09/24;00:03:54;1.021;0.025;0.035;-0.161268413066864;-0.006108652334660292;0.0012217304902151227
01:00:0A:00:00:00:00;1727309035;26/09/24;00:03:55;1.012;-0.01;0.067;-0.1771509200334549;0.02321287989616394;0.040317103266716
01:00:0A:00:00:00:00;1727309036;26/09/24;00:03:56;1.013;0.01;0.067;-0.1563815027475357;-0.0073303827084600925;-0.04153883829712868
01:00:0A:00:00:00:00;1727309037;26/09/24;00:03:57;1.014;0.031;0.047;-0.18325956165790558;-0.009773843921720982;-0.013439035043120384
01:00:0A:00:00:00:00;1727309038;26/09/24;00:03:58;1.018;0.008;0.061;-0.2076941877603531;-0.0073303827084600925;0.019547687843441963
01:00:0A:00:00:00:00;1727309039;26/09/24;00:03:59;1.011;0.003;0.068;-0.19914205372333527;0.0036651913542300463;-0.02321287989616394
01:00:0A:00:00:00:00;1727309040;26/09/24;00:04:00;1.006;0.028;0.07;-0.20891590416431427;-0.021991148591041565;-0.02321287989616394
01:00:0A:00:00:00:00;1727309041;26/09/24;00:04:01;1.004;0.014;0.071;-0.2321287840604782;-0.02932153083384037;0.01710422709584236
01:00:0A:00:00:00:00;1727309042;26/09/24;00:04:02;1.007;0.0;0.083;-0.21868975460529327;-0.02076941914856434;-0.014660765416920185
01:00:0A:00:00:00:00;1727309043;26/09/24;00:04:03;1.019;-0.004;0.085;-0.20402899384498596;-0.05253440886735916;-0.013439035043120384
01:00:0A:00:00:00:00;1727309044;26/09/24;00:04:04;1.031;-0.003;0.074;-0.19792033731937408;-0.019547687843441963;0.00855211354792118
01:00:0A:00:00:00:00;1727309045;26/09/24;00:04:05;1.02;-0.034;0.098;-0.15027284622192383;0.17837265133857727;0.2125810980796814
01:00:0A:00:00:00:00;1727309046;26/09/24;00:04:06;0.989;-0.147;0.222;0.04764748737215996;0.06963863223791122;0.10262535512447357
01:00:0A:00:00:00:00;1727309047;26/09/24;00:04:07;0.994;-0.139;0.21;0.41783180832862854;-0.07452555745840073;-0.006108652334660292
01:00:0A:00:00:00:00;1727309048;26/09/24;00:04:08;1.002;-0.051;0.174;0.5082398653030396;-0.080634206533432;0.025656338781118393
01:00:0A:00:00:00:00;1727309049;26/09/24;00:04:09;1.009;-0.028;0.146;0.3738495111465454;0.014660765416920185;0.06719517707824707
01:00:0A:00:00:00:00;1727309050;26/09/24;00:04:10;1.003;-0.01;0.192;0.10384709388017654;0.02932153083384037;-0.006108652334660292
01:00:0A:00:00:00:00;1727309051;26/09/24;00:04:11;0.999;0.045;0.199;-0.009773843921720982;-0.03420845419168472;-0.051312677562236786
01:00:0A:00:00:00:00;1727309052;26/09/24;00:04:12;0.999;0.086;0.183;-0.0354301817715168;-0.051312677562236786;-0.05619959905743599
01:00:0A:00:00:00:00;1727309053;26/09/24;00:04:13;1.006;0.097;0.131;0.019547687843441963;-0.030543262138962746;0.006108652334660292
01:00:0A:00:00:00:00;1727309054;26/09/24;00:04:14;1.007;0.087;0.109;0.018325956538319588;-0.004886921960860491;0.04398229718208313
01:00:0A:00:00:00:00;1727309055;26/09/24;00:04:15;1.01;0.061;0.107;0.0036651913542300463;0.015882495790719986;0.04398229718208313
01:00:0A:00:00:00:00;1727309056;26/09/24;00:04:16;1.009;0.038;0.139;-0.021991148591041565;0.05009094998240471;0.02687807008624077
01:00:0A:00:00:00:00;1727309057;26/09/24;00:04:17;1.001;-0.003;0.202;0.024434609338641167;0.05375614017248154;0.015882495790719986
01:00:0A:00:00:00:00;1727309058;26/09/24;00:04:18;0.996;-0.012;0.226;0.021991148591041565;-0.0036651913542300463;0.02687807008624077
01:00:0A:00:00:00:00;1727309059;26/09/24;00:04:19;0.998;-0.026;0.205;0.024434609338641167;-0.04886921867728233;0.019547687843441963
01:00:0A:00:00:00:00;1727309060;26/09/24;00:04:20;1.004;-0.04;0.177;-0.0024434609804302454;-0.05497787147760391;0.021991148591041565
01:00:0A:00:00:00:00;1727309061;26/09/24;00:04:21;1.009;-0.041;0.155;-0.006108652334660292;-0.045204028487205505;-0.040317103266716
01:00:0A:00:00:00:00;1727309062;26/09/24;00:04:22;1.006;-0.004;0.18;0.010995574295520782;0.0024434609804302454;-0.05742133408784866
01:00:0A:00:00:00:00;1727309063;26/09/24;00:04:23;1.005;0.054;0.17;-0.009773843921720982;-0.014660765416920185;-0.05497787147760391
01:00:0A:00:00:00:00;1727309064;26/09/24;00:04:24;0.999;0.101;0.166;-0.07208210229873657;-0.036651913076639175;-0.036651913076639175
01:00:0A:00:00:00:00;1727309065;26/09/24;00:04:25;1.004;0.128;0.098;0.02687807008624077;-0.07452555745840073;-0.01710422709584236
01:00:0A:00:00:00:00;1727309066;26/09/24;00:04:26;1.007;0.126;0.056;0.013439035043120384;-0.039095375686883926;0.00855211354792118
01:00:0A:00:00:00:00;1727309067;26/09/24;00:04:27;1.016;0.059;0.049;0.0708603635430336;0.014660765416920185;0.0659734457731247
01:00:0A:00:00:00:00;1727309068;26/09/24;00:04:28;1.015;0.008;0.08;0.04642575979232788;0.014660765416920185;0.07696902006864548
01:00:0A:00:00:00:00;1727309069;26/09/24;00:04:29;1.012;-0.046;0.131;0.030543262138962746;0.019547687843441963;0.05497787147760391
01:00:0A:00:00:00:00;1727309070;26/09/24;00:04:30;1.008;-0.038;0.156;0.06719517707824707;-0.0073303827084600925;-0.013439035043120384
01:00:0A:00:00:00:00;1727309071;26/09/24;00:04:31;1.008;-0.044;0.161;0.03787364438176155;-0.02076941914856434;-0.015882495790719986
01:00:0A:00:00:00:00;1727309072;26/09/24;00:04:32;1.009;-0.022;0.152;-0.0024434609804302454;-0.015882495790719986;-0.025656338781118393
01:00:0A:00:00:00:00;1727309073;26/09/24;00:04:33;1.011;-0.014;0.13;-0.0012217304902151227;-0.02321287989616394;0.004886921960860491
01:00:0A:00:00:00:00;1727309074;26/09/24;00:04:34;1.013;0.01;0.117;-0.02932153083384037;-0.00855211354792118;-0.0012217304902151227
01:00:0A:00:00:00:00;1727309075;26/09/24;00:04:35;1.015;0.01;0.096;0.0024434609804302454;-0.02321287989616394;-0.0073303827084600925
01:00:0A:00:00:00:00;1727309076;26/09/24;00:04:36;1.012;-0.006;0.123;0.009773843921720982;0.02932153083384037;0.004886921960860491
01:00:0A:00:00:00:00;1727309077;26/09/24;00:04:37;1.01;-0.018;0.152;0.024434609338641167;0.015882495790719986;0.024434609338641167
01:00:0A:00:00:00:00;1727309078;26/09/24;00:04:38;1.005;-0.005;0.184;0.004886921960860491;0.0036651913542300463;0.004886921960860491
01:00:0A:00:00:00:00;1727309079;26/09/24;00:04:39;1.004;0.01;0.175;0.0;-0.03787364438176155;-0.0073303827084600925
01:00:0A:00:00:00:00;1727309080;26/09/24;00:04:40;1.009;0.025;0.148;0.004886921960860491;-0.04398229718208313;-0.015882495790719986
01:00:0A:00:00:00:00;1727309081;26/09/24;00:04:41;1.011;0.008;0.137;-0.01710422709584236;-0.009773843921720982;0.024434609338641167
01:00:0A:00:00:00:00;1727309082;26/09/24;00:04:42;1.011;-0.004;0.142;0.013439035043120384;-0.0073303827084600925;0.021991148591041565
01:00:0A:00:00:00:00;1727309083;26/09/24;00:04:43;1.009;-0.008;0.153;0.006108652334660292;0.012217304669320583;0.018325956538319588
01:00:0A:00:00:00:00;1727309084;26/09/24;00:04:44;1.009;0.004;0.153;-0.0073303827084600925;0.004886921960860491;-0.02321287989616394
01:00:0A:00:00:00:00;1727309085;26/09/24;00:04:45;1.009;0.008;0.144;0.0024434609804302454;-0.010995574295520782;-0.010995574295520782
01:00:0A:00:00:00:00;1727309086;26/09/24;00:04:46;1.009;0.005;0.156;-0.02321287989616394;-0.0073303827084600925;0.012217304669320583
01:00:0A:00:00:00:00;1727309087;26/09/24;00:04:47;1.007;-0.002;0.16;0.0;-0.0354301817715168;0.012217304669320583
01:00:0A:00:00:00:00;1727309088;26/09/24;00:04:48;1.007;0.006;0.157;-0.0073303827084600925;-0.02932153083384037;0.012217304669320583
01:00:0A:00:00:00:00;1727309089;26/09/24;00:04:49;1.01;0.005;0.143;0.0073303827084600925;-0.040317103266716;-0.0073303827084600925
01:00:0A:00:00:00:00;1727309090;26/09/24;00:04:50;1.01;-0.001;0.142;0.006108652334660292;-0.004886921960860491;0.006108652334660292
01:00:0A:00:00:00:00;1727309091;26/09/24;00:04:51;1.008;-0.015;0.151;0.019547687843441963;0.009773843921720982;0.009773843921720982
01:00:0A:00:00:00:00;1727309092;26/09/24;00:04:52;1.008;-0.004;0.157;0.0073303827084600925;-0.006108652334660292;-0.0012217304902151227
01:00:0A:00:00:00:00;1727309093;26/09/24;00:04:53;1.009;0.006;0.147;-0.0012217304902151227;-0.009773843921720982;-0.014660765416920185
01:00:0A:00:00:00:00;1727309094;26/09/24;00:04:54;1.01;0.013;0.145;0.009773843921720982;-0.018325956538319588;0.0
01:00:0A:00:00:00:00;1727309095;26/09/24;00:04:55;1.01;-0.003;0.143;0.010995574295520782;-0.009773843921720982;0.00855211354792118
01:00:0A:00:00:00:00;1727309096;26/09/24;00:04:56;1.009;-0.006;0.158;0.0024434609804302454;-0.010995574295520782;0.0036651913542300463
01:00:0A:00:00:00:00;1727309097;26/09/24;00:04:57;1.009;-0.002;0.149;0.0012217304902151227;-0.028099799528717995;-0.0012217304902151227
01:00:0A:00:00:00:00;1727309098;26/09/24;00:04:58;1.01;0.017;0.139;0.0;-0.02076941914856434;-0.0073303827084600925
01:00:0A:00:00:00:00;1727309099;26/09/24;00:04:59;1.012;0.006;0.125;0.010995574295520782;-0.025656338781118393;0.006108652334660292
01:00:0A:00:00:00:00;1727309100;26/09/24;00:05:00;1.011;-0.002;0.14;0.009773843921720982;0.0;0.01710422709584236
01:00:0A:00:00:00:00;1727309101;26/09/24;00:05:01;1.008;-0.016;0.155;0.00855211354792118;-0.0024434609804302454;0.0073303827084600925
01:00:0A:00:00:00:00;1727309102;26/09/24;00:05:02;1.008;0.004;0.151;-0.006108652334660292;-0.0012217304902151227;-0.013439035043120384
01:00:0A:00:00:00:00;1727309103;26/09/24;00:05:03;1.011;0.008;0.134;0.004886921960860491;-0.0073303827084600925;0.0012217304902151227
01:00:0A:00:00:00:00;1727309104;26/09/24;00:05:04;1.012;0.01;0.13;0.006108652334660292;-0.014660765416920185;0.006108652334660292
01:00:0A:00:00:00:00;1727309105;26/09/24;00:05:05;1.011;-0.012;0.136;0.01710422709584236;-0.014660765416920185;0.02321287989616394
01:00:0A:00:00:00:00;1727309106;26/09/24;00:05:06;1.01;-0.008;0.141;0.013439035043120384;-0.024434609338641167;-0.0024434609804302454
01:00:0A:00:00:00:00;1727309107;26/09/24;00:05:07;1.011;0.002;0.128;0.0036651913542300463;-0.02687807008624077;-0.0024434609804302454
01:00:0A:00:00:00:00;1727309108;26/09/24;00:05:08;1.011;0.004;0.128;0.0024434609804302454;-0.0024434609804302454;0.006108652334660292
01:00:0A:00:00:00:00;1727309109;26/09/24;00:05:09;1.012;-0.007;0.131;0.0073303827084600925;-0.006108652334660292;0.015882495790719986
01:00:0A:00:00:00:00;1727309110;26/09/24;00:05:10;1.009;-0.006;0.151;0.00855211354792118;0.014660765416920185;-0.0073303827084600925
01:00:0A:00:00:00:00;1727309111;26/09/24;00:05:11;1.01;0.0;0.149;0.0073303827084600925;-0.01710422709584236;-0.0024434609804302454
01:00:0A:00:00:00:00;1727309112;26/09/24;00:05:12;1.009;0.012;0.14;0.004886921960860491;-0.013439035043120384;-0.0024434609804302454
01:00:0A:00:00:00:00;1727309113;26/09/24;00:05:13;1.011;0.001;0.134;0.0036651913542300463;-0.01710422709584236;0.019547687843441963
01:00:0A:00:00:00:00;1727309114;26/09/24;00:05:14;1.01;-0.006;0.144;0.0012217304902151227;-0.012217304669320583;-0.0036651913542300463
01:00:0A:00:00:00:00;1727309115;26/09/24;00:05:15;1.009;-0.006;0.151;0.0036651913542300463;-0.0073303827084600925;-0.004886921960860491
01:00:0A:00:00:00:00;1727309116;26/09/24;00:05:16;1.01;0.011;0.146;0.00855211354792118;-0.021991148591041565;-0.021991148591041565
01:00:0A:00:00:00:00;1727309117;26/09/24;00:05:17;1.011;0.016;0.13;0.0012217304902151227;-0.01710422709584236;0.009773843921720982
01:00:0A:00:00:00:00;1727309118;26/09/24;00:05:18;1.011;0.012;0.133;-0.0012217304902151227;-0.009773843921720982;0.014660765416920185
01:00:0A:00:00:00:00;1727309119;26/09/24;00:05:19;1.011;-0.006;0.142;0.0073303827084600925;-0.006108652334660292;0.0073303827084600925
01:00:0A:00:00:00:00;1727309120;26/09/24;00:05:20;1.01;-0.003;0.144;0.006108652334660292;0.0036651913542300463;-0.00855211354792118
01:00:0A:00:00:00:00;1727309121;26/09/24;00:05:21;1.011;0.009;0.132;0.0073303827084600925;-0.018325956538319588;-0.0036651913542300463
01:00:0A:00:00:00:00;1727309122;26/09/24;00:05:22;1.011;0.014;0.122;0.0024434609804302454;-0.0036651913542300463;0.012217304669320583
01:00:0A:00:00:00:00;1727309123;26/09/24;00:05:23;1.012;0.002;0.127;0.004886921960860491;-0.012217304669320583;0.012217304669320583
01:00:0A:00:00:00:00;1727309124;26/09/24;00:05:24;1.011;-0.008;0.141;0.004886921960860491;-0.004886921960860491;0.0012217304902151227
01:00:0A:00:00:00:00;1727309125;26/09/24;00:05:25;1.01;-0.003;0.141;0.006108652334660292;-0.01710422709584236;-0.00855211354792118
01:00:0A:00:00:00:00;1727309126;26/09/24;00:05:26;1.01;0.011;0.137;0.0036651913542300463;-0.021991148591041565;-0.0012217304902151227
01:00:0A:00:00:00:00;1727309127;26/09/24;00:05:27;1.01;0.012;0.131;0.0;0.0024434609804302454;0.014660765416920185
01:00:0A:00:00:00:00;1727309128;26/09/24;00:05:28;1.009;0.002;0.147;0.004886921960860491;-0.0036651913542300463;0.00855211354792118
01:00:0A:00:00:00:00;1727309129;26/09/24;00:05:29;1.009;-0.011;0.147;0.009773843921720982;-0.0036651913542300463;-0.0024434609804302454
01:00:0A:00:00:00:00;1727309130;26/09/24;00:05:30;1.01;0.004;0.144;0.006108652334660292;-0.021991148591041565;-0.010995574295520782
01:00:0A:00:00:00:00;1727309131;26/09/24;00:05:31;1.011;0.008;0.13;0.00855211354792118;-0.021991148591041565;0.0024434609804302454
01:00:0A:00:00:00:00;1727309132;26/09/24;00:05:32;1.01;0.013;0.132;-0.0024434609804302454;-0.00855211354792118;0.013439035043120384
01:00:0A:00:00:00:00;1727309133;26/09/24;00:05:33;1.011;-0.004;0.142;0.004886921960860491;-0.014660765416920185;-0.0012217304902151227
01:00:0A:00:00:00:00;1727309134;26/09/24;00:05:34;1.01;0.0;0.144;0.006108652334660292;-0.009773843921720982;-0.0024434609804302454
01:00:0A:00:00:00:00;1727309135;26/09/24;00:05:35;1.01;-0.001;0.138;0.010995574295520782;-0.02932153083384037;0.0
01:00:0A:00:00:00:00;1727309136;26/09/24;00:05:36;1.01;0.007;0.134;-0.0012217304902151227;-0.013439035043120384;0.0073303827084600925
01:00:0A:00:00:00:00;1727309137;26/09/24;00:05:37;1.01;0.0;0.136;0.004886921960860491;-0.0073303827084600925;0.009773843921720982
01:00:0A:00:00:00:00;1727309138;26/09/24;00:05:38;1.01;0.0;0.147;0.004886921960860491;-0.0073303827084600925;-0.009773843921720982
01:00:0A:00:00:00:00;1727309139;26/09/24;00:05:39;1.009;0.0;0.138;0.009773843921720982;-0.014660765416920185;0.0024434609804302454
01:00:0A:00:00:00:00;1727309140;26/09/24;00:05:40;1.01;0.007;0.14;0.00855211354792118;-0.014660765416920185;0.0
01:00:0A:00:00:00:00;1727309141;26/09/24;00:05:41;1.011;0.004;0.13;0.0036651913542300463;-0.00855211354792118;0.019547687843441963
01:00:0A:00:00:00:00;1727309142;26/09/24;00:05:42;1.009;0.001;0.145;0.0024434609804302454;-0.004886921960860491;-0.0024434609804302454
01:00:0A:00:00:00:00;1727309143;26/09/24;00:05:43;1.01;-0.002;0.145;0.004886921960860491;-0.018325956538319588;-0.004886921960860491
01:00:0A:00:00:00:00;1727309144;26/09/24;00:05:44;1.011;0.012;0.137;0.0073303827084600925;-0.018325956538319588;-0.0073303827084600925
01:00:0A:00:00:00:00;1727309145;26/09/24;00:05:45;1.011;0.016;0.129;0.004886921960860491;-0.02076941914856434;0.012217304669320583
01:00:0A:00:00:00:00;1727309146;26/09/24;00:05:46;1.011;0.022;0.127;-0.009773843921720982;0.0;0.010995574295520782
01:00:0A:00:00:00:00;1727309147;26/09/24;00:05:47;1.01;0.007;0.139;0.0073303827084600925;-0.0024434609804302454;0.010995574295520782
01:00:0A:00:00:00:00;1727309148;26/09/24;00:05:48;1.01;0.002;0.143;0.0073303827084600925;0.0;0.0012217304902151227
01:00:0A:00:00:00:00;1727309149;26/09/24;00:05:49;1.01;-0.002;0.138;0.00855211354792118;-0.014660765416920185;0.00855211354792118
01:00:0A:00:00:00:00;1727309150;26/09/24;00:05:50;1.009;0.002;0.139;0.0024434609804302454;-0.0073303827084600925;0.006108652334660292
01:00:0A:00:00:00:00;1727309151;26/09/24;00:05:51;1.011;0.002;0.136;0.0;-0.00855211354792118;0.004886921960860491
01:00:0A:00:00:00:00;1727309152;26/09/24;00:05:52;1.01;0.0;0.146;0.0073303827084600925;-0.012217304669320583;-0.00855211354792118
01:00:0A:00:00:00:00;1727309153;26/09/24;00:05:53;1.013;0.004;0.138;0.013439035043120384;-0.024434609338641167;-0.0012217304902151227
01:00:0A:00:00:00:00;1727309154;26/09/24;00:05:54;1.011;0.007;0.14;0.0073303827084600925;-0.014660765416920185;0.0036651913542300463
01:00:0A:00:00:00:00;1727309155;26/09/24;00:05:55;1.011;0.005;0.14;0.0036651913542300463;-0.004886921960860491;0.015882495790719986
01:00:0A:00:00:00:00;1727309156;26/09/24;00:05:56;1.01;0.0;0.147;0.0036651913542300463;-0.0012217304902151227;0.0036651913542300463
01:00:0A:00:00:00:00;1727309157;26/09/24;00:05:57;1.01;-0.003;0.152;0.0036651913542300463;-0.014660765416920185;-0.00855211354792118
01:00:0A:00:00:00:00;1727309158;26/09/24;00:05:58;1.011;0.011;0.14;0.010995574295520782;-0.025656338781118393;-0.009773843921720982
01:00:0A:00:00:00:00;1727309159;26/09/24;00:05:59;1.011;0.017;0.135;0.010995574295520782;-0.015882495790719986;0.006108652334660292
01:00:0A:00:00:00:00;1727309160;26/09/24;00:06:00;1.011;0.016;0.136;0.0;0.0;0.010995574295520782
01:00:0A:00:00:00:00;1727309161;26/09/24;00:06:01;1.009;0.001;0.145;0.009773843921720982;-0.0024434609804302454;0.009773843921720982
01:00:0A:00:00:00:00;1727309162;26/09/24;00:06:02;1.009;-0.002;0.152;0.006108652334660292;-0.013439035043120384;0.0024434609804302454
01:00:0A:00:00:00:00;1727309163;26/09/24;00:06:03;1.01;0.001;0.143;0.0073303827084600925;-0.024434609338641167;-0.004886921960860491
01:00:0A:00:00:00:00;1727309164;26/09/24;00:06:04;1.009;0.005;0.144;0.006108652334660292;-0.013439035043120384;0.0073303827084600925
01:00:0A:00:00:00:00;1727309165;26/09/24;00:06:05;1.01;0.003;0.14;0.0024434609804302454;-0.00855211354792118;0.004886921960860491
01:00:0A:00:00:00:00;1727309166;26/09/24;00:06:06;1.01;0.0;0.146;0.006108652334660292;-0.0036651913542300463;0.0024434609804302454
01:00:0A:00:00:00:00;1727309167;26/09/24;00:06:07;1.01;0.0;0.142;0.0073303827084600925;-0.014660765416920185;-0.0012217304902151227
01:00:0A:00:00:00:00;1727309168;26/09/24;00:06:08;1.01;0.004;0.138;0.006108652334660292;-0.010995574295520782;0.0024434609804302454
01:00:0A:00:00:00:00;1727309169;26/09/24;00:06:09;1.01;-0.002;0.141;0.00855211354792118;-0.0012217304902151227;0.012217304669320583
01:00:0A:00:00:00:00;1727309170;26/09/24;00:06:10;1.009;0.0;0.147;0.004886921960860491;-0.00855211354792118;0.0012217304902151227
01:00:0A:00:00:00:00;1727309171;26/09/24;00:06:11;1.009;-0.001;0.147;0.006108652334660292;-0.018325956538319588;-0.0024434609804302454
01:00:0A:00:00:00:00;1727309172;26/09/24;00:06:12;1.011;0.01;0.143;0.0073303827084600925;-0.024434609338641167;-0.00855211354792118
01:00:0A:00:00:00:00;1727309173;26/09/24;00:06:13;1.011;0.011;0.129;0.010995574295520782;-0.014660765416920185;0.0073303827084600925
01:00:0A:00:00:00:00;1727309174;26/09/24;00:06:14;1.011;0.011;0.136;-0.0012217304902151227;0.0;0.0073303827084600925
01:00:0A:00:00:00:00;1727309175;26/09/24;00:06:15;1.01;0.0;0.136;0.00855211354792118;-0.009773843921720982;0.009773843921720982
01:00:0A:00:00:00:00;1727309176;26/09/24;00:06:16;1.011;0.001;0.143;0.0036651913542300463;-0.009773843921720982;0.0
01:00:0A:00:00:00:00;1727309177;26/09/24;00:06:17;1.011;0.001;0.135;0.00855211354792118;-0.021991148591041565;0.0012217304902151227
01:00:0A:00:00:00:00;1727309178;26/09/24;00:06:18;1.011;0.004;0.135;0.004886921960860491;-0.006108652334660292;0.0036651913542300463
01:00:0A:00:00:00:00;1727309179;26/09/24;00:06:19;1.01;0.0;0.135;0.0073303827084600925;-0.00855211354792118;0.010995574295520782
01:00:0A:00:00:00:00;1727309180;26/09/24;00:06:20;1.011;0.001;0.138;0.0036651913542300463;-0.010995574295520782;-0.0012217304902151227
01:00:0A:00:00:00:00;1727309181;26/09/24;00:06:21;1.011;0.0;0.135;0.00855211354792118;-0.021991148591041565;0.0036651913542300463
01:00:0A:00:00:00:00;1727309182;26/09/24;00:06:22;1.012;0.004;0.13;0.006108652334660292;-0.018325956538319588;0.0
01:00:0A:00:00:00:00;1727309183;26/09/24;00:06:23;1.011;0.0;0.131;0.006108652334660292;-0.0024434609804302454;0.014660765416920185
01:00:0A:00:00:00:00;1727309184;26/09/24;00:06:24;1.01;0.0;0.14;0.006108652334660292;0.0;-0.0036651913542300463
01:00:0A:00:00:00:00;1727309185;26/09/24;00:06:25;1.01;0.001;0.139;0.0036651913542300463;-0.013439035043120384;0.0024434609804302454
01:00:0A:00:00:00:00;1727309186;26/09/24;00:06:26;1.011;0.005;0.137;0.0036651913542300463;-0.012217304669320583;-0.0024434609804302454
01:00:0A:00:00:00:00;1727309187;26/09/24;00:06:27;1.011;0.0;0.13;0.0073303827084600925;-0.013439035043120384;0.009773843921720982
01:00:0A:00:00:00:00;1727309188;26/09/24;00:06:28;1.011;-0.004;0.134;0.006108652334660292;-0.0024434609804302454;0.004886921960860491
01:00:0A:00:00:00:00;1727309189;26/09/24;00:06:29;1.01;0.0;0.138;0.006108652334660292;-0.015882495790719986;-0.0012217304902151227
01:00:0A:00:00:00:00;1727309190;26/09/24;00:06:30;1.011;0.006;0.137;0.004886921960860491;-0.015882495790719986;-0.0012217304902151227
01:00:0A:00:00:00:00;1727309191;26/09/24;00:06:31;1.011;0.005;0.131;0.006108652334660292;-0.01710422709584236;0.004886921960860491
01:00:0A:00:00:00:00;1727309192;26/09/24;00:06:32;1.011;0.0;0.13;0.006108652334660292;-0.0073303827084600925;0.009773843921720982
01:00:0A:00:00:00:00;1727309193;26/09/24;00:06:33;1.01;-0.006;0.136;0.0073303827084600925;-0.0024434609804302454;0.004886921960860491
01:00:0A:00:00:00:00;1727309194;26/09/24;00:06:34;1.01;0.001;0.139;0.0036651913542300463;-0.013439035043120384;-0.006108652334660292
01:00:0A:00:00:00:00;1727309195;26/09/24;00:06:35;1.01;0.011;0.133;0.0073303827084600925;-0.01710422709584236;-0.004886921960860491
01:00:0A:00:00:00:00;1727309196;26/09/24;00:06:36;1.012;0.013;0.129;0.006108652334660292;-0.013439035043120384;0.004886921960860491
01:00:0A:00:00:00:00;1727309197;26/09/24;00:06:37;1.012;0.004;0.128;0.006108652334660292;-0.0073303827084600925;0.013439035043120384
01:00:0A:00:00:00:00;1727309198;26/09/24;00:06:38;1.011;-0.006;0.137;0.00855211354792118;-0.006108652334660292;0.010995574295520782
01:00:0A:00:00:00:00;1727309199;26/09/24;00:06:39;1.01;0.0;0.134;0.006108652334660292;-0.021991148591041565;-0.0073303827084600925
01:00:0A:00:00:00:00;1727309200;26/09/24;00:06:40;1.01;0.012;0.131;0.006108652334660292;-0.01710422709584236;-0.004886921960860491
01:00:0A:00:00:00:00;1727309201;26/09/24;00:06:41;1.011;0.011;0.127;0.0073303827084600925;-0.010995574295520782;0.0036651913542300463
01:00:0A:00:00:00:00;1727309202;26/09/24;00:06:42;1.012;0.006;0.131;0.006108652334660292;-0.0036651913542300463;0.013439035043120384
01:00:0A:00:00:00:00;1727309203;26/09/24;00:06:43;1.009;-0.003;0.138;0.00855211354792118;-0.006108652334660292;0.012217304669320583
01:00:0A:00:00:00:00;1727309204;26/09/24;00:06:44;1.012;0.002;0.137;0.0036651913542300463;-0.01710422709584236;-0.0073303827084600925
01:00:0A:00:00:00:00;1727309205;26/09/24;00:06:45;1.011;0.005;0.13;0.0073303827084600925;-0.013439035043120384;-0.0012217304902151227
01:00:0A:00:00:00:00;1727309206;26/09/24;00:06:46;1.011;0.006;0.13;0.006108652334660292;-0.009773843921720982;0.0036651913542300463
01:00:0A:00:00:00:00;1727309207;26/09/24;00:06:47;1.011;-0.002;0.134;0.009773843921720982;-0.006108652334660292;0.012217304669320583
01:00:0A:00:00:00:00;1727309208;26/09/24;00:06:48;1.011;0.0;0.14;0.006108652334660292;-0.009773843921720982;0.0036651913542300463
01:00:0A:00:00:00:00;1727309209;26/09/24;00:06:49;1.011;0.001;0.133;0.004886921960860491;-0.02076941914856434;-0.0024434609804302454
01:00:0A:00:00:00:00;1727309210;26/09/24;00:06:50;1.011;0.005;0.132;0.0036651913542300463;-0.00855211354792118;0.0
01:00:0A:00:00:00:00;1727309211;26/09/24;00:06:51;1.012;0.0;0.129;0.00855211354792118;-0.010995574295520782;0.009773843921720982
01:00:0A:00:00:00:00;1727309212;26/09/24;00:06:52;1.01;-0.001;0.136;0.0073303827084600925;-0.0024434609804302454;0.006108652334660292
01:00:0A:00:00:00:00;1727309213;26/09/24;00:06:53;1.011;0.0;0.135;0.006108652334660292;-0.014660765416920185;0.0024434609804302454
01:00:0A:00:00:00:00;1727309214;26/09/24;00:06:54;1.012;0.005;0.132;0.0036651913542300463;-0.013439035043120384;-0.0036651913542300463
01:00:0A:00:00:00:00;1727309215;26/09/24;00:06:55;1.013;0.001;0.129;0.006108652334660292;-0.0073303827084600925;0.010995574295520782
01:00:0A:00:00:00:00;1727309216;26/09/24;00:06:56;1.011;-0.002;0.135;0.006108652334660292;-0.0073303827084600925;0.0012217304902151227
01:00:0A:00:00:00:00;1727309217;26/09/24;00:06:57;1.011;-0.003;0.14;0.0073303827084600925;-0.009773843921720982;0.004886921960860491
01:00:0A:00:00:00:00;1727309218;26/09/24;00:06:58;1.01;0.007;0.138;0.0012217304902151227;-0.01710422709584236;-0.0073303827084600925
01:00:0A:00:00:00:00;1727309219;26/09/24;00:06:59;1.01;0.009;0.132;0.00855211354792118;-0.015882495790719986;0.0024434609804302454
01:00:0A:00:00:00:00;1727309220;26/09/24;00:07:00;1.012;0.006;0.132;0.006108652334660292;-0.006108652334660292;0.0073303827084600925
01:00:0A:00:00:00:00;1727309221;26/09/24;00:07:01;1.01;-0.002;0.137;0.00855211354792118;-0.010995574295520782;0.010995574295520782
01:00:0A:00:00:00:00;1727309222;26/09/24;00:07:02;1.011;0.0;0.138;0.006108652334660292;-0.00855211354792118;-0.0012217304902151227
01:00:0A:00:00:00:00;1727309223;26/09/24;00:07:03;1.012;0.006;0.132;0.006108652334660292;-0.021991148591041565;-0.004886921960860491
01:00:0A:00:00:00:00;1727309224;26/09/24;00:07:04;1.011;0.009;0.127;0.004886921960860491;-0.009773843921720982;0.0
01:00:0A:00:00:00:00;1727309225;26/09/24;00:07:05;1.011;0.006;0.13;0.006108652334660292;-0.0073303827084600925;0.00855211354792118
01:00:0A:00:00:00:00;1727309226;26/09/24;00:07:06;1.01;0.0;0.136;0.0073303827084600925;-0.0073303827084600925;0.00855211354792118
01:00:0A:00:00:00:00;1727309227;26/09/24;00:07:07;1.01;0.0;0.136;0.004886921960860491;-0.013439035043120384;0.0036651913542300463
01:00:0A:00:00:00:00;1727309228;26/09/24;00:07:08;1.011;0.003;0.133;0.004886921960860491;-0.02076941914856434;-0.004886921960860491
01:00:0A:00:00:00:00;1727309229;26/09/24;00:07:09;1.012;0.004;0.127;0.006108652334660292;-0.010995574295520782;0.0024434609804302454
01:00:0A:00:00:00:00;1727309230;26/09/24;00:07:10;1.01;0.002;0.132;0.006108652334660292;-0.00855211354792118;0.004886921960860491
01:00:0A:00:00:00:00;1727309231;26/09/24;00:07:11;1.01;0.0;0.134;0.00855211354792118;-0.0073303827084600925;0.0073303827084600925
01:00:0A:00:00:00:00;1727309232;26/09/24;00:07:12;1.012;0.002;0.135;0.0012217304902151227;-0.010995574295520782;0.0012217304902151227
01:00:0A:00:00:00:00;1727309233;26/09/24;00:07:13;1.011;0.002;0.13;0.0073303827084600925;-0.013439035043120384;0.0
01:00:0A:00:00:00:00;1727309234;26/09/24;00:07:14;1.011;0.002;0.13;0.006108652334660292;-0.006108652334660292;0.0073303827084600925
01:00:0A:00:00:00:00;1727309235;26/09/24;00:07:15;1.011;-0.001;0.136;0.006108652334660292;-0.012217304669320583;0.0024434609804302454
01:00:0A:00:00:00:00;1727309236;26/09/24;00:07:16;1.011;0.002;0.137;0.006108652334660292;-0.012217304669320583;0.0024434609804302454
01:00:0A:00:00:00:00;1727309237;26/09/24;00:07:17;1.011;0.004;0.13;0.006108652334660292;-0.01710422709584236;0.0
01:00:0A:00:00:00:00;1727309238;26/09/24;00:07:18;1.011;0.006;0.129;0.006108652334660292;-0.010995574295520782;0.0036651913542300463
01:00:0A:00:00:00:00;1727309239;26/09/24;00:07:19;1.011;0.0;0.13;0.0073303827084600925;-0.004886921960860491;0.00855211354792118
01:00:0A:00:00:00:00;1727309240;26/09/24;00:07:20;1.011;-0.001;0.139;0.006108652334660292;-0.0073303827084600925;0.0012217304902151227
01:00:0A:00:00:00:00;1727309241;26/09/24;00:07:21;1.01;0.001;0.136;0.006108652334660292;-0.013439035043120384;0.0
01:00:0A:00:00:00:00;1727309242;26/09/24;00:07:22;1.012;0.006;0.134;0.004886921960860491;-0.014660765416920185;-0.0012217304902151227
01:00:0A:00:00:00:00;1727309243;26/09/24;00:07:23;1.012;0.003;0.129;0.006108652334660292;-0.010995574295520782;0.00855211354792118
01:00:0A:00:00:00:00;1727309244;26/09/24;00:07:24;1.012;0.0;0.134;0.006108652334660292;-0.0073303827084600925;0.006108652334660292
01:00:0A:00:00:00:00;1727309245;26/09/24;00:07:25;1.011;-0.004;0.135;0.006108652334660292;-0.014660765416920185;0.0012217304902151227
01:00:0A:00:00:00:00;1727309246;26/09/24;00:07:26;1.011;0.007;0.131;0.004886921960860491;-0.014660765416920185;-0.006108652334660292
01:00:0A:00:00:00:00;1727309247;26/09/24;00:07:27;1.011;0.008;0.127;0.0073303827084600925;-0.015882495790719986;0.0036651913542300463
01:00:0A:00:00:00:00;1727309248;26/09/24;00:07:28;1.012;0.009;0.129;0.004886921960860491;-0.004886921960860491;0.0073303827084600925
01:00:0A:00:00:00:00;1727309249;26/09/24;00:07:29;1.011;0.0;0.134;0.00855211354792118;-0.0073303827084600925;0.012217304669320583
01:00:0A:00:00:00:00;1727309250;26/09/24;00:07:30;1.01;0.0;0.138;0.006108652334660292;-0.009773843921720982;-0.0012217304902151227
01:00:0A:00:00:00:00;1727309251;26/09/24;00:07:31;1.011;0.002;0.131;0.006108652334660292;-0.01710422709584236;0.0
01:00:0A:00:00:00:00;1727309252;26/09/24;00:07:32;1.012;0.005;0.129;0.006108652334660292;-0.012217304669320583;0.0012217304902151227
01:00:0A:00:00:00:00;1727309253;26/09/24;00:07:33;1.011;0.002;0.127;0.004886921960860491;-0.009773843921720982;0.00855211354792118
01:00:0A:00:00:00:00;1727309254;26/09/24;00:07:34;1.011;-0.001;0.135;0.006108652334660292;-0.006108652334660292;0.0036651913542300463
01:00:0A:00:00:00:00;1727309255;26/09/24;00:07:35;1.011;0.0;0.133;0.006108652334660292;-0.014660765416920185;0.0024434609804302454
01:00:0A:00:00:00:00;1727309256;26/09/24;00:07:36;1.012;0.001;0.13;0.004886921960860491;-0.012217304669320583;0.0012217304902151227
01:00:0A:00:00:00:00;1727309257;26/09/24;00:07:37;1.01;0.0;0.13;0.0073303827084600925;-0.010995574295520782;0.00855211354792118
01:00:0A:00:00:00:00;1727309258;26/09/24;00:07:38;1.011;0.0;0.133;0.006108652334660292;-0.0073303827084600925;0.0
01:00:0A:00:00:00:00;1727309259;26/09/24;00:07:39;1.011;-0.001;0.136;0.006108652334660292;-0.012217304669320583;0.0012217304902151227
01:00:0A:00:00:00:00;1727309260;26/09/24;00:07:40;1.011;0.002;0.131;0.006108652334660292;-0.014660765416920185;0.0
01:00:0A:00:00:00:00;1727309261;26/09/24;00:07:41;1.012;0.002;0.128;0.006108652334660292;-0.012217304669320583;0.0073303827084600925
01:00:0A:00:00:00:00;1727309262;26/09/24;00:07:42;1.012;0.0;0.13;0.006108652334660292;-0.00855211354792118;0.006108652334660292
01:00:0A:00:00:00:00;1727309263;26/09/24;00:07:43;1.011;-0.001;0.132;0.006108652334660292;-0.010995574295520782;-0.0012217304902151227
01:00:0A:00:00:00:00;1727309264;26/09/24;00:07:44;1.01;0.003;0.134;0.006108652334660292;-0.013439035043120384;-0.0024434609804302454
01:00:0A:00:00:00:00;1727309265;26/09/24;00:07:45;1.013;0.006;0.127;0.00855211354792118;-0.01710422709584236;0.0012217304902151227
01:00:0A:00:00:00:00;1727309266;26/09/24;00:07:46;1.012;0.004;0.128;0.006108652334660292;-0.009773843921720982;0.009773843921720982
01:00:0A:00:00:00:00;1727309267;26/09/24;00:07:47;1.012;-0.002;0.129;0.0073303827084600925;-0.00855211354792118;0.00855211354792118
01:00:0A:00:00:00:00;1727309268;26/09/24;00:07:48;1.011;-0.001;0.132;0.006108652334660292;-0.009773843921720982;-0.0036651913542300463
01:00:0A:00:00:00:00;1727309269;26/09/24;00:07:49;1.011;0.001;0.13;0.0073303827084600925;-0.014660765416920185;-0.0012217304902151227
01:00:0A:00:00:00:00;1727309270;26/09/24;00:07:50;1.012;0.006;0.124;0.0073303827084600925;-0.014660765416920185;0.006108652334660292
01:00:0A:00:00:00:00;1727309271;26/09/24;00:07:51;1.013;0.0;0.125;0.0073303827084600925;-0.00855211354792118;0.012217304669320583
01:00:0A:00:00:00:00;1727309272;26/09/24;00:07:52;1.011;-0.002;0.128;0.006108652334660292;-0.00855211354792118;-0.0012217304902151227
01:00:0A:00:00:00:00;1727309273;26/09/24;00:07:53;1.012;0.0;0.13;0.006108652334660292;-0.010995574295520782;-0.0012217304902151227
01:00:0A:00:00:00:00;1727309274;26/09/24;00:07:54;1.012;0.002;0.129;0.006108652334660292;-0.013439035043120384;0.0024434609804302454
01:00:0A:00:00:00:00;1727309275;26/09/24;00:07:55;1.013;0.0;0.126;0.0073303827084600925;-0.010995574295520782;0.009773843921720982
01:00:0A:00:00:00:00;1727309276;26/09/24;00:07:56;1.011;-0.002;0.131;0.006108652334660292;-0.004886921960860491;0.0036651913542300463
01:00:0A:00:00:00:00;1727309277;26/09/24;00:07:57;1.012;0.0;0.133;0.006108652334660292;-0.010995574295520782;-0.0036651913542300463
01:00:0A:00:00:00:00;1727309278;26/09/24;00:07:58;1.011;0.004;0.134;0.006108652334660292;-0.010995574295520782;0.0
01:00:0A:00:00:00:00;1727309279;26/09/24;00:07:59;1.011;0.001;0.129;0.0073303827084600925;-0.014660765416920185;0.0073303827084600925
01:00:0A:00:00:00:00;1727309280;26/09/24;00:08:00;1.012;-0.001;0.128;0.0073303827084600925;-0.009773843921720982;0.009773843921720982
01:00:0A:00:00:00:00;1727309281;26/09/24;00:08:01;1.011;-0.004;0.13;0.006108652334660292;-0.009773843921720982;-0.0012217304902151227
01:00:0A:00:00:00:00;1727309282;26/09/24;00:08:02;1.011;0.004;0.132;0.0036651913542300463;-0.010995574295520782;-0.006108652334660292
01:00:0A:00:00:00:00;1727309283;26/09/24;00:08:03;1.01;0.005;0.131;0.0073303827084600925;-0.013439035043120384;0.004886921960860491
01:00:0A:00:00:00:00;1727309284;26/09/24;00:08:04;1.011;0.004;0.13;0.006108652334660292;-0.010995574295520782;0.0073303827084600925
01:00:0A:00:00:00:00;1727309285;26/09/24;00:08:05;1.011;-0.002;0.129;0.0073303827084600925;-0.009773843921720982;0.012217304669320583
01:00:0A:00:00:00:00;1727309286;26/09/24;00:08:06;1.012;-0.001;0.134;0.004886921960860491;-0.00855211354792118;-0.0073303827084600925
01:00:0A:00:00:00:00;1727309287;26/09/24;00:08:07;1.011;0.004;0.132;0.0073303827084600925;-0.014660765416920185;-0.0012217304902151227
01:00:0A:00:00:00:00;1727309288;26/09/24;00:08:08;1.011;0.008;0.13;0.0073303827084600925;-0.013439035043120384;0.0012217304902151227
01:00:0A:00:00:00:00;1727309289;26/09/24;00:08:09;1.011;0.003;0.125;0.006108652334660292;-0.013439035043120384;0.010995574295520782
01:00:0A:00:00:00:00;1727309290;26/09/24;00:08:10;1.011;0.0;0.13;0.006108652334660292;-0.004886921960860491;0.00855211354792118
01:00:0A:00:00:00:00;1727309291;26/09/24;00:08:11;1.01;-0.001;0.132;0.006108652334660292;-0.010995574295520782;-0.0036651913542300463
01:00:0A:00:00:00:00;1727309292;26/09/24;00:08:12;1.011;0.005;0.131;0.006108652334660292;-0.014660765416920185;-0.004886921960860491
01:00:0A:00:00:00:00;1727309293;26/09/24;00:08:13;1.011;0.008;0.129;0.0073303827084600925;-0.014660765416920185;0.004886921960860491
01:00:0A:00:00:00:00;1727309294;26/09/24;00:08:14;1.012;0.006;0.127;0.006108652334660292;-0.009773843921720982;0.00855211354792118
01:00:0A:00:00:00:00;1727309295;26/09/24;00:08:15;1.011;-0.002;0.131;0.0073303827084600925;-0.0073303827084600925;0.010995574295520782
01:00:0A:00:00:00:00;1727309296;26/09/24;00:08:16;1.011;0.0;0.134;0.006108652334660292;-0.010995574295520782;-0.004886921960860491
01:00:0A:00:00:00:00;1727309297;26/09/24;00:08:17;1.011;0.005;0.128;0.0073303827084600925;-0.015882495790719986;-0.0024434609804302454
01:00:0A:00:00:00:00;1727309298;26/09/24;00:08:18;1.011;0.008;0.127;0.006108652334660292;-0.012217304669320583;0.004886921960860491
01:00:0A:00:00:00:00;1727309299;26/09/24;00:08:19;1.011;0.004;0.126;0.004886921960860491;-0.009773843921720982;0.009773843921720982
01:00:0A:00:00:00:00;1727309300;26/09/24;00:08:20;1.01;-0.003;0.133;0.006108652334660292;-0.006108652334660292;0.0073303827084600925
01:00:0A:00:00:00:00;1727309301;26/09/24;00:08:21;1.011;0.0;0.132;0.006108652334660292;-0.014660765416920185;-0.0036651913542300463
01:00:0A:00:00:00:00;1727309302;26/09/24;00:08:22;1.011;0.006;0.129;0.0073303827084600925;-0.015882495790719986;-0.0012217304902151227
01:00:0A:00:00:00:00;1727309303;26/09/24;00:08:23;1.012;0.007;0.127;0.006108652334660292;-0.012217304669320583;0.006108652334660292
01:00:0A:00:00:00:00;1727309304;26/09/24;00:08:24;1.011;0.002;0.128;0.004886921960860491;-0.00855211354792118;0.009773843921720982
01:00:0A:00:00:00:00;1727309305;26/09/24;00:08:25;1.011;-0.003;0.131;0.006108652334660292;-0.0073303827084600925;0.0036651913542300463
01:00:0A:00:00:00:00;1727309306;26/09/24;00:08:26;1.011;0.001;0.13;0.004886921960860491;-0.014660765416920185;-0.0036651913542300463
01:00:0A:00:00:00:00;1727309307;26/09/24;00:08:27;1.013;0.004;0.128;0.0073303827084600925;-0.013439035043120384;0.0012217304902151227
01:00:0A:00:00:00:00;1727309308;26/09/24;00:08:28;1.012;0.004;0.126;0.006108652334660292;-0.00855211354792118;0.006108652334660292
01:00:0A:00:00:00:00;1727309309;26/09/24;00:08:29;1.013;-0.001;0.129;0.00855211354792118;-0.00855211354792118;0.00855211354792118
01:00:0A:00:00:00:00;1727309310;26/09/24;00:08:30;1.01;0.0;0.132;0.006108652334660292;-0.010995574295520782;0.0
01:00:0A:00:00:00:00;1727309311;26/09/24;00:08:31;1.012;0.001;0.128;0.006108652334660292;-0.01710422709584236;-0.0012217304902151227
01:00:0A:00:00:00:00;1727309312;26/09/24;00:08:32;1.012;0.004;0.126;0.006108652334660292;-0.010995574295520782;0.0036651913542300463
01:00:0A:00:00:00:00;1727309313;26/09/24;00:08:33;1.011;0.0;0.127;0.006108652334660292;-0.009773843921720982;0.00855211354792118
01:00:0A:00:00:00:00;1727309314;26/09/24;00:08:34;1.011;-0.001;0.13;0.006108652334660292;-0.006108652334660292;0.0036651913542300463
01:00:0A:00:00:00:00;1727309315;26/09/24;00:08:35;1.012;0.0;0.131;0.006108652334660292;-0.012217304669320583;0.0
01:00:0A:00:00:00:00;1727309316;26/09/24;00:08:36;1.012;0.004;0.129;0.006108652334660292;-0.014660765416920185;-0.0012217304902151227
01:00:0A:00:00:00:00;1727309317;26/09/24;00:08:37;1.012;0.001;0.126;0.006108652334660292;-0.010995574295520782;0.0073303827084600925
01:00:0A:00:00:00:00;1727309318;26/09/24;00:08:38;1.011;0.0;0.129;0.006108652334660292;-0.00855211354792118;0.006108652334660292
01:00:0A:00:00:00:00;1727309319;26/09/24;00:08:39;1.011;-0.002;0.13;0.006108652334660292;-0.010995574295520782;0.0024434609804302454
01:00:0A:00:00:00:00;1727309320;26/09/24;00:08:40;1.012;0.003;0.129;0.004886921960860491;-0.014660765416920185;-0.0036651913542300463
01:00:0A:00:00:00:00;1727309321;26/09/24;00:08:41;1.012;0.005;0.125;0.0073303827084600925;-0.015882495790719986;0.0036651913542300463
01:00:0A:00:00:00:00;1727309322;26/09/24;00:08:42;1.012;0.003;0.125;0.004886921960860491;-0.006108652334660292;0.0073303827084600925
01:00:0A:00:00:00:00;1727309323;26/09/24;00:08:43;1.012;-0.002;0.129;0.0073303827084600925;-0.009773843921720982;0.00855211354792118
01:00:0A:00:00:00:00;1727309324;26/09/24;00:08:44;1.011;-0.001;0.131;0.006108652334660292;-0.009773843921720982;-0.0024434609804302454
01:00:0A:00:00:00:00;1727309325;26/09/24;00:08:45;1.01;0.002;0.127;0.0073303827084600925;-0.015882495790719986;0.0
01:00:0A:00:00:00:00;1727309326;26/09/24;00:08:46;1.012;0.004;0.125;0.006108652334660292;-0.010995574295520782;0.0036651913542300463
01:00:0A:00:00:00:00;1727309327;26/09/24;00:08:47;1.012;0.0;0.126;0.0073303827084600925;-0.00855211354792118;0.009773843921720982
01:00:0A:00:00:00:00;1727309328;26/09/24;00:08:48;1.01;-0.001;0.129;0.006108652334660292;-0.009773843921720982;-0.0012217304902151227
01:00:0A:00:00:00:00;1727309329;26/09/24;00:08:49;1.012;0.001;0.129;0.006108652334660292;-0.012217304669320583;0.0012217304902151227
01:00:0A:00:00:00:00;1727309330;26/09/24;00:08:50;1.013;0.002;0.128;0.006108652334660292;-0.014660765416920185;0.0024434609804302454
01:00:0A:00:00:00:00;1727309331;26/09/24;00:08:51;1.013;0.0;0.126;0.0073303827084600925;-0.009773843921720982;0.009773843921720982
01:00:0A:00:00:00:00;1727309332;26/09/24;00:08:52;1.012;-0.002;0.129;0.006108652334660292;-0.0073303827084600925;0.0012217304902151227
01:00:0A:00:00:00:00;1727309333;26/09/24;00:08:53;1.011;0.0;0.131;0.006108652334660292;-0.010995574295520782;0.0
01:00:0A:00:00:00:00;1727309334;26/09/24;00:08:54;1.011;0.002;0.13;0.004886921960860491;-0.012217304669320583;0.0024434609804302454
01:00:0A:00:00:00:00;1727309335;26/09/24;00:08:55;1.011;0.0;0.127;0.006108652334660292;-0.013439035043120384;0.006108652334660292
01:00:0A:00:00:00:00;1727309336;26/09/24;00:08:56;1.013;-0.002;0.128;0.006108652334660292;-0.00855211354792118;0.004886921960860491
01:00:0A:00:00:00:00;1727309337;26/09/24;00:08:57;1.011;-0.001;0.129;0.006108652334660292;-0.009773843921720982;-0.0012217304902151227
01:00:0A:00:00:00:00;1727309338;26/09/24;00:08:58;1.01;0.001;0.13;0.006108652334660292;-0.012217304669320583;0.0024434609804302454
01:00:0A:00:00:00:00;1727309339;26/09/24;00:08:59;1.012;0.0;0.128;0.006108652334660292;-0.013439035043120384;0.004886921960860491
01:00:0A:00:00:00:00;1727309340;26/09/24;00:09:00;1.012;-0.002;0.127;0.006108652334660292;-0.012217304669320583;0.006108652334660292
01:00:0A:00:00:00:00;1727309341;26/09/24;00:09:01;1.011;-0.002;0.127;0.006108652334660292;-0.00855211354792118;0.0
01:00:0A:00:00:00:00;1727309342;26/09/24;00:09:02;1.01;0.0;0.13;0.006108652334660292;-0.009773843921720982;0.0012217304902151227
01:00:0A:00:00:00:00;1727309343;26/09/24;00:09:03;1.011;0.0;0.129;0.006108652334660292;-0.012217304669320583;0.0036651913542300463
01:00:0A:00:00:00:00;1727309344;26/09/24;00:09:04;1.012;0.0;0.129;0.006108652334660292;-0.012217304669320583;0.004886921960860491
01:00:0A:00:00:00:00;1727309345;26/09/24;00:09:05;1.012;-0.001;0.126;0.006108652334660292;-0.010995574295520782;0.0012217304902151227
01:00:0A:00:00:00:00;1727309346;26/09/24;00:09:06;1.011;0.0;0.129;0.006108652334660292;-0.0073303827084600925;0.0012217304902151227
01:00:0A:00:00:00:00;1727309347;26/09/24;00:09:07;1.011;0.0;0.13;0.006108652334660292;-0.010995574295520782;0.0036651913542300463
01:00:0A:00:00:00:00;1727309348;26/09/24;00:09:08;1.011;0.0;0.13;0.006108652334660292;-0.013439035043120384;0.0024434609804302454
01:00:0A:00:00:00:00;1727309349;26/09/24;00:09:09;1.012;-0.002;0.129;0.006108652334660292;-0.013439035043120384;0.004886921960860491
01:00:0A:00:00:00:00;1727309350;26/09/24;00:09:10;1.012;-0.001;0.128;0.006108652334660292;-0.009773843921720982;0.0024434609804302454
01:00:0A:00:00:00:00;1727309351;26/09/24;00:09:11;1.011;-0.001;0.13;0.006108652334660292;-0.009773843921720982;0.0024434609804302454
01:00:0A:00:00:00:00;1727309352;26/09/24;00:09:12;1.012;0.001;0.131;0.004886921960860491;-0.012217304669320583;0.0
01:00:0A:00:00:00:00;1727309353;26/09/24;00:09:13;1.011;0.002;0.129;0.006108652334660292;-0.013439035043120384;0.004886921960860491
01:00:0A:00:00:00:00;1727309354;26/09/24;00:09:14;1.013;0.0;0.127;0.006108652334660292;-0.009773843921720982;0.004886921960860491
01:00:0A:00:00:00:00;1727309355;26/09/24;00:09:15;1.011;-0.004;0.128;0.006108652334660292;-0.010995574295520782;0.0024434609804302454
01:00:0A:00:00:00:00;1727309356;26/09/24;00:09:16;1.011;0.0;0.132;0.004886921960860491;-0.009773843921720982;-0.0012217304902151227
01:00:0A:00:00:00:00;1727309357;26/09/24;00:09:17;1.012;0.001;0.13;0.006108652334660292;-0.013439035043120384;0.0036651913542300463
01:00:0A:00:00:00:00;1727309358;26/09/24;00:09:18;1.012;0.001;0.127;0.006108652334660292;-0.012217304669320583;0.004886921960860491
01:00:0A:00:00:00:00;1727309359;26/09/24;00:09:19;1.012;-0.002;0.129;0.006108652334660292;-0.010995574295520782;0.006108652334660292
01:00:0A:00:00:00:00;1727309360;26/09/24;00:09:20;1.011;0.0;0.129;0.006108652334660292;-0.00855211354792118;-0.0012217304902151227
01:00:0A:00:00:00:00;1727309361;26/09/24;00:09:21;1.011;0.0;0.13;0.006108652334660292;-0.010995574295520782;0.0024434609804302454
01:00:0A:00:00:00:00;1727309362;26/09/24;00:09:22;1.012;0.0;0.129;0.006108652334660292;-0.012217304669320583;0.0024434609804302454
01:00:0A:00:00:00:00;1727309363;26/09/24;00:09:23;1.011;0.0;0.127;0.0073303827084600925;-0.012217304669320583;0.006108652334660292
01:00:0A:00:00:00:00;1727309364;26/09/24;00:09:24;1.012;-0.001;0.129;0.006108652334660292;-0.009773843921720982;0.0012217304902151227
01:00:0A:00:00:00:00;1727309365;26/09/24;00:09:25;1.011;0.0;0.13;0.006108652334660292;-0.009773843921720982;0.0024434609804302454
01:00:0A:00:00:00:00;1727309366;26/09/24;00:09:26;1.011;0.001;0.131;0.006108652334660292;-0.010995574295520782;0.0024434609804302454
01:00:0A:00:00:00:00;1727309367;26/09/24;00:09:27;1.011;0.0;0.13;0.006108652334660292;-0.013439035043120384;0.0036651913542300463
01:00:0A:00:00:00:00;1727309368;26/09/24;00:09:28;1.012;0.0;0.128;0.006108652334660292;-0.010995574295520782;0.004886921960860491
01:00:0A:00:00:00:00;1727309369;26/09/24;00:09:29;1.011;-0.001;0.129;0.006108652334660292;-0.009773843921720982;0.0024434609804302454
01:00:0A:00:00:00:00;1727309370;26/09/24;00:09:30;1.012;0.0;0.13;0.006108652334660292;-0.009773843921720982;0.0012217304902151227
01:00:0A:00:00:00:00;1727309371;26/09/24;00:09:31;1.011;0.0;0.13;0.006108652334660292;-0.012217304669320583;0.0024434609804302454
01:00:0A:00:00:00:00;1727309372;26/09/24;00:09:32;1.012;0.001;0.128;0.006108652334660292;-0.012217304669320583;0.004886921960860491
01:00:0A:00:00:00:00;1727309373;26/09/24;00:09:33;1.011;-0.001;0.127;0.006108652334660292;-0.009773843921720982;0.004886921960860491
01:00:0A:00:00:00:00;1727309374;26/09/24;00:09:34;1.011;0.0;0.13;0.006108652334660292;-0.009773843921720982;0.0
01:00:0A:00:00:00:00;1727309375;26/09/24;00:09:35;1.011;0.001;0.13;0.006108652334660292;-0.010995574295520782;0.0012217304902151227
01:00:0A:00:00:00:00;1727309376;26/09/24;00:09:36;1.011;0.002;0.13;0.006108652334660292;-0.012217304669320583;0.0024434609804302454
01:00:0A:00:00:00:00;1727309377;26/09/24;00:09:37;1.011;0.0;0.127;0.006108652334660292;-0.012217304669320583;0.006108652334660292
01:00:0A:00:00:00:00;1727309378;26/09/24;00:09:38;1.012;-0.001;0.129;0.006108652334660292;-0.00855211354792118;0.0036651913542300463
01:00:0A:00:00:00:00;1727309379;26/09/24;00:09:39;1.011;0.0;0.13;0.006108652334660292;-0.009773843921720982;0.0
01:00:0A:00:00:00:00;1727309380;26/09/24;00:09:40;1.011;0.002;0.132;0.006108652334660292;-0.010995574295520782;0.0012217304902151227
01:00:0A:00:00:00:00;1727309381;26/09/24;00:09:41;1.011;0.001;0.129;0.006108652334660292;-0.013439035043120384;0.004886921960860491
01:00:0A:00:00:00:00;1727309382;26/09/24;00:09:42;1.012;0.0;0.128;0.006108652334660292;-0.010995574295520782;0.006108652334660292
01:00:0A:00:00:00:00;1727309383;26/09/24;00:09:43;1.012;-0.002;0.129;0.006108652334660292;-0.009773843921720982;0.0
01:00:0A:00:00:00:00;1727309384;26/09/24;00:09:44;1.012;0.001;0.131;0.004886921960860491;-0.010995574295520782;0.0
01:00:0A:00:00:00:00;1727309385;26/09/24;00:09:45;1.01;0.002;0.129;0.006108652334660292;-0.012217304669320583;0.0036651913542300463
01:00:0A:00:00:00:00;1727309386;26/09/24;00:09:46;1.012;0.001;0.128;0.006108652334660292;-0.010995574295520782;0.006108652334660292
01:00:0A:00:00:00:00;1727309387;26/09/24;00:09:47;1.012;-0.003;0.128;0.006108652334660292;-0.010995574295520782;0.006108652334660292
01:00:0A:00:00:00:00;1727309388;26/09/24;00:09:48;1.013;0.0;0.129;0.006108652334660292;-0.009773843921720982;-0.0012217304902151227
01:00:0A:00:00:00:00;1727309389;26/09/24;00:09:49;1.012;0.0;0.131;0.006108652334660292;-0.012217304669320583;0.0024434609804302454
01:00:0A:00:00:00:00;1727309390;26/09/24;00:09:50;1.011;0.002;0.13;0.006108652334660292;-0.012217304669320583;0.0036651913542300463
01:00:0A:00:00:00:00;1727309391;26/09/24;00:09:51;1.012;0.0;0.127;0.0073303827084600925;-0.012217304669320583;0.0073303827084600925
01:00:0A:00:00:00:00;1727309392;26/09/24;00:09:52;1.013;-0.001;0.127;0.006108652334660292;-0.009773843921720982;0.0012217304902151227
01:00:0A:00:00:00:00;1727309393;26/09/24;00:09:53;1.011;0.0;0.13;0.006108652334660292;-0.009773843921720982;0.0012217304902151227
01:00:0A:00:00:00:00;1727309394;26/09/24;00:09:54;1.012;0.0;0.13;0.006108652334660292;-0.012217304669320583;0.0
01:00:0A:00:00:00:00;1727309395;26/09/24;00:09:55;1.011;0.0;0.128;0.006108652334660292;-0.013439035043120384;0.004886921960860491
01:00:0A:00:00:00:00;1727309396;26/09/24;00:09:56;1.011;0.0;0.127;0.006108652334660292;-0.010995574295520782;0.004886921960860491
01:00:0A:00:00:00:00;1727309397;26/09/24;00:09:57;1.012;-0.001;0.128;0.006108652334660292;-0.009773843921720982;0.0024434609804302454
01:00:0A:00:00:00:00;1727309398;26/09/24;00:09:58;1.012;0.0;0.13;0.006108652334660292;-0.009773843921720982;0.0
01:00:0A:00:00:00:00;1727309399;26/09/24;00:09:59;1.011;0.002;0.129;0.006108652334660292;-0.013439035043120384;0.0024434609804302454
01:00:0A:00:00:00:00;1727309400;26/09/24;00:10:00;1.011;0.0;0.127;0.006108652334660292;-0.010995574295520782;0.006108652334660292
01:00:0A:00:00:00:00;1727309401;26/09/24;00:10:01;1.011;-0.001;0.128;0.006108652334660292;-0.010995574295520782;0.006108652334660292
01:00:0A:00:00:00:00;1727309402;26/09/24;00:10:02;1.012;0.0;0.129;0.006108652334660292;-0.009773843921720982;0.0
01:00:0A:00:00:00:00;1727309403;26/09/24;00:10:03;1.012;0.001;0.13;0.006108652334660292;-0.012217304669320583;0.0012217304902151227
01:00:0A:00:00:00:00;1727309404;26/09/24;00:10:04;1.011;0.001;0.128;0.006108652334660292;-0.013439035043120384;0.0036651913542300463
01:00:0A:00:00:00:00;1727309405;26/09/24;00:10:05;1.012;0.0;0.126;0.0073303827084600925;-0.010995574295520782;0.006108652334660292
01:00:0A:00:00:00:00;1727309406;26/09/24;00:10:06;1.011;-0.001;0.127;0.006108652334660292;-0.009773843921720982;0.0024434609804302454
01:00:0A:00:00:00:00;1727309407;26/09/24;00:10:07;1.01;0.0;0.129;0.006108652334660292;-0.009773843921720982;0.0012217304902151227
01:00:0A:00:00:00:00;1727309408;26/09/24;00:10:08;1.012;0.001;0.129;0.006108652334660292;-0.012217304669320583;0.0012217304902151227
01:00:0A:00:00:00:00;1727309409;26/09/24;00:10:09;1.012;0.0;0.127;0.006108652334660292;-0.012217304669320583;0.004886921960860491
01:00:0A:00:00:00:00;1727309410;26/09/24;00:10:10;1.012;0.0;0.126;0.006108652334660292;-0.009773843921720982;0.006108652334660292
01:00:0A:00:00:00:00;1727309411;26/09/24;00:10:11;1.012;-0.002;0.128;0.006108652334660292;-0.010995574295520782;0.0012217304902151227
01:00:0A:00:00:00:00;1727309412;26/09/24;00:10:12;1.01;0.0;0.129;0.006108652334660292;-0.010995574295520782;0.0012217304902151227
01:00:0A:00:00:00:00;1727309413;26/09/24;00:10:13;1.013;0.0;0.128;0.006108652334660292;-0.013439035043120384;0.0024434609804302454
01:00:0A:00:00:00:00;1727309414;26/09/24;00:10:14;1.012;0.0;0.127;0.006108652334660292;-0.012217304669320583;0.004886921960860491
01:00:0A:00:00:00:00;1727309415;26/09/24;00:10:15;1.012;0.0;0.126;0.006108652334660292;-0.010995574295520782;0.004886921960860491
01:00:0A:00:00:00:00;1727309416;26/09/24;00:10:16;1.011;0.0;0.127;0.006108652334660292;-0.009773843921720982;0.0
01:00:0A:00:00:00:00;1727309417;26/09/24;00:10:17;1.011;0.0;0.128;0.006108652334660292;-0.010995574295520782;0.0024434609804302454
01:00:0A:00:00:00:00;1727309418;26/09/24;00:10:18;1.011;0.0;0.127;0.006108652334660292;-0.013439035043120384;0.0036651913542300463
01:00:0A:00:00:00:00;1727309419;26/09/24;00:10:19;1.012;0.0;0.125;0.0073303827084600925;-0.010995574295520782;0.0073303827084600925
01:00:0A:00:00:00:00;1727309420;26/09/24;00:10:20;1.012;-0.001;0.126;0.006108652334660292;-0.009773843921720982;0.0024434609804302454
01:00:0A:00:00:00:00;1727309421;26/09/24;00:10:21;1.012;0.0;0.127;0.006108652334660292;-0.010995574295520782;0.0012217304902151227
01:00:0A:00:00:00:00;1727309422;26/09/24;00:10:22;1.012;0.0;0.127;0.006108652334660292;-0.012217304669320583;0.0024434609804302454
01:00:0A:00:00:00:00;1727309423;26/09/24;00:10:23;1.011;0.0;0.125;0.0073303827084600925;-0.013439035043120384;0.004886921960860491
01:00:0A:00:00:00:00;1727309424;26/09/24;00:10:24;1.012;-0.001;0.125;0.006108652334660292;-0.009773843921720982;0.004886921960860491
01:00:0A:00:00:00:00;1727309425;26/09/24;00:10:25;1.012;-0.001;0.127;0.006108652334660292;-0.010995574295520782;0.0012217304902151227
01:00:0A:00:00:00:00;1727309426;26/09/24;00:10:26;1.012;0.0;0.128;0.006108652334660292;-0.009773843921720982;0.0012217304902151227
01:00:0A:00:00:00:00;1727309427;26/09/24;00:10:27;1.012;0.0;0.128;0.0073303827084600925;-0.012217304669320583;0.004886921960860491
01:00:0A:00:00:00:00;1727309428;26/09/24;00:10:28;1.011;0.0;0.127;0.006108652334660292;-0.010995574295520782;0.004886921960860491
01:00:0A:00:00:00:00;1727309429;26/09/24;00:10:29;1.012;-0.001;0.126;0.006108652334660292;-0.009773843921720982;0.0036651913542300463
01:00:0A:00:00:00:00;1727309430;26/09/24;00:10:30;1.011;0.0;0.127;0.006108652334660292;-0.009773843921720982;0.0
01:00:0A:00:00:00:00;1727309431;26/09/24;00:10:31;1.011;0.0;0.127;0.006108652334660292;-0.010995574295520782;0.0036651913542300463
01:00:0A:00:00:00:00;1727309432;26/09/24;00:10:32;1.012;0.0;0.127;0.006108652334660292;-0.012217304669320583;0.0036651913542300463
01:00:0A:00:00:00:00;1727309433;26/09/24;00:10:33;1.012;-0.001;0.126;0.006108652334660292;-0.012217304669320583;0.004886921960860491
01:00:0A:00:00:00:00;1727309434;26/09/24;00:10:34;1.011;0.0;0.128;0.006108652334660292;-0.009773843921720982;0.0012217304902151227
01:00:0A:00:00:00:00;1727309435;26/09/24;00:10:35;1.012;0.0;0.128;0.006108652334660292;-0.010995574295520782;0.0024434609804302454
01:00:0A:00:00:00:00;1727309436;26/09/24;00:10:36;1.011;0.0;0.128;0.006108652334660292;-0.012217304669320583;0.0036651913542300463
01:00:0A:00:00:00:00;1727309437;26/09/24;00:10:37;1.012;-0.001;0.126;0.006108652334660292;-0.013439035043120384;0.004886921960860491
01:00:0A:00:00:00:00;1727309438;26/09/24;00:10:38;1.011;-0.001;0.125;0.006108652334660292;-0.010995574295520782;0.0024434609804302454
01:00:0A:00:00:00:00;1727309439;26/09/24;00:10:39;1.012;-0.002;0.126;0.006108652334660292;-0.009773843921720982;0.0024434609804302454
01:00:0A:00:00:00:00;1727309440;26/09/24;00:10:40;1.011;0.0;0.127;0.006108652334660292;-0.010995574295520782;0.0024434609804302454
01:00:0A:00:00:00:00;1727309441;26/09/24;00:10:41;1.011;0.0;0.127;0.006108652334660292;-0.012217304669320583;0.0036651913542300463
01:00:0A:00:00:00:00;1727309442;26/09/24;00:10:42;1.011;-0.001;0.127;0.006108652334660292;-0.012217304669320583;0.0036651913542300463
01:00:0A:00:00:00:00;1727309443;26/09/24;00:10:43;1.011;-0.001;0.126;0.006108652334660292;-0.009773843921720982;0.0024434609804302454
01:00:0A:00:00:00:00;1727309444;26/09/24;00:10:44;1.011;0.0;0.128;0.006108652334660292;-0.009773843921720982;0.0024434609804302454
01:00:0A:00:00:00:00;1727309445;26/09/24;00:10:45;1.011;0.0;0.128;0.006108652334660292;-0.012217304669320583;0.0024434609804302454
01:00:0A:00:00:00:00;1727309446;26/09/24;00:10:46;1.012;-0.001;0.126;0.006108652334660292;-0.012217304669320583;0.0036651913542300463
01:00:0A:00:00:00:00;1727309447;26/09/24;00:10:47;1.012;-0.001;0.126;0.006108652334660292;-0.010995574295520782;0.0036651913542300463
01:00:0A:00:00:00:00;1727309448;26/09/24;00:10:48;1.012;0.0;0.126;0.006108652334660292;-0.009773843921720982;0.0024434609804302454
01:00:0A:00:00:00:00;1727309449;26/09/24;00:10:49;1.011;-0.001;0.127;0.006108652334660292;-0.010995574295520782;0.0024434609804302454
01:00:0A:00:00:00:00;1727309450;26/09/24;00:10:50;1.013;0.0;0.127;0.006108652334660292;-0.012217304669320583;0.0024434609804302454
01:00:0A:00:00:00:00;1727309451;26/09/24;00:10:51;1.011;0.0;0.126;0.006108652334660292;-0.012217304669320583;0.004886921960860491
01:00:0A:00:00:00:00;1727309452;26/09/24;00:10:52;1.011;-0.001;0.125;0.006108652334660292;-0.010995574295520782;0.0024434609804302454
01:00:0A:00:00:00:00;1727309453;26/09/24;00:10:53;1.011;-0.001;0.126;0.006108652334660292;-0.010995574295520782;0.0024434609804302454
01:00:0A:00:00:00:00;1727309454;26/09/24;00:10:54;1.012;0.0;0.129;0.006108652334660292;-0.010995574295520782;0.0024434609804302454
01:00:0A:00:00:00:00;1727309455;26/09/24;00:10:55;1.011;0.0;0.127;0.006108652334660292;-0.013439035043120384;0.0036651913542300463
01:00:0A:00:00:00:00;1727309456;26/09/24;00:10:56;1.012;0.0;0.125;0.006108652334660292;-0.010995574295520782;0.004886921960860491
01:00:0A:00:00:00:00;1727309457;26/09/24;00:10:57;1.013;-0.001;0.126;0.006108652334660292;-0.010995574295520782;0.0024434609804302454
01:00:0A:00:00:00:00;1727309458;26/09/24;00:10:58;1.012;0.0;0.127;0.006108652334660292;-0.009773843921720982;0.0024434609804302454
01:00:0A:00:00:00:00;1727309459;26/09/24;00:10:59;1.012;0.0;0.128;0.006108652334660292;-0.012217304669320583;0.0036651913542300463
01:00:0A:00:00:00:00;1727309460;26/09/24;00:11:00;1.012;0.0;0.126;0.006108652334660292;-0.012217304669320583;0.0036651913542300463
01:00:0A:00:00:00:00;1727309461;26/09/24;00:11:01;1.013;-0.001;0.126;0.006108652334660292;-0.010995574295520782;0.0036651913542300463
01:00:0A:00:00:00:00;1727309462;26/09/24;00:11:02;1.012;0.0;0.127;0.006108652334660292;-0.009773843921720982;0.0012217304902151227
01:00:0A:00:00:00:00;1727309463;26/09/24;00:11:03;1.012;0.0;0.128;0.006108652334660292;-0.010995574295520782;0.0036651913542300463
01:00:0A:00:00:00:00;1727309464;26/09/24;00:11:04;1.011;0.0;0.127;0.006108652334660292;-0.012217304669320583;0.0024434609804302454
01:00:0A:00:00:00:00;1727309465;26/09/24;00:11:05;1.012;0.0;0.125;0.006108652334660292;-0.012217304669320583;0.004886921960860491
01:00:0A:00:00:00:00;1727309466;26/09/24;00:11:06;1.012;0.0;0.125;0.006108652334660292;-0.009773843921720982;0.0024434609804302454
01:00:0A:00:00:00:00;1727309467;26/09/24;00:11:07;1.012;0.0;0.127;0.006108652334660292;-0.009773843921720982;0.0036651913542300463
01:00:0A:00:00:00:00;1727309468;26/09/24;00:11:08;1.011;0.0;0.127;0.006108652334660292;-0.010995574295520782;0.0024434609804302454
01:00:0A:00:00:00:00;1727309469;26/09/24;00:11:09;1.011;0.0;0.127;0.006108652334660292;-0.013439035043120384;0.0036651913542300463
01:00:0A:00:00:00:00;1727309470;26/09/24;00:11:10;1.012;0.0;0.126;0.006108652334660292;-0.010995574295520782;0.0036651913542300463
01:00:0A:00:00:00:00;1727309471;26/09/24;00:11:11;1.012;-0.001;0.126;0.006108652334660292;-0.009773843921720982;0.0024434609804302454
01:00:0A:00:00:00:00;1727309472;26/09/24;00:11:12;1.012;0.0;0.126;0.006108652334660292;-0.009773843921720982;0.0024434609804302454
01:00:0A:00:00:00:00;1727309473;26/09/24;00:11:13;1.012;0.0;0.127;0.006108652334660292;-0.012217304669320583;0.0024434609804302454
01:00:0A:00:00:00:00;1727309474;26/09/24;00:11:14;1.012;-0.001;0.125;0.006108652334660292;-0.012217304669320583;0.0036651913542300463
01:00:0A:00:00:00:00;1727309475;26/09/24;00:11:15;1.012;-0.001;0.125;0.006108652334660292;-0.010995574295520782;0.0036651913542300463
01:00:0A:00:00:00:00;1727309476;26/09/24;00:11:16;1.011;-0.001;0.126;0.006108652334660292;-0.010995574295520782;0.0024434609804302454
01:00:0A:00:00:00:00;1727309477;26/09/24;00:11:17;1.011;0.0;0.127;0.006108652334660292;-0.010995574295520782;0.0024434609804302454
01:00:0A:00:00:00:00;1727309478;26/09/24;00:11:18;1.012;0.0;0.127;0.006108652334660292;-0.012217304669320583;0.0036651913542300463
01:00:0A:00:00:00:00;1727309479;26/09/24;00:11:19;1.011;0.0;0.126;0.006108652334660292;-0.012217304669320583;0.0036651913542300463
01:00:0A:00:00:00:00;1727309480;26/09/24;00:11:20;1.011;-0.001;0.125;0.006108652334660292;-0.010995574295520782;0.0024434609804302454
01:00:0A:00:00:00:00;1727309481;26/09/24;00:11:21;1.012;-0.002;0.127;0.006108652334660292;-0.009773843921720982;0.0024434609804302454
01:00:0A:00:00:00:00;1727309482;26/09/24;00:11:22;1.012;0.0;0.126;0.006108652334660292;-0.010995574295520782;0.0024434609804302454
01:00:0A:00:00:00:00;1727309483;26/09/24;00:11:23;1.012;0.0;0.126;0.006108652334660292;-0.012217304669320583;0.0036651913542300463
01:00:0A:00:00:00:00;1727309484;26/09/24;00:11:24;1.012;-0.001;0.126;0.006108652334660292;-0.012217304669320583;0.0036651913542300463
01:00:0A:00:00:00:00;1727309485;26/09/24;00:11:25;1.012;-0.001;0.126;0.006108652334660292;-0.010995574295520782;0.0024434609804302454
01:00:0A:00:00:00:00;1727309486;26/09/24;00:11:26;1.011;0.0;0.127;0.006108652334660292;-0.009773843921720982;0.0024434609804302454
01:00:0A:00:00:00:00;1727309487;26/09/24;00:11:27;1.011;-0.001;0.127;0.006108652334660292;-0.012217304669320583;0.0036651913542300463
01:00:0A:00:00:00:00;1727309488;26/09/24;00:11:28;1.011;0.0;0.126;0.006108652334660292;-0.012217304669320583;0.0036651913542300463
01:00:0A:00:00:00:00;1727309489;26/09/24;00:11:29;1.012;-0.001;0.124;0.006108652334660292;-0.010995574295520782;0.0024434609804302454
01:00:0A:00:00:00:00;1727309490;26/09/24;00:11:30;1.011;0.0;0.126;0.006108652334660292;-0.009773843921720982;0.0024434609804302454
01:00:0A:00:00:00:00;1727309491;26/09/24;00:11:31;1.012;-0.001;0.128;0.006108652334660292;-0.010995574295520782;0.0036651913542300463
01:00:0A:00:00:00:00;1727309492;26/09/24;00:11:32;1.011;0.0;0.127;0.006108652334660292;-0.012217304669320583;0.0024434609804302454
01:00:0A:00:00:00:00;1727309493;26/09/24;00:11:33;1.012;-0.001;0.126;0.006108652334660292;-0.012217304669320583;0.0036651913542300463
01:00:0A:00:00:00:00;1727309494;26/09/24;00:11:34;1.012;0.0;0.126;0.006108652334660292;-0.010995574295520782;0.0024434609804302454
01:00:0A:00:00:00:00;1727309495;26/09/24;00:11:35;1.012;-0.001;0.127;0.006108652334660292;-0.009773843921720982;0.0024434609804302454
01:00:0A:00:00:00:00;1727309496;26/09/24;00:11:36;1.012;0.0;0.127;0.006108652334660292;-0.010995574295520782;0.0012217304902151227
01:00:0A:00:00:00:00;1727309497;26/09/24;00:11:37;1.012;0.0;0.126;0.006108652334660292;-0.012217304669320583;0.0036651913542300463
01:00:0A:00:00:00:00;1727309498;26/09/24;00:11:38;1.011;0.0;0.124;0.006108652334660292;-0.010995574295520782;0.0036651913542300463
01:00:0A:00:00:00:00;1727309499;26/09/24;00:11:39;1.012;0.0;0.126;0.006108652334660292;-0.010995574295520782;0.0024434609804302454
01:00:0A:00:00:00:00;1727309500;26/09/24;00:11:40;1.012;0.0;0.128;0.006108652334660292;-0.009773843921720982;0.0024434609804302454
01:00:0A:00:00:00:00;1727309501;26/09/24;00:11:41;1.012;0.0;0.126;0.006108652334660292;-0.012217304669320583;0.0036651913542300463
01:00:0A:00:00:00:00;1727309502;26/09/24;00:11:42;1.012;0.0;0.127;0.006108652334660292;-0.012217304669320583;0.0036651913542300463
01:00:0A:00:00:00:00;1727309503;26/09/24;00:11:43;1.012;0.0;0.125;0.006108652334660292;-0.010995574295520782;0.0024434609804302454
01:00:0A:00:00:00:00;1727309504;26/09/24;00:11:44;1.013;0.0;0.126;0.006108652334660292;-0.009773843921720982;0.0024434609804302454
01:00:0A:00:00:00:00;1727309505;26/09/24;00:11:45;1.011;-0.001;0.127;0.006108652334660292;-0.010995574295520782;0.0036651913542300463
01:00:0A:00:00:00:00;1727309506;26/09/24;00:11:46;1.012;-0.001;0.126;0.006108652334660292;-0.012217304669320583;0.0024434609804302454
01:00:0A:00:00:00:00;1727309507;26/09/24;00:11:47;1.01;0.0;0.125;0.006108652334660292;-0.010995574295520782;0.0036651913542300463
01:00:0A:00:00:00:00;1727309508;26/09/24;00:11:48;1.011;-0.001;0.126;0.006108652334660292;-0.010995574295520782;0.0024434609804302454
01:00:0A:00:00:00:00;1727309509;26/09/24;00:11:49;1.012;-0.001;0.127;0.006108652334660292;-0.009773843921720982;0.0024434609804302454
01:00:0A:00:00:00:00;1727309510;26/09/24;00:11:50;1.011;0.0;0.128;0.006108652334660292;-0.012217304669320583;0.0024434609804302454
01:00:0A:00:00:00:00;1727309511;26/09/24;00:11:51;1.012;0.0;0.126;0.006108652334660292;-0.012217304669320583;0.0036651913542300463
01:00:0A:00:00:00:00;1727309512;26/09/24;00:11:52;1.012;0.0;0.126;0.006108652334660292;-0.010995574295520782;0.0036651913542300463
01:00:0A:00:00:00:00;1727309513;26/09/24;00:11:53;1.012;0.0;0.127;0.006108652334660292;-0.010995574295520782;0.0024434609804302454
01:00:0A:00:00:00:00;1727309514;26/09/24;00:11:54;1.012;-0.001;0.128;0.006108652334660292;-0.009773843921720982;0.0024434609804302454
01:00:0A:00:00:00:00;1727309515;26/09/24;00:11:55;1.011;-0.001;0.127;0.006108652334660292;-0.012217304669320583;0.0024434609804302454
01:00:0A:00:00:00:00;1727309516;26/09/24;00:11:56;1.012;0.0;0.125;0.006108652334660292;-0.012217304669320583;0.0036651913542300463
01:00:0A:00:00:00:00;1727309517;26/09/24;00:11:57;1.011;-0.001;0.126;0.006108652334660292;-0.010995574295520782;0.0024434609804302454
01:00:0A:00:00:00:00;1727309518;26/09/24;00:11:58;1.011;-0.002;0.127;0.006108652334660292;-0.010995574295520782;0.0024434609804302454
01:00:0A:00:00:00:00;1727309519;26/09/24;00:11:59;1.013;0.0;0.126;0.006108652334660292;-0.010995574295520782;0.0024434609804302454
01:00:0A:00:00:00:00;1727309520;26/09/24;00:12:00;1.011;0.0;0.126;0.006108652334660292;-0.012217304669320583;0.0024434609804302454
01:00:0A:00:00:00:00;1727309521;26/09/24;00:12:01;1.012;0.0;0.124;0.006108652334660292;-0.012217304669320583;0.0036651913542300463
01:00:0A:00:00:00:00;1727309522;26/09/24;00:12:02;1.012;0.0;0.126;0.006108652334660292;-0.010995574295520782;0.0024434609804302454
01:00:0A:00:00:00:00;1727309523;26/09/24;00:12:03;1.012;0.0;0.127;0.006108652334660292;-0.010995574295520782;0.0024434609804302454
01:00:0A:00:00:00:00;1727309524;26/09/24;00:12:04;1.011;0.0;0.127;0.006108652334660292;-0.010995574295520782;0.0024434609804302454
01:00:0A:00:00:00:00;1727309525;26/09/24;00:12:05;1.011;0.0;0.126;0.006108652334660292;-0.012217304669320583;0.0036651913542300463
01:00:0A:00:00:00:00;1727309526;26/09/24;00:12:06;1.012;-0.001;0.125;0.006108652334660292;-0.010995574295520782;0.0036651913542300463
01:00:0A:00:00:00:00;1727309527;26/09/24;00:12:07;1.012;-0.001;0.127;0.006108652334660292;-0.010995574295520782;0.0024434609804302454
01:00:0A:00:00:00:00;1727309528;26/09/24;00:12:08;1.011;0.0;0.126;0.006108652334660292;-0.010995574295520782;0.0024434609804302454
01:00:0A:00:00:00:00;1727309529;26/09/24;00:12:09;1.014;0.0;0.127;0.006108652334660292;-0.012217304669320583;0.0036651913542300463
01:00:0A:00:00:00:00;1727309530;26/09/24;00:12:10;1.012;-0.001;0.127;0.006108652334660292;-0.012217304669320583;0.0036651913542300463
01:00:0A:00:00:00:00;1727309531;26/09/24;00:12:11;1.012;-0.001;0.127;0.006108652334660292;-0.009773843921720982;0.0036651913542300463
01:00:0A:00:00:00:00;1727309532;26/09/24;00:12:12;1.012;0.0;0.128;0.006108652334660292;-0.009773843921720982;0.0024434609804302454
01:00:0A:00:00:00:00;1727309533;26/09/24;00:12:13;1.011;0.0;0.127;0.006108652334660292;-0.010995574295520782;0.0036651913542300463
01:00:0A:00:00:00:00;1727309534;26/09/24;00:12:14;1.012;0.0;0.127;0.006108652334660292;-0.012217304669320583;0.0036651913542300463
01:00:0A:00:00:00:00;1727309535;26/09/24;00:12:15;1.012;0.0;0.126;0.006108652334660292;-0.012217304669320583;0.0036651913542300463
01:00:0A:00:00:00:00;1727309536;26/09/24;00:12:16;1.011;0.0;0.126;0.006108652334660292;-0.009773843921720982;0.0024434609804302454
01:00:0A:00:00:00:00;1727309537;26/09/24;00:12:17;1.012;-0.001;0.127;0.006108652334660292;-0.010995574295520782;0.0036651913542300463
01:00:0A:00:00:00:00;1727309538;26/09/24;00:12:18;1.013;0.0;0.127;0.006108652334660292;-0.012217304669320583;0.0024434609804302454
01:00:0A:00:00:00:00;1727309539;26/09/24;00:12:19;1.012;0.0;0.127;0.006108652334660292;-0.012217304669320583;0.0036651913542300463
01:00:0A:00:00:00:00;1727309540;26/09/24;00:12:20;1.012;0.0;0.125;0.006108652334660292;-0.010995574295520782;0.0036651913542300463
01:00:0A:00:00:00:00;1727309541;26/09/24;00:12:21;1.012;0.0;0.126;0.006108652334660292;-0.009773843921720982;0.0024434609804302454
01:00:0A:00:00:00:00;1727309542;26/09/24;00:12:22;1.011;0.0;0.128;0.006108652334660292;-0.010995574295520782;0.0024434609804302454
01:00:0A:00:00:00:00;1727309543;26/09/24;00:12:23;1.012;0.0;0.127;0.006108652334660292;-0.012217304669320583;0.0036651913542300463
01:00:0A:00:00:00:00;1727309544;26/09/24;00:12:24;1.012;0.0;0.126;0.006108652334660292;-0.010995574295520782;0.0036651913542300463
01:00:0A:00:00:00:00;1727309545;26/09/24;00:12:25;1.011;0.0;0.127;0.006108652334660292;-0.010995574295520782;0.0024434609804302454
01:00:0A:00:00:00:00;1727309546;26/09/24;00:12:26;1.013;0.0;0.126;0.006108652334660292;-0.009773843921720982;0.0024434609804302454
01:00:0A:00:00:00:00;1727309547;26/09/24;00:12:27;1.012;0.0;0.126;0.006108652334660292;-0.012217304669320583;0.0024434609804302454
01:00:0A:00:00:00:00;1727309548;26/09/24;00:12:28;1.012;0.0;0.126;0.006108652334660292;-0.012217304669320583;0.0036651913542300463
01:00:0A:00:00:00:00;1727309549;26/09/24;00:12:29;1.011;0.0;0.126;0.006108652334660292;-0.010995574295520782;0.0036651913542300463
01:00:0A:00:00:00:00;1727309550;26/09/24;00:12:30;1.012;0.0;0.127;0.006108652334660292;-0.010995574295520782;0.0024434609804302454
01:00:0A:00:00:00:00;1727309551;26/09/24;00:12:31;1.012;0.0;0.127;0.006108652334660292;-0.010995574295520782;0.0024434609804302454
01:00:0A:00:00:00:00;1727309552;26/09/24;00:12:32;1.012;0.0;0.127;0.006108652334660292;-0.012217304669320583;0.0024434609804302454
01:00:0A:00:00:00:00;1727309553;26/09/24;00:12:33;1.012;0.0;0.126;0.006108652334660292;-0.012217304669320583;0.0036651913542300463
01:00:0A:00:00:00:00;1727309554;26/09/24;00:12:34;1.012;0.0;0.126;0.006108652334660292;-0.010995574295520782;0.0024434609804302454
01:00:0A:00:00:00:00;1727309555;26/09/24;00:12:35;1.012;0.0;0.126;0.006108652334660292;-0.009773843921720982;0.0024434609804302454
01:00:0A:00:00:00:00;1727309555;26/09/24;00:12:35;1.012;0.0;0.127;0.006108652334660292;-0.010995574295520782;0.0024434609804302454
01:00:0A:00:00:00:00;1727309556;26/09/24;00:12:36;1.012;0.0;0.125;0.006108652334660292;-0.012217304669320583;0.0036651913542300463
01:00:0A:00:00:00:00;1727309557;26/09/24;00:12:37;1.01;-0.001;0.126;0.006108652334660292;-0.010995574295520782;0.0036651913542300463
01:00:0A:00:00:00:00;1727309558;26/09/24;00:12:38;1.012;-0.001;0.126;0.006108652334660292;-0.010995574295520782;0.0024434609804302454
01:00:0A:00:00:00:00;1727309559;26/09/24;00:12:39;1.012;0.0;0.127;0.006108652334660292;-0.010995574295520782;0.0024434609804302454
01:00:0A:00:00:00:00;1727309560;26/09/24;00:12:40;1.011;0.0;0.127;0.006108652334660292;-0.010995574295520782;0.0036651913542300463
01:00:0A:00:00:00:00;1727309561;26/09/24;00:12:41;1.011;0.0;0.127;0.006108652334660292;-0.012217304669320583;0.0024434609804302454
01:00:0A:00:00:00:00;1727309562;26/09/24;00:12:42;1.012;0.0;0.126;0.006108652334660292;-0.010995574295520782;0.0036651913542300463
01:00:0A:00:00:00:00;1727309563;26/09/24;00:12:43;1.012;0.0;0.126;0.006108652334660292;-0.010995574295520782;0.0024434609804302454
01:00:0A:00:00:00:00;1727309564;26/09/24;00:12:44;1.011;0.0;0.127;0.006108652334660292;-0.010995574295520782;0.0024434609804302454
01:00:0A:00:00:00:00;1727309565;26/09/24;00:12:45;1.011;0.0;0.127;0.006108652334660292;-0.012217304669320583;0.0024434609804302454
01:00:0A:00:00:00:00;1727309566;26/09/24;00:12:46;1.011;0.0;0.125;0.006108652334660292;-0.012217304669320583;0.0036651913542300463
01:00:0A:00:00:00:00;1727309567;26/09/24;00:12:47;1.011;0.0;0.124;0.006108652334660292;-0.010995574295520782;0.0024434609804302454
01:00:0A:00:00:00:00;1727309568;26/09/24;00:12:48;1.011;-0.001;0.127;0.006108652334660292;-0.010995574295520782;0.0024434609804302454
01:00:0A:00:00:00:00;1727309569;26/09/24;00:12:49;1.012;0.0;0.127;0.006108652334660292;-0.010995574295520782;0.0024434609804302454
01:00:0A:00:00:00:00;1727309570;26/09/24;00:12:50;1.011;0.0;0.127;0.006108652334660292;-0.012217304669320583;0.0036651913542300463
01:00:0A:00:00:00:00;1727309571;26/09/24;00:12:51;1.013;0.0;0.126;0.006108652334660292;-0.010995574295520782;0.0036651913542300463
01:00:0A:00:00:00:00;1727309572;26/09/24;00:12:52;1.011;-0.001;0.126;0.006108652334660292;-0.010995574295520782;0.0024434609804302454
01:00:0A:00:00:00:00;1727309573;26/09/24;00:12:53;1.012;0.0;0.126;0.006108652334660292;-0.010995574295520782;0.0024434609804302454
01:00:0A:00:00:00:00;1727309574;26/09/24;00:12:54;1.011;0.0;0.128;0.006108652334660292;-0.010995574295520782;0.0036651913542300463
01:00:0A:00:00:00:00;1727309575;26/09/24;00:12:55;1.012;0.0;0.125;0.006108652334660292;-0.012217304669320583;0.0036651913542300463
01:00:0A:00:00:00:00;1727309576;26/09/24;00:12:56;1.012;-0.001;0.125;0.006108652334660292;-0.010995574295520782;0.0036651913542300463
01:00:0A:00:00:00:00;1727309577;26/09/24;00:12:57;1.012;0.0;0.126;0.006108652334660292;-0.009773843921720982;0.0024434609804302454
01:00:0A:00:00:00:00;1727309578;26/09/24;00:12:58;1.013;-0.001;0.127;0.006108652334660292;-0.010995574295520782;0.0036651913542300463
01:00:0A:00:00:00:00;1727309579;26/09/24;00:12:59;1.012;0.0;0.127;0.006108652334660292;-0.012217304669320583;0.0036651913542300463
01:00:0A:00:00:00:00;1727309580;26/09/24;00:13:00;1.012;0.0;0.127;0.006108652334660292;-0.012217304669320583;0.0036651913542300463
01:00:0A:00:00:00:00;1727309581;26/09/24;00:13:01;1.012;0.0;0.126;0.006108652334660292;-0.010995574295520782;0.0036651913542300463
01:00:0A:00:00:00:00;1727309582;26/09/24;00:13:02;1.011;-0.001;0.127;0.006108652334660292;-0.010995574295520782;0.0024434609804302454
01:00:0A:00:00:00:00;1727309583;26/09/24;00:13:03;1.012;0.0;0.128;0.006108652334660292;-0.010995574295520782;0.0024434609804302454
01:00:0A:00:00:00:00;1727309584;26/09/24;00:13:04;1.011;-0.001;0.127;0.006108652334660292;-0.012217304669320583;0.0036651913542300463
01:00:0A:00:00:00:00;1727309585;26/09/24;00:13:05;1.012;0.0;0.126;0.006108652334660292;-0.010995574295520782;0.0036651913542300463
01:00:0A:00:00:00:00;1727309586;26/09/24;00:13:06;1.012;0.0;0.127;0.006108652334660292;-0.010995574295520782;0.0024434609804302454
01:00:0A:00:00:00:00;1727309587;26/09/24;00:13:07;1.012;0.0;0.127;0.006108652334660292;-0.010995574295520782;0.0024434609804302454
01:00:0A:00:00:00:00;1727309588;26/09/24;00:13:08;1.012;-0.001;0.126;0.006108652334660292;-0.010995574295520782;0.0024434609804302454
01:00:0A:00:00:00:00;1727309589;26/09/24;00:13:09;1.012;0.0;0.126;0.006108652334660292;-0.012217304669320583;0.0036651913542300463
01:00:0A:00:00:00:00;1727309590;26/09/24;00:13:10;1.012;0.0;0.126;0.006108652334660292;-0.010995574295520782;0.0024434609804302454
01:00:0A:00:00:00:00;1727309591;26/09/24;00:13:11;1.012;-0.001;0.126;0.006108652334660292;-0.010995574295520782;0.0024434609804302454
01:00:0A:00:00:00:00;1727309592;26/09/24;00:13:12;1.012;0.0;0.126;0.006108652334660292;-0.010995574295520782;0.0024434609804302454
01:00:0A:00:00:00:00;1727309593;26/09/24;00:13:13;1.012;0.0;0.126;0.006108652334660292;-0.012217304669320583;0.0024434609804302454
01:00:0A:00:00:00:00;1727309594;26/09/24;00:13:14;1.011;0.0;0.126;0.006108652334660292;-0.010995574295520782;0.0036651913542300463
01:00:0A:00:00:00:00;1727309595;26/09/24;00:13:15;1.012;0.0;0.125;0.006108652334660292;-0.010995574295520782;0.0024434609804302454
01:00:0A:00:00:00:00;1727309596;26/09/24;00:13:16;1.012;-0.002;0.126;0.006108652334660292;-0.010995574295520782;0.0024434609804302454
01:00:0A:00:00:00:00;1727309597;26/09/24;00:13:17;1.011;0.0;0.127;0.006108652334660292;-0.010995574295520782;0.0024434609804302454
01:00:0A:00:00:00:00;1727309598;26/09/24;00:13:18;1.011;0.0;0.127;0.006108652334660292;-0.012217304669320583;0.0036651913542300463
01:00:0A:00:00:00:00;1727309599;26/09/24;00:13:19;1.011;0.0;0.126;0.006108652334660292;-0.010995574295520782;0.0036651913542300463
01:00:0A:00:00:00:00;1727309600;26/09/24;00:13:20;1.012;0.0;0.126;0.006108652334660292;-0.010995574295520782;0.0024434609804302454
01:00:0A:00:00:00:00;1727309601;26/09/24;00:13:21;1.012;0.0;0.126;0.006108652334660292;-0.009773843921720982;0.0024434609804302454
01:00:0A:00:00:00:00;1727309602;26/09/24;00:13:22;1.012;0.0;0.127;0.006108652334660292;-0.012217304669320583;0.0024434609804302454
01:00:0A:00:00:00:00;1727309603;26/09/24;00:13:23;1.012;-0.001;0.126;0.006108652334660292;-0.012217304669320583;0.0024434609804302454
01:00:0A:00:00:00:00;1727309604;26/09/24;00:13:24;1.012;-0.001;0.126;0.006108652334660292;-0.010995574295520782;0.0036651913542300463
01:00:0A:00:00:00:00;1727309605;26/09/24;00:13:25;1.012;-0.001;0.126;0.006108652334660292;-0.010995574295520782;0.0024434609804302454
01:00:0A:00:00:00:00;1727309606;26/09/24;00:13:26;1.011;0.0;0.126;0.006108652334660292;-0.010995574295520782;0.0036651913542300463
01:00:0A:00:00:00:00;1727309607;26/09/24;00:13:27;1.013;-0.001;0.126;0.006108652334660292;-0.012217304669320583;0.0024434609804302454
01:00:0A:00:00:00:00;1727309608;26/09/24;00:13:28;1.012;-0.001;0.125;0.006108652334660292;-0.010995574295520782;0.0036651913542300463
01:00:0A:00:00:00:00;1727309609;26/09/24;00:13:29;1.012;0.0;0.126;0.006108652334660292;-0.010995574295520782;0.0024434609804302454
01:00:0A:00:00:00:00;1727309610;26/09/24;00:13:30;1.013;-0.001;0.126;0.006108652334660292;-0.010995574295520782;0.0024434609804302454
01:00:0A:00:00:00:00;1727309611;26/09/24;00:13:31;1.012;0.0;0.127;0.006108652334660292;-0.010995574295520782;0.0024434609804302454
01:00:0A:00:00:00:00;1727309612;26/09/24;00:13:32;1.013;0.0;0.126;0.006108652334660292;-0.012217304669320583;0.0036651913542300463
01:00:0A:00:00:00:00;1727309613;26/09/24;00:13:33;1.011;-0.001;0.126;0.006108652334660292;-0.010995574295520782;0.0036651913542300463
01:00:0A:00:00:00:00;1727309614;26/09/24;00:13:34;1.012;-0.001;0.124;0.006108652334660292;-0.010995574295520782;0.0024434609804302454
01:00:0A:00:00:00:00;1727309615;26/09/24;00:13:35;1.011;0.0;0.127;0.006108652334660292;-0.010995574295520782;0.0024434609804302454
01:00:0A:00:00:00:00;1727309616;26/09/24;00:13:36;1.012;-0.001;0.126;0.006108652334660292;-0.012217304669320583;0.0024434609804302454
01:00:0A:00:00:00:00;1727309617;26/09/24;00:13:37;1.013;0.0;0.126;0.006108652334660292;-0.012217304669320583;0.0036651913542300463
01:00:0A:00:00:00:00;1727309618;26/09/24;00:13:38;1.013;0.0;0.126;0.006108652334660292;-0.010995574295520782;0.0024434609804302454
01:00:0A:00:00:00:00;1727309619;26/09/24;00:13:39;1.011;0.0;0.126;0.006108652334660292;-0.010995574295520782;0.0024434609804302454
01:00:0A:00:00:00:00;1727309620;26/09/24;00:13:40;1.012;0.0;0.127;0.006108652334660292;-0.010995574295520782;0.0024434609804302454
01:00:0A:00:00:00:00;1727309621;26/09/24;00:13:41;1.011;0.0;0.126;0.006108652334660292;-0.012217304669320583;0.0024434609804302454
01:00:0A:00:00:00:00;1727309622;26/09/24;00:13:42;1.011;0.0;0.126;0.006108652334660292;-0.010995574295520782;0.0036651913542300463
01:00:0A:00:00:00:00;1727309623;26/09/24;00:13:43;1.011;0.0;0.126;0.006108652334660292;-0.010995574295520782;0.0024434609804302454
01:00:0A:00:00:00:00;1727309624;26/09/24;00:13:44;1.012;0.0;0.125;0.006108652334660292;-0.010995574295520782;0.0024434609804302454
01:00:0A:00:00:00:00;1727309625;26/09/24;00:13:45;1.012;0.0;0.127;0.006108652334660292;-0.010995574295520782;0.0024434609804302454
01:00:0A:00:00:00:00;1727309626;26/09/24;00:13:46;1.012;0.0;0.126;0.006108652334660292;-0.012217304669320583;0.0036651913542300463
01:00:0A:00:00:00:00;1727309627;26/09/24;00:13:47;1.012;0.0;0.124;0.006108652334660292;-0.012217304669320583;0.0024434609804302454
01:00:0A:00:00:00:00;1727309628;26/09/24;00:13:48;1.013;0.0;0.126;0.006108652334660292;-0.010995574295520782;0.0024434609804302454
01:00:0A:00:00:00:00;1727309629;26/09/24;00:13:49;1.013;0.0;0.126;0.006108652334660292;-0.010995574295520782;0.0024434609804302454
01:00:0A:00:00:00:00;1727309630;26/09/24;00:13:50;1.012;0.0;0.127;0.006108652334660292;-0.012217304669320583;0.0024434609804302454
01:00:0A:00:00:00:00;1727309631;26/09/24;00:13:51;1.011;0.0;0.126;0.006108652334660292;-0.012217304669320583;0.0036651913542300463
01:00:0A:00:00:00:00;1727309632;26/09/24;00:13:52;1.011;0.0;0.126;0.006108652334660292;-0.010995574295520782;0.0024434609804302454
01:00:0A:00:00:00:00;1727309633;26/09/24;00:13:53;1.011;0.0;0.125;0.006108652334660292;-0.010995574295520782;0.0024434609804302454
01:00:0A:00:00:00:00;1727309634;26/09/24;00:13:54;1.012;0.0;0.127;0.006108652334660292;-0.010995574295520782;0.0036651913542300463
01:00:0A:00:00:00:00;1727309635;26/09/24;00:13:55;1.012;-0.001;0.127;0.006108652334660292;-0.012217304669320583;0.0024434609804302454
01:00:0A:00:00:00:00;1727309636;26/09/24;00:13:56;1.012;0.0;0.125;0.006108652334660292;-0.012217304669320583;0.0036651913542300463
01:00:0A:00:00:00:00;1727309637;26/09/24;00:13:57;1.013;0.0;0.126;0.006108652334660292;-0.010995574295520782;0.0024434609804302454
01:00:0A:00:00:00:00;1727309638;26/09/24;00:13:58;1.012;0.0;0.125;0.006108652334660292;-0.010995574295520782;0.0024434609804302454
01:00:0A:00:00:00:00;1727309639;26/09/24;00:13:59;1.012;0.0;0.126;0.006108652334660292;-0.010995574295520782;0.0024434609804302454
01:00:0A:00:00:00:00;1727309640;26/09/24;00:14:00;1.011;0.0;0.125;0.006108652334660292;-0.012217304669320583;0.0036651913542300463
01:00:0A:00:00:00:00;1727309641;26/09/24;00:14:01;1.012;0.0;0.126;0.006108652334660292;-0.010995574295520782;0.0024434609804302454
01:00:0A:00:00:00:00;1727309642;26/09/24;00:14:02;1.012;0.0;0.126;0.006108652334660292;-0.010995574295520782;0.0036651913542300463
01:00:0A:00:00:00:00;1727309643;26/09/24;00:14:03;1.012;0.0;0.127;0.006108652334660292;-0.010995574295520782;0.0024434609804302454
01:00:0A:00:00:00:00;1727309644;26/09/24;00:14:04;1.013;0.0;0.126;0.006108652334660292;-0.010995574295520782;0.0024434609804302454
01:00:0A:00:00:00:00;1727309645;26/09/24;00:14:05;1.012;0.0;0.126;0.006108652334660292;-0.010995574295520782;0.0036651913542300463
01:00:0A:00:00:00:00;1727309646;26/09/24;00:14:06;1.012;0.0;0.127;0.006108652334660292;-0.010995574295520782;0.0024434609804302454
01:00:0A:00:00:00:00;1727309647;26/09/24;00:14:07;1.012;0.0;0.127;0.006108652334660292;-0.010995574295520782;0.0024434609804302454
01:00:0A:00:00:00:00;1727309648;26/09/24;00:14:08;1.012;0.0;0.126;0.006108652334660292;-0.010995574295520782;0.0036651913542300463
01:00:0A:00:00:00:00;1727309649;26/09/24;00:14:09;1.011;0.0;0.127;0.006108652334660292;-0.010995574295520782;0.0036651913542300463
01:00:0A:00:00:00:00;1727309650;26/09/24;00:14:10;1.012;0.0;0.126;0.006108652334660292;-0.010995574295520782;0.0024434609804302454
01:00:0A:00:00:00:00;1727309651;26/09/24;00:14:11;1.012;0.0;0.125;0.006108652334660292;-0.010995574295520782;0.0024434609804302454
01:00:0A:00:00:00:00;1727309652;26/09/24;00:14:12;1.011;0.0;0.127;0.006108652334660292;-0.010995574295520782;0.0024434609804302454
01:00:0A:00:00:00:00;1727309653;26/09/24;00:14:13;1.013;0.0;0.126;0.006108652334660292;-0.012217304669320583;0.0036651913542300463
01:00:0A:00:00:00:00;1727309654;26/09/24;00:14:14;1.012;0.0;0.127;0.006108652334660292;-0.012217304669320583;0.0036651913542300463
01:00:0A:00:00:00:00;1727309655;26/09/24;00:14:15;1.012;0.0;0.127;0.006108652334660292;-0.010995574295520782;0.0036651913542300463
01:00:0A:00:00:00:00;1727309656;26/09/24;00:14:16;1.012;0.0;0.126;0.006108652334660292;-0.010995574295520782;0.0024434609804302454
01:00:0A:00:00:00:00;1727309657;26/09/24;00:14:17;1.011;0.0;0.127;0.006108652334660292;-0.010995574295520782;0.0036651913542300463
01:00:0A:00:00:00:00;1727309658;26/09/24;00:14:18;1.012;0.0;0.125;0.006108652334660292;-0.012217304669320583;0.0024434609804302454
01:00:0A:00:00:00:00;1727309659;26/09/24;00:14:19;1.012;0.0;0.125;0.006108652334660292;-0.010995574295520782;0.0036651913542300463
01:00:0A:00:00:00:00;1727309660;26/09/24;00:14:20;1.012;0.0;0.125;0.006108652334660292;-0.010995574295520782;0.0024434609804302454
01:00:0A:00:00:00:00;1727309661;26/09/24;00:14:21;1.012;0.0;0.126;0.006108652334660292;-0.009773843921720982;0.0024434609804302454
01:00:0A:00:00:00:00;1727309662;26/09/24;00:14:22;1.011;0.0;0.126;0.006108652334660292;-0.010995574295520782;0.0024434609804302454
01:00:0A:00:00:00:00;1727309663;26/09/24;00:14:23;1.011;0.0;0.126;0.006108652334660292;-0.012217304669320583;0.0036651913542300463
01:00:0A:00:00:00:00;1727309664;26/09/24;00:14:24;1.012;0.0;0.126;0.006108652334660292;-0.010995574295520782;0.0036651913542300463
01:00:0A:00:00:00:00;1727309665;26/09/24;00:14:25;1.013;0.0;0.125;0.006108652334660292;-0.010995574295520782;0.0024434609804302454
01:00:0A:00:00:00:00;1727309666;26/09/24;00:14:26;1.011;0.0;0.125;0.006108652334660292;-0.010995574295520782;0.0024434609804302454
01:00:0A:00:00:00:00;1727309667;26/09/24;00:14:27;1.012;0.0;0.127;0.006108652334660292;-0.010995574295520782;0.0036651913542300463
01:00:0A:00:00:00:00;1727309668;26/09/24;00:14:28;1.011;0.0;0.126;0.006108652334660292;-0.012217304669320583;0.0036651913542300463
01:00:0A:00:00:00:00;1727309669;26/09/24;00:14:29;1.013;-0.001;0.125;0.006108652334660292;-0.010995574295520782;0.0024434609804302454
01:00:0A:00:00:00:00;1727309670;26/09/24;00:14:30;1.011;0.0;0.125;0.006108652334660292;-0.010995574295520782;0.0024434609804302454
01:00:0A:00:00:00:00;1727309671;26/09/24;00:14:31;1.011;0.0;0.126;0.006108652334660292;-0.010995574295520782;0.0024434609804302454
01:00:0A:00:00:00:00;1727309672;26/09/24;00:14:32;1.011;0.0;0.126;0.006108652334660292;-0.012217304669320583;0.0024434609804302454
01:00:0A:00:00:00:00;1727309673;26/09/24;00:14:33;1.011;0.0;0.125;0.006108652334660292;-0.010995574295520782;0.0024434609804302454
01:00:0A:00:00:00:00;1727309674;26/09/24;00:14:34;1.011;0.0;0.126;0.006108652334660292;-0.010995574295520782;0.0024434609804302454
01:00:0A:00:00:00:00;1727309675;26/09/24;00:14:35;1.012;-0.001;0.126;0.006108652334660292;-0.009773843921720982;0.0024434609804302454
01:00:0A:00:00:00:00;1727309676;26/09/24;00:14:36;1.011;0.0;0.127;0.006108652334660292;-0.010995574295520782;0.0036651913542300463
01:00:0A:00:00:00:00;1727309677;26/09/24;00:14:37;1.012;-0.001;0.125;0.006108652334660292;-0.012217304669320583;0.0036651913542300463
01:00:0A:00:00:00:00;1727309678;26/09/24;00:14:38;1.013;0.0;0.126;0.006108652334660292;-0.010995574295520782;0.0036651913542300463
01:00:0A:00:00:00:00;1727309679;26/09/24;00:14:39;1.012;0.0;0.126;0.006108652334660292;-0.010995574295520782;0.0024434609804302454
01:00:0A:00:00:00:00;1727309680;26/09/24;00:14:40;1.012;0.0;0.127;0.006108652334660292;-0.010995574295520782;0.0024434609804302454
01:00:0A:00:00:00:00;1727309681;26/09/24;00:14:41;1.012;0.0;0.126;0.006108652334660292;-0.010995574295520782;0.0036651913542300463
01:00:0A:00:00:00:00;1727309682;26/09/24;00:14:42;1.012;0.0;0.126;0.006108652334660292;-0.012217304669320583;0.0036651913542300463
01:00:0A:00:00:00:00;1727309683;26/09/24;00:14:43;1.012;-0.001;0.125;0.006108652334660292;-0.010995574295520782;0.0024434609804302454
01:00:0A:00:00:00:00;1727309684;26/09/24;00:14:44;1.013;0.0;0.127;0.006108652334660292;-0.010995574295520782;0.0024434609804302454
01:00:0A:00:00:00:00;1727309685;26/09/24;00:14:45;1.01;0.0;0.126;0.006108652334660292;-0.010995574295520782;0.0024434609804302454
01:00:0A:00:00:00:00;1727309686;26/09/24;00:14:46;1.012;-0.002;0.126;0.006108652334660292;-0.012217304669320583;0.0024434609804302454
01:00:0A:00:00:00:00;1727309687;26/09/24;00:14:47;1.012;-0.002;0.126;0.006108652334660292;-0.010995574295520782;0.0036651913542300463
01:00:0A:00:00:00:00;1727309688;26/09/24;00:14:48;1.011;0.0;0.125;0.006108652334660292;-0.010995574295520782;0.0024434609804302454
01:00:0A:00:00:00:00;1727309689;26/09/24;00:14:49;1.012;-0.001;0.126;0.006108652334660292;-0.010995574295520782;0.0024434609804302454
01:00:0A:00:00:00:00;1727309690;26/09/24;00:14:50;1.012;0.0;0.126;0.006108652334660292;-0.010995574295520782;0.0024434609804302454
01:00:0A:00:00:00:00;1727309691;26/09/24;00:14:51;1.012;0.0;0.126;0.006108652334660292;-0.012217304669320583;0.0024434609804302454
01:00:0A:00:00:00:00;1727309692;26/09/24;00:14:52;1.013;0.0;0.125;0.006108652334660292;-0.010995574295520782;0.0036651913542300463
01:00:0A:00:00:00:00;1727309693;26/09/24;00:14:53;1.013;0.0;0.126;0.006108652334660292;-0.010995574295520782;0.0024434609804302454
01:00:0A:00:00:00:00;1727309694;26/09/24;00:14:54;1.011;0.0;0.126;0.006108652334660292;-0.010995574295520782;0.0024434609804302454
01:00:0A:00:00:00:00;1727309695;26/09/24;00:14:55;1.01;0.0;0.127;0.006108652334660292;-0.010995574295520782;0.0036651913542300463
01:00:0A:00:00:00:00;1727309696;26/09/24;00:14:56;1.012;0.0;0.126;0.006108652334660292;-0.012217304669320583;0.0036651913542300463
01:00:0A:00:00:00:00;1727309697;26/09/24;00:14:57;1.012;0.0;0.126;0.006108652334660292;-0.010995574295520782;0.0024434609804302454
01:00:0A:00:00:00:00;1727309698;26/09/24;00:14:58;1.011;0.0;0.126;0.006108652334660292;-0.010995574295520782;0.0024434609804302454
01:00:0A:00:00:00:00;1727309699;26/09/24;00:14:59;1.011;0.0;0.126;0.006108652334660292;-0.010995574295520782;0.0024434609804302454
01:00:0A:00:00:00:00;1727309700;26/09/24;00:15:00;1.012;-0.001;0.126;0.006108652334660292;-0.012217304669320583;0.0036651913542300463
01:00:0A:00:00:00:00;1727309701;26/09/24;00:15:01;1.012;0.0;0.125;0.006108652334660292;-0.010995574295520782;0.0024434609804302454
01:00:0A:00:00:00:00;1727309702;26/09/24;00:15:02;1.011;0.0;0.126;0.006108652334660292;-0.010995574295520782;0.0036651913542300463
01:00:0A:00:00:00:00;1727309703;26/09/24;00:15:03;1.012;0.0;0.126;0.006108652334660292;-0.010995574295520782;0.0024434609804302454
01:00:0A:00:00:00:00;1727309704;26/09/24;00:15:04;1.01;0.0;0.126;0.006108652334660292;-0.012217304669320583;0.0036651913542300463
01:00:0A:00:00:00:00;1727309705;26/09/24;00:15:05;1.01;0.0;0.126;0.006108652334660292;-0.010995574295520782;0.0036651913542300463
01:00:0A:00:00:00:00;1727309706;26/09/24;00:15:06;1.012;0.0;0.125;0.006108652334660292;-0.010995574295520782;0.0036651913542300463
