Source;Epoch timestamp (UTC);Date;Time (UTC);Accel X (G);Accel Y (G);Accel Z (G);Gyro X (rad/s);Gyro Y (rad/s);Gyro Z (rad/s)
01:00:0A:00:00:00:00;1722729601;04/08/24;00:00:01;1.005;-0.022;0.105;-0.06352998316287994;-0.004886921960860491;0.013439035043120384
01:00:0A:00:00:00:00;1722729602;04/08/24;00:00:02;0.999;-0.016;0.099;-0.06352998316287994;-0.010995574295520782;0.0036651913542300463
01:00:0A:00:00:00:00;1722729603;04/08/24;00:00:03;1.007;-0.017;0.101;-0.06108652427792549;-0.006108652334660292;-0.006108652334660292
01:00:0A:00:00:00:00;1722729604;04/08/24;00:00:04;1.022;-0.024;0.106;-0.06230825558304787;-0.01710422709584236;-0.014660765416920185
01:00:0A:00:00:00:00;1722729605;04/08/24;00:00:05;1.028;-0.027;0.103;-0.06475171446800232;-0.013439035043120384;-0.009773843921720982
01:00:0A:00:00:00:00;1722729606;04/08/24;00:00:06;1.021;-0.029;0.107;-0.06841690838336945;-0.006108652334660292;0.0073303827084600925
01:00:0A:00:00:00:00;1722729607;04/08/24;00:00:07;1.012;-0.03;0.105;-0.0708603635430336;-0.015882495790719986;0.009773843921720982
01:00:0A:00:00:00:00;1722729608;04/08/24;00:00:08;0.997;-0.022;0.103;-0.07208210229873657;-0.014660765416920185;0.009773843921720982
01:00:0A:00:00:00:00;1722729609;04/08/24;00:00:09;0.997;-0.018;0.109;-0.06841690838336945;-0.009773843921720982;-0.0073303827084600925
01:00:0A:00:00:00:00;1722729610;04/08/24;00:00:10;1.005;-0.02;0.111;-0.0708603635430336;-0.019547687843441963;-0.015882495790719986
01:00:0A:00:00:00:00;1722729611;04/08/24;00:00:11;1.021;-0.023;0.107;-0.0708603635430336;-0.00855211354792118;-0.012217304669320583
01:00:0A:00:00:00:00;1722729612;04/08/24;00:00:12;1.024;-0.027;0.109;-0.0708603635430336;-0.0012217304902151227;-0.004886921960860491
01:00:0A:00:00:00:00;1722729613;04/08/24;00:00:13;1.024;-0.025;0.106;-0.07208210229873657;-0.004886921960860491;0.0024434609804302454
01:00:0A:00:00:00:00;1722729614;04/08/24;00:00:14;1.019;-0.021;0.099;-0.07330382615327835;-0.0024434609804302454;0.009773843921720982
01:00:0A:00:00:00:00;1722729615;04/08/24;00:00:15;1.008;-0.018;0.101;-0.07208210229873657;-0.0073303827084600925;0.0036651913542300463
01:00:0A:00:00:00:00;1722729616;04/08/24;00:00:16;1.006;-0.017;0.101;-0.06963863223791122;-0.02076941914856434;-0.013439035043120384
01:00:0A:00:00:00:00;1722729617;04/08/24;00:00:17;1.009;-0.021;0.099;-0.06841690838336945;-0.021991148591041565;-0.013439035043120384
01:00:0A:00:00:00:00;1722729618;04/08/24;00:00:18;1.014;-0.028;0.106;-0.06719517707824707;-0.014660765416920185;-0.006108652334660292
01:00:0A:00:00:00:00;1722729619;04/08/24;00:00:19;1.017;-0.026;0.107;-0.06719517707824707;-0.01710422709584236;-0.0024434609804302454
01:00:0A:00:00:00:00;1722729620;04/08/24;00:00:20;1.014;-0.022;0.105;-0.06719517707824707;-0.00855211354792118;0.0073303827084600925
01:00:0A:00:00:00:00;1722729621;04/08/24;00:00:21;1.009;-0.024;0.105;-0.06719517707824707;-0.004886921960860491;0.012217304669320583
01:00:0A:00:00:00:00;1722729622;04/08/24;00:00:22;1.003;-0.018;0.106;-0.06475171446800232;-0.006108652334660292;-0.0012217304902151227
01:00:0A:00:00:00:00;1722729623;04/08/24;00:00:23;1.001;-0.019;0.102;-0.06475171446800232;-0.00855211354792118;-0.0036651913542300463
01:00:0A:00:00:00:00;1722729624;04/08/24;00:00:24;1.01;-0.021;0.103;-0.06352998316287994;-0.015882495790719986;-0.012217304669320583
01:00:0A:00:00:00:00;1722729625;04/08/24;00:00:25;1.017;-0.022;0.106;-0.06230825558304787;-0.018325956538319588;-0.013439035043120384
01:00:0A:00:00:00:00;1722729626;04/08/24;00:00:26;1.025;-0.024;0.106;-0.06352998316287994;-0.015882495790719986;-0.0036651913542300463
01:00:0A:00:00:00:00;1722729627;04/08/24;00:00:27;1.019;-0.026;0.108;-0.06352998316287994;-0.006108652334660292;0.0036651913542300463
01:00:0A:00:00:00:00;1722729628;04/08/24;00:00:28;1.013;-0.025;0.106;-0.06230825558304787;-0.0073303827084600925;0.0024434609804302454
01:00:0A:00:00:00:00;1722729629;04/08/24;00:00:29;1.003;-0.023;0.104;-0.06230825558304787;-0.006108652334660292;0.0073303827084600925
01:00:0A:00:00:00:00;1722729630;04/08/24;00:00:30;1.003;-0.022;0.103;-0.06108652427792549;-0.0036651913542300463;0.004886921960860491
01:00:0A:00:00:00:00;1722729631;04/08/24;00:00:31;1.009;-0.018;0.101;-0.059864792972803116;-0.010995574295520782;-0.0024434609804302454
01:00:0A:00:00:00:00;1722729632;04/08/24;00:00:32;1.014;-0.019;0.101;-0.059864792972803116;-0.015882495790719986;-0.0024434609804302454
01:00:0A:00:00:00:00;1722729633;04/08/24;00:00:33;1.018;-0.022;0.101;-0.05742133408784866;-0.02076941914856434;-0.00855211354792118
01:00:0A:00:00:00:00;1722729634;04/08/24;00:00:34;1.017;-0.021;0.104;-0.05619959905743599;-0.018325956538319588;-0.013439035043120384
01:00:0A:00:00:00:00;1722729635;04/08/24;00:00:35;1.015;-0.027;0.108;-0.05497787147760391;-0.013439035043120384;-0.00855211354792118
01:00:0A:00:00:00:00;1722729636;04/08/24;00:00:36;1.013;-0.031;0.107;-0.05497787147760391;0.0;0.0036651913542300463
01:00:0A:00:00:00:00;1722729637;04/08/24;00:00:37;1.013;-0.029;0.105;-0.05375614017248154;0.0012217304902151227;0.010995574295520782
01:00:0A:00:00:00:00;1722729638;04/08/24;00:00:38;1.01;-0.023;0.102;-0.05375614017248154;-0.004886921960860491;0.014660765416920185
01:00:0A:00:00:00:00;1722729639;04/08/24;00:00:39;1.008;-0.021;0.099;-0.051312677562236786;-0.013439035043120384;0.0036651913542300463
01:00:0A:00:00:00:00;1722729640;04/08/24;00:00:40;1.009;-0.018;0.105;-0.04886921867728233;-0.02076941914856434;-0.009773843921720982
01:00:0A:00:00:00:00;1722729641;04/08/24;00:00:41;1.012;-0.02;0.109;-0.04764748737215996;-0.01710422709584236;-0.014660765416920185
01:00:0A:00:00:00:00;1722729642;04/08/24;00:00:42;1.016;-0.027;0.109;-0.045204028487205505;-0.0036651913542300463;-0.013439035043120384
01:00:0A:00:00:00:00;1722729643;04/08/24;00:00:43;1.016;-0.027;0.103;-0.04642575979232788;0.0024434609804302454;0.0024434609804302454
01:00:0A:00:00:00:00;1722729644;04/08/24;00:00:44;1.011;-0.024;0.099;-0.04642575979232788;-0.0024434609804302454;0.006108652334660292
01:00:0A:00:00:00:00;1722729645;04/08/24;00:00:45;1.009;-0.021;0.098;-0.04398229718208313;-0.012217304669320583;-0.0024434609804302454
01:00:0A:00:00:00:00;1722729646;04/08/24;00:00:46;1.01;-0.018;0.1;-0.04398229718208313;-0.02076941914856434;-0.006108652334660292
01:00:0A:00:00:00:00;1722729647;04/08/24;00:00:47;1.019;-0.024;0.105;-0.042760565876960754;-0.02321287989616394;-0.006108652334660292
01:00:0A:00:00:00:00;1722729648;04/08/24;00:00:48;1.022;-0.026;0.106;-0.04153883829712868;-0.013439035043120384;-0.0036651913542300463
01:00:0A:00:00:00:00;1722729649;04/08/24;00:00:49;1.019;-0.025;0.106;-0.042760565876960754;-0.004886921960860491;0.009773843921720982
01:00:0A:00:00:00:00;1722729650;04/08/24;00:00:50;1.011;-0.025;0.103;-0.045204028487205505;-0.00855211354792118;0.019547687843441963
01:00:0A:00:00:00:00;1722729651;04/08/24;00:00:51;0.997;-0.02;0.102;-0.042760565876960754;-0.009773843921720982;0.00855211354792118
01:00:0A:00:00:00:00;1722729652;04/08/24;00:00:52;0.998;-0.019;0.104;-0.04153883829712868;-0.019547687843441963;-0.0073303827084600925
01:00:0A:00:00:00:00;1722729653;04/08/24;00:00:53;1.005;-0.022;0.102;-0.040317103266716;-0.02076941914856434;-0.013439035043120384
01:00:0A:00:00:00:00;1722729654;04/08/24;00:00:54;1.019;-0.029;0.107;-0.03787364438176155;-0.010995574295520782;-0.009773843921720982
01:00:0A:00:00:00:00;1722729655;04/08/24;00:00:55;1.024;-0.028;0.108;-0.039095375686883926;-0.010995574295520782;0.0
01:00:0A:00:00:00:00;1722729656;04/08/24;00:00:56;1.025;-0.026;0.105;-0.04153883829712868;-0.006108652334660292;0.013439035043120384
01:00:0A:00:00:00:00;1722729657;04/08/24;00:00:57;1.02;-0.022;0.105;-0.040317103266716;-0.0024434609804302454;0.013439035043120384
01:00:0A:00:00:00:00;1722729658;04/08/24;00:00:58;1.011;-0.019;0.103;-0.04153883829712868;-0.00855211354792118;0.006108652334660292
01:00:0A:00:00:00:00;1722729659;04/08/24;00:00:59;1.008;-0.019;0.101;-0.040317103266716;-0.0073303827084600925;-0.0012217304902151227
01:00:0A:00:00:00:00;1722729660;04/08/24;00:01:00;1.003;-0.023;0.101;-0.039095375686883926;-0.010995574295520782;-0.006108652334660292
01:00:0A:00:00:00:00;1722729661;04/08/24;00:01:01;1.006;-0.025;0.104;-0.040317103266716;-0.019547687843441963;-0.0024434609804302454
01:00:0A:00:00:00:00;1722729662;04/08/24;00:01:02;1.009;-0.026;0.103;-0.039095375686883926;-0.01710422709584236;0.0036651913542300463
01:00:0A:00:00:00:00;1722729663;04/08/24;00:01:03;1.013;-0.025;0.108;-0.039095375686883926;-0.010995574295520782;0.0073303827084600925
01:00:0A:00:00:00:00;1722729664;04/08/24;00:01:04;1.015;-0.023;0.107;-0.03787364438176155;-0.013439035043120384;0.0024434609804302454
01:00:0A:00:00:00:00;1722729665;04/08/24;00:01:05;1.016;-0.021;0.106;-0.0354301817715168;-0.006108652334660292;0.0024434609804302454
01:00:0A:00:00:00:00;1722729666;04/08/24;00:01:06;1.015;-0.023;0.107;-0.03420845419168472;-0.0012217304902151227;-0.0012217304902151227
01:00:0A:00:00:00:00;1722729667;04/08/24;00:01:07;1.016;-0.024;0.103;-0.03420845419168472;-0.004886921960860491;-0.0012217304902151227
01:00:0A:00:00:00:00;1722729668;04/08/24;00:01:08;1.016;-0.02;0.1;-0.03298672288656235;-0.006108652334660292;0.0012217304902151227
01:00:0A:00:00:00:00;1722729669;04/08/24;00:01:09;1.016;-0.022;0.103;-0.03298672288656235;-0.009773843921720982;0.0
01:00:0A:00:00:00:00;1722729670;04/08/24;00:01:10;1.012;-0.022;0.103;-0.03176499158143997;-0.01710422709584236;-0.006108652334660292
01:00:0A:00:00:00:00;1722729671;04/08/24;00:01:11;1.011;-0.023;0.104;-0.030543262138962746;-0.00855211354792118;-0.0036651913542300463
01:00:0A:00:00:00:00;1722729672;04/08/24;00:01:12;1.008;-0.029;0.105;-0.02932153083384037;-0.004886921960860491;0.0036651913542300463
01:00:0A:00:00:00:00;1722729673;04/08/24;00:01:13;1.01;-0.027;0.102;-0.02932153083384037;-0.010995574295520782;0.006108652334660292
01:00:0A:00:00:00:00;1722729674;04/08/24;00:01:14;1.009;-0.023;0.102;-0.028099799528717995;-0.009773843921720982;0.014660765416920185
01:00:0A:00:00:00:00;1722729675;04/08/24;00:01:15;1.01;-0.024;0.105;-0.02687807008624077;-0.013439035043120384;0.00855211354792118
01:00:0A:00:00:00:00;1722729676;04/08/24;00:01:16;1.011;-0.019;0.105;-0.025656338781118393;-0.015882495790719986;-0.0012217304902151227
01:00:0A:00:00:00:00;1722729677;04/08/24;00:01:17;1.011;-0.02;0.106;-0.02321287989616394;-0.004886921960860491;-0.0012217304902151227
01:00:0A:00:00:00:00;1722729678;04/08/24;00:01:18;1.015;-0.025;0.106;-0.021991148591041565;-0.006108652334660292;-0.006108652334660292
01:00:0A:00:00:00:00;1722729679;04/08/24;00:01:19;1.018;-0.024;0.102;-0.02321287989616394;-0.012217304669320583;-0.0012217304902151227
01:00:0A:00:00:00:00;1722729680;04/08/24;00:01:20;1.02;-0.026;0.102;-0.024434609338641167;-0.009773843921720982;0.010995574295520782
01:00:0A:00:00:00:00;1722729681;04/08/24;00:01:21;1.017;-0.025;0.107;-0.024434609338641167;-0.013439035043120384;0.00855211354792118
01:00:0A:00:00:00:00;1722729682;04/08/24;00:01:22;1.015;-0.021;0.105;-0.02321287989616394;-0.010995574295520782;0.006108652334660292
01:00:0A:00:00:00:00;1722729683;04/08/24;00:01:23;1.006;-0.023;0.105;-0.024434609338641167;-0.0036651913542300463;0.010995574295520782
01:00:0A:00:00:00:00;1722729684;04/08/24;00:01:24;1.003;-0.024;0.104;-0.021991148591041565;-0.006108652334660292;0.0024434609804302454
01:00:0A:00:00:00:00;1722729685;04/08/24;00:01:25;1.004;-0.02;0.1;-0.021991148591041565;-0.015882495790719986;0.0
01:00:0A:00:00:00:00;1722729686;04/08/24;00:01:26;1.01;-0.022;0.101;-0.02076941914856434;-0.01710422709584236;0.0024434609804302454
01:00:0A:00:00:00:00;1722729687;04/08/24;00:01:27;1.02;-0.023;0.108;-0.018325956538319588;-0.018325956538319588;-0.0036651913542300463
01:00:0A:00:00:00:00;1722729688;04/08/24;00:01:28;1.023;-0.021;0.107;-0.018325956538319588;-0.0073303827084600925;0.0012217304902151227
01:00:0A:00:00:00:00;1722729689;04/08/24;00:01:29;1.019;-0.025;0.106;-0.01710422709584236;0.0012217304902151227;0.010995574295520782
01:00:0A:00:00:00:00;1722729690;04/08/24;00:01:30;1.006;-0.024;0.102;-0.015882495790719986;-0.0036651913542300463;0.0012217304902151227
01:00:0A:00:00:00:00;1722729691;04/08/24;00:01:31;1.001;-0.018;0.101;-0.015882495790719986;-0.010995574295520782;0.0036651913542300463
01:00:0A:00:00:00:00;1722729692;04/08/24;00:01:32;1.002;-0.023;0.1;-0.015882495790719986;-0.015882495790719986;0.006108652334660292
01:00:0A:00:00:00:00;1722729693;04/08/24;00:01:33;1.01;-0.023;0.104;-0.012217304669320583;-0.019547687843441963;-0.006108652334660292
01:00:0A:00:00:00:00;1722729694;04/08/24;00:01:34;1.021;-0.02;0.106;-0.013439035043120384;-0.01710422709584236;0.0
01:00:0A:00:00:00:00;1722729695;04/08/24;00:01:35;1.025;-0.026;0.106;-0.012217304669320583;-0.00855211354792118;0.004886921960860491
01:00:0A:00:00:00:00;1722729696;04/08/24;00:01:36;1.017;-0.024;0.106;-0.009773843921720982;-0.006108652334660292;0.0024434609804302454
01:00:0A:00:00:00:00;1722729697;04/08/24;00:01:37;1.008;-0.02;0.104;-0.010995574295520782;-0.009773843921720982;0.006108652334660292
01:00:0A:00:00:00:00;1722729698;04/08/24;00:01:38;1.006;-0.022;0.103;-0.009773843921720982;-0.00855211354792118;0.0073303827084600925
01:00:0A:00:00:00:00;1722729699;04/08/24;00:01:39;1.007;-0.022;0.103;-0.006108652334660292;-0.00855211354792118;-0.0036651913542300463
01:00:0A:00:00:00:00;1722729700;04/08/24;00:01:40;1.01;-0.02;0.102;-0.0073303827084600925;-0.010995574295520782;0.004886921960860491
01:00:0A:00:00:00:00;1722729701;04/08/24;00:01:41;1.014;-0.026;0.101;-0.006108652334660292;-0.012217304669320583;0.004886921960860491
01:00:0A:00:00:00:00;1722729702;04/08/24;00:01:42;1.012;-0.021;0.102;-0.0012217304902151227;-0.013439035043120384;-0.0036651913542300463
01:00:0A:00:00:00:00;1722729703;04/08/24;00:01:43;1.012;-0.02;0.103;-0.0036651913542300463;-0.01710422709584236;0.0036651913542300463
01:00:0A:00:00:00:00;1722729704;04/08/24;00:01:44;1.014;-0.025;0.102;0.0;-0.013439035043120384;0.0024434609804302454
01:00:0A:00:00:00:00;1722729705;04/08/24;00:01:45;1.02;-0.023;0.105;0.0024434609804302454;-0.00855211354792118;0.0
01:00:0A:00:00:00:00;1722729706;04/08/24;00:01:46;1.022;-0.021;0.102;0.0;-0.0073303827084600925;0.010995574295520782
01:00:0A:00:00:00:00;1722729707;04/08/24;00:01:47;1.019;-0.025;0.1;0.0024434609804302454;-0.00855211354792118;0.013439035043120384
01:00:0A:00:00:00:00;1722729708;04/08/24;00:01:48;1.008;-0.021;0.104;0.0036651913542300463;-0.010995574295520782;0.004886921960860491
01:00:0A:00:00:00:00;1722729709;04/08/24;00:01:49;1.001;-0.022;0.103;0.0012217304902151227;-0.015882495790719986;0.012217304669320583
01:00:0A:00:00:00:00;1722729710;04/08/24;00:01:50;1.0;-0.023;0.104;0.006108652334660292;-0.014660765416920185;0.0012217304902151227
01:00:0A:00:00:00:00;1722729711;04/08/24;00:01:51;1.003;-0.02;0.106;0.00855211354792118;-0.010995574295520782;-0.004886921960860491
01:00:0A:00:00:00:00;1722729712;04/08/24;00:01:52;1.017;-0.023;0.105;0.006108652334660292;-0.009773843921720982;0.0024434609804302454
01:00:0A:00:00:00:00;1722729713;04/08/24;00:01:53;1.024;-0.027;0.103;0.00855211354792118;-0.009773843921720982;0.0036651913542300463
01:00:0A:00:00:00:00;1722729714;04/08/24;00:01:54;1.025;-0.02;0.103;0.010995574295520782;-0.013439035043120384;0.0036651913542300463
01:00:0A:00:00:00:00;1722729715;04/08/24;00:01:55;1.017;-0.021;0.105;0.00855211354792118;-0.012217304669320583;0.013439035043120384
01:00:0A:00:00:00:00;1722729716;04/08/24;00:01:56;1.012;-0.023;0.103;0.010995574295520782;-0.0073303827084600925;0.009773843921720982
01:00:0A:00:00:00:00;1722729717;04/08/24;00:01:57;1.003;-0.018;0.104;0.013439035043120384;-0.006108652334660292;0.0012217304902151227
01:00:0A:00:00:00:00;1722729718;04/08/24;00:01:58;1.005;-0.02;0.1;0.010995574295520782;-0.009773843921720982;0.00855211354792118
01:00:0A:00:00:00:00;1722729719;04/08/24;00:01:59;1.006;-0.022;0.1;0.013439035043120384;-0.013439035043120384;-0.0012217304902151227
01:00:0A:00:00:00:00;1722729720;04/08/24;00:02:00;1.006;-0.019;0.101;0.012217304669320583;-0.019547687843441963;0.0
01:00:0A:00:00:00:00;1722729721;04/08/24;00:02:01;1.015;-0.021;0.104;0.009773843921720982;-0.021991148591041565;0.0073303827084600925
01:00:0A:00:00:00:00;1722729722;04/08/24;00:02:02;1.018;-0.023;0.107;0.012217304669320583;-0.00855211354792118;0.0
01:00:0A:00:00:00:00;1722729723;04/08/24;00:02:03;1.021;-0.019;0.108;0.012217304669320583;-0.004886921960860491;0.0012217304902151227
01:00:0A:00:00:00:00;1722729724;04/08/24;00:02:04;1.017;-0.024;0.102;0.00855211354792118;-0.004886921960860491;0.010995574295520782
01:00:0A:00:00:00:00;1722729725;04/08/24;00:02:05;1.015;-0.025;0.1;0.010995574295520782;-0.006108652334660292;0.006108652334660292
01:00:0A:00:00:00:00;1722729726;04/08/24;00:02:06;1.008;-0.02;0.101;0.009773843921720982;-0.013439035043120384;0.009773843921720982
01:00:0A:00:00:00:00;1722729727;04/08/24;00:02:07;1.007;-0.023;0.101;0.0073303827084600925;-0.018325956538319588;0.013439035043120384
01:00:0A:00:00:00:00;1722729728;04/08/24;00:02:08;1.005;-0.022;0.105;0.010995574295520782;-0.013439035043120384;0.0
01:00:0A:00:00:00:00;1722729729;04/08/24;00:02:09;1.007;-0.019;0.105;0.010995574295520782;-0.010995574295520782;0.004886921960860491
01:00:0A:00:00:00:00;1722729730;04/08/24;00:02:10;1.01;-0.022;0.102;0.010995574295520782;-0.010995574295520782;0.004886921960860491
01:00:0A:00:00:00:00;1722729731;04/08/24;00:02:11;1.016;-0.022;0.102;0.014660765416920185;-0.013439035043120384;-0.0024434609804302454
01:00:0A:00:00:00:00;1722729732;04/08/24;00:02:12;1.018;-0.02;0.103;0.013439035043120384;-0.015882495790719986;0.0036651913542300463
01:00:0A:00:00:00:00;1722729733;04/08/24;00:02:13;1.02;-0.024;0.103;0.014660765416920185;-0.012217304669320583;0.00855211354792118
01:00:0A:00:00:00:00;1722729734;04/08/24;00:02:14;1.019;-0.023;0.104;0.019547687843441963;-0.0073303827084600925;0.0012217304902151227
01:00:0A:00:00:00:00;1722729735;04/08/24;00:02:15;1.013;-0.019;0.105;0.019547687843441963;-0.0012217304902151227;0.006108652334660292
01:00:0A:00:00:00:00;1722729736;04/08/24;00:02:16;1.007;-0.025;0.1;0.02076941914856434;-0.0036651913542300463;0.009773843921720982
01:00:0A:00:00:00:00;1722729737;04/08/24;00:02:17;1.004;-0.023;0.099;0.025656338781118393;-0.010995574295520782;0.0012217304902151227
01:00:0A:00:00:00:00;1722729738;04/08/24;00:02:18;1.008;-0.021;0.1;0.024434609338641167;-0.019547687843441963;0.00855211354792118
01:00:0A:00:00:00:00;1722729739;04/08/24;00:02:19;1.015;-0.024;0.105;0.02687807008624077;-0.019547687843441963;0.004886921960860491
01:00:0A:00:00:00:00;1722729740;04/08/24;00:02:20;1.017;-0.021;0.107;0.030543262138962746;-0.009773843921720982;0.0012217304902151227
01:00:0A:00:00:00:00;1722729741;04/08/24;00:02:21;1.016;-0.02;0.106;0.02932153083384037;-0.006108652334660292;0.00855211354792118
01:00:0A:00:00:00:00;1722729742;04/08/24;00:02:22;1.01;-0.024;0.103;0.030543262138962746;-0.006108652334660292;0.0073303827084600925
01:00:0A:00:00:00:00;1722729743;04/08/24;00:02:23;1.008;-0.023;0.1;0.03298672288656235;-0.009773843921720982;0.0036651913542300463
01:00:0A:00:00:00:00;1722729744;04/08/24;00:02:24;1.012;-0.022;0.101;0.030543262138962746;-0.015882495790719986;0.012217304669320583
01:00:0A:00:00:00:00;1722729745;04/08/24;00:02:25;1.016;-0.027;0.104;0.03298672288656235;-0.01710422709584236;0.0073303827084600925
01:00:0A:00:00:00:00;1722729746;04/08/24;00:02:26;1.018;-0.021;0.105;0.03420845419168472;-0.010995574295520782;0.0073303827084600925
01:00:0A:00:00:00:00;1722729747;04/08/24;00:02:27;1.015;-0.021;0.105;0.03298672288656235;-0.004886921960860491;0.013439035043120384
01:00:0A:00:00:00:00;1722729748;04/08/24;00:02:28;1.012;-0.024;0.104;0.0354301817715168;-0.0073303827084600925;0.006108652334660292
01:00:0A:00:00:00:00;1722729749;04/08/24;00:02:29;1.007;-0.021;0.101;0.03787364438176155;-0.010995574295520782;0.0024434609804302454
01:00:0A:00:00:00:00;1722729750;04/08/24;00:02:30;1.008;-0.023;0.102;0.0354301817715168;-0.014660765416920185;0.010995574295520782
01:00:0A:00:00:00:00;1722729751;04/08/24;00:02:31;1.012;-0.026;0.104;0.036651913076639175;-0.01710422709584236;0.006108652334660292
01:00:0A:00:00:00:00;1722729752;04/08/24;00:02:32;1.015;-0.021;0.105;0.03787364438176155;-0.014660765416920185;0.006108652334660292
01:00:0A:00:00:00:00;1722729753;04/08/24;00:02:33;1.015;-0.023;0.105;0.036651913076639175;-0.0073303827084600925;0.012217304669320583
01:00:0A:00:00:00:00;1722729754;04/08/24;00:02:34;1.014;-0.023;0.105;0.03787364438176155;-0.00855211354792118;0.0036651913542300463
01:00:0A:00:00:00:00;1722729755;04/08/24;00:02:35;1.012;-0.022;0.102;0.039095375686883926;-0.009773843921720982;0.0012217304902151227
01:00:0A:00:00:00:00;1722729756;04/08/24;00:02:36;1.012;-0.024;0.103;0.036651913076639175;-0.010995574295520782;0.009773843921720982
01:00:0A:00:00:00:00;1722729757;04/08/24;00:02:37;1.015;-0.024;0.104;0.03787364438176155;-0.014660765416920185;0.0073303827084600925
01:00:0A:00:00:00:00;1722729758;04/08/24;00:02:38;1.015;-0.019;0.104;0.03787364438176155;-0.013439035043120384;0.0073303827084600925
01:00:0A:00:00:00:00;1722729759;04/08/24;00:02:39;1.015;-0.022;0.106;0.036651913076639175;-0.009773843921720982;0.010995574295520782
01:00:0A:00:00:00:00;1722729760;04/08/24;00:02:40;1.011;-0.022;0.104;0.03787364438176155;-0.009773843921720982;0.004886921960860491
01:00:0A:00:00:00:00;1722729761;04/08/24;00:02:41;1.01;-0.021;0.103;0.03787364438176155;-0.00855211354792118;0.004886921960860491
01:00:0A:00:00:00:00;1722729762;04/08/24;00:02:42;1.008;-0.022;0.103;0.036651913076639175;-0.009773843921720982;0.00855211354792118
01:00:0A:00:00:00:00;1722729763;04/08/24;00:02:43;1.009;-0.024;0.104;0.036651913076639175;-0.014660765416920185;0.004886921960860491
01:00:0A:00:00:00:00;1722729764;04/08/24;00:02:44;1.015;-0.021;0.102;0.036651913076639175;-0.010995574295520782;0.009773843921720982
01:00:0A:00:00:00:00;1722729765;04/08/24;00:02:45;1.018;-0.02;0.105;0.0354301817715168;-0.009773843921720982;0.009773843921720982
01:00:0A:00:00:00:00;1722729766;04/08/24;00:02:46;1.016;-0.021;0.106;0.036651913076639175;-0.012217304669320583;0.004886921960860491
01:00:0A:00:00:00:00;1722729767;04/08/24;00:02:47;1.012;-0.021;0.103;0.036651913076639175;-0.0073303827084600925;0.004886921960860491
01:00:0A:00:00:00:00;1722729768;04/08/24;00:02:48;1.009;-0.023;0.105;0.0354301817715168;-0.006108652334660292;0.00855211354792118
01:00:0A:00:00:00:00;1722729769;04/08/24;00:02:49;1.007;-0.023;0.102;0.0354301817715168;-0.013439035043120384;0.004886921960860491
01:00:0A:00:00:00:00;1722729770;04/08/24;00:02:50;1.01;-0.02;0.099;0.0354301817715168;-0.012217304669320583;0.004886921960860491
01:00:0A:00:00:00:00;1722729771;04/08/24;00:02:51;1.015;-0.021;0.104;0.03420845419168472;-0.015882495790719986;0.004886921960860491
01:00:0A:00:00:00:00;1722729772;04/08/24;00:02:52;1.017;-0.022;0.105;0.03420845419168472;-0.018325956538319588;0.0024434609804302454
01:00:0A:00:00:00:00;1722729773;04/08/24;00:02:53;1.017;-0.021;0.104;0.03420845419168472;-0.010995574295520782;0.004886921960860491
01:00:0A:00:00:00:00;1722729774;04/08/24;00:02:54;1.015;-0.023;0.105;0.03298672288656235;-0.00855211354792118;0.00855211354792118
01:00:0A:00:00:00:00;1722729775;04/08/24;00:02:55;1.014;-0.022;0.104;0.03298672288656235;-0.010995574295520782;0.006108652334660292
01:00:0A:00:00:00:00;1722729776;04/08/24;00:02:56;1.011;-0.02;0.102;0.03176499158143997;-0.00855211354792118;0.006108652334660292
01:00:0A:00:00:00:00;1722729777;04/08/24;00:02:57;1.008;-0.021;0.103;0.030543262138962746;-0.010995574295520782;0.006108652334660292
01:00:0A:00:00:00:00;1722729778;04/08/24;00:02:58;1.009;-0.022;0.102;0.030543262138962746;-0.014660765416920185;0.0024434609804302454
01:00:0A:00:00:00:00;1722729779;04/08/24;00:02:59;1.01;-0.022;0.103;0.02932153083384037;-0.012217304669320583;0.0024434609804302454
01:00:0A:00:00:00:00;1722729780;04/08/24;00:03:00;1.014;-0.025;0.105;0.028099799528717995;-0.013439035043120384;0.006108652334660292
01:00:0A:00:00:00:00;1722729781;04/08/24;00:03:01;1.016;-0.023;0.103;0.02687807008624077;-0.014660765416920185;0.0073303827084600925
01:00:0A:00:00:00:00;1722729782;04/08/24;00:03:02;1.016;-0.021;0.102;0.02687807008624077;-0.013439035043120384;0.0073303827084600925
01:00:0A:00:00:00:00;1722729783;04/08/24;00:03:03;1.015;-0.021;0.104;0.02687807008624077;-0.013439035043120384;0.0073303827084600925
01:00:0A:00:00:00:00;1722729784;04/08/24;00:03:04;1.013;-0.021;0.104;0.028099799528717995;-0.013439035043120384;0.004886921960860491
01:00:0A:00:00:00:00;1722729785;04/08/24;00:03:05;1.011;-0.021;0.103;0.02687807008624077;-0.00855211354792118;0.006108652334660292
01:00:0A:00:00:00:00;1722729786;04/08/24;00:03:06;1.011;-0.022;0.103;0.02687807008624077;-0.010995574295520782;0.006108652334660292
01:00:0A:00:00:00:00;1722729787;04/08/24;00:03:07;1.012;-0.022;0.1;0.02687807008624077;-0.013439035043120384;0.0073303827084600925
01:00:0A:00:00:00:00;1722729788;04/08/24;00:03:08;1.013;-0.02;0.103;0.028099799528717995;-0.010995574295520782;0.006108652334660292
01:00:0A:00:00:00:00;1722729789;04/08/24;00:03:09;1.012;-0.022;0.104;0.02687807008624077;-0.013439035043120384;0.0036651913542300463
01:00:0A:00:00:00:00;1722729790;04/08/24;00:03:10;1.013;-0.022;0.102;0.02687807008624077;-0.015882495790719986;0.0024434609804302454
01:00:0A:00:00:00:00;1722729791;04/08/24;00:03:11;1.013;-0.024;0.103;0.02687807008624077;-0.012217304669320583;0.004886921960860491
01:00:0A:00:00:00:00;1722729792;04/08/24;00:03:12;1.014;-0.022;0.104;0.025656338781118393;-0.012217304669320583;0.010995574295520782
01:00:0A:00:00:00:00;1722729793;04/08/24;00:03:13;1.014;-0.022;0.103;0.025656338781118393;-0.012217304669320583;0.009773843921720982
01:00:0A:00:00:00:00;1722729794;04/08/24;00:03:14;1.012;-0.02;0.103;0.025656338781118393;-0.009773843921720982;0.009773843921720982
01:00:0A:00:00:00:00;1722729795;04/08/24;00:03:15;1.011;-0.019;0.103;0.025656338781118393;-0.012217304669320583;0.0073303827084600925
01:00:0A:00:00:00:00;1722729796;04/08/24;00:03:16;1.013;-0.021;0.103;0.025656338781118393;-0.013439035043120384;0.0036651913542300463
01:00:0A:00:00:00:00;1722729797;04/08/24;00:03:17;1.016;-0.022;0.102;0.02687807008624077;-0.012217304669320583;0.0024434609804302454
01:00:0A:00:00:00:00;1722729798;04/08/24;00:03:18;1.018;-0.022;0.104;0.025656338781118393;-0.010995574295520782;0.0073303827084600925
01:00:0A:00:00:00:00;1722729799;04/08/24;00:03:19;1.018;-0.022;0.103;0.024434609338641167;-0.009773843921720982;0.009773843921720982
01:00:0A:00:00:00:00;1722729800;04/08/24;00:03:20;1.01;-0.021;0.103;0.024434609338641167;-0.009773843921720982;0.00855211354792118
01:00:0A:00:00:00:00;1722729801;04/08/24;00:03:21;1.005;-0.022;0.103;0.024434609338641167;-0.012217304669320583;0.0073303827084600925
01:00:0A:00:00:00:00;1722729802;04/08/24;00:03:22;1.006;-0.022;0.102;0.024434609338641167;-0.014660765416920185;0.0036651913542300463
01:00:0A:00:00:00:00;1722729803;04/08/24;00:03:23;1.013;-0.021;0.103;0.024434609338641167;-0.014660765416920185;0.0024434609804302454
01:00:0A:00:00:00:00;1722729804;04/08/24;00:03:24;1.016;-0.023;0.104;0.024434609338641167;-0.014660765416920185;0.0024434609804302454
01:00:0A:00:00:00:00;1722729805;04/08/24;00:03:25;1.02;-0.022;0.105;0.024434609338641167;-0.010995574295520782;0.006108652334660292
01:00:0A:00:00:00:00;1722729806;04/08/24;00:03:26;1.018;-0.021;0.104;0.024434609338641167;-0.009773843921720982;0.004886921960860491
01:00:0A:00:00:00:00;1722729807;04/08/24;00:03:27;1.013;-0.023;0.104;0.024434609338641167;-0.010995574295520782;0.0073303827084600925
01:00:0A:00:00:00:00;1722729808;04/08/24;00:03:28;1.009;-0.022;0.102;0.025656338781118393;-0.010995574295520782;0.0073303827084600925
01:00:0A:00:00:00:00;1722729809;04/08/24;00:03:29;1.008;-0.021;0.103;0.025656338781118393;-0.012217304669320583;0.00855211354792118
01:00:0A:00:00:00:00;1722729810;04/08/24;00:03:30;1.015;-0.021;0.103;0.025656338781118393;-0.012217304669320583;0.006108652334660292
01:00:0A:00:00:00:00;1722729811;04/08/24;00:03:31;1.016;-0.021;0.103;0.025656338781118393;-0.012217304669320583;0.0036651913542300463
01:00:0A:00:00:00:00;1722729812;04/08/24;00:03:32;1.016;-0.021;0.104;0.025656338781118393;-0.010995574295520782;0.0036651913542300463
01:00:0A:00:00:00:00;1722729813;04/08/24;00:03:33;1.014;-0.022;0.102;0.02687807008624077;-0.012217304669320583;0.0036651913542300463
01:00:0A:00:00:00:00;1722729814;04/08/24;00:03:34;1.01;-0.023;0.103;0.02687807008624077;-0.012217304669320583;0.004886921960860491
01:00:0A:00:00:00:00;1722729815;04/08/24;00:03:35;1.009;-0.023;0.102;0.02687807008624077;-0.012217304669320583;0.0073303827084600925
01:00:0A:00:00:00:00;1722729816;04/08/24;00:03:36;1.012;-0.021;0.103;0.025656338781118393;-0.013439035043120384;0.00855211354792118
01:00:0A:00:00:00:00;1722729817;04/08/24;00:03:37;1.015;-0.021;0.103;0.02687807008624077;-0.012217304669320583;0.004886921960860491
01:00:0A:00:00:00:00;1722729818;04/08/24;00:03:38;1.015;-0.021;0.103;0.02687807008624077;-0.012217304669320583;0.004886921960860491
01:00:0A:00:00:00:00;1722729819;04/08/24;00:03:39;1.014;-0.022;0.103;0.02687807008624077;-0.012217304669320583;0.006108652334660292
01:00:0A:00:00:00:00;1722729820;04/08/24;00:03:40;1.012;-0.022;0.105;0.02687807008624077;-0.012217304669320583;0.004886921960860491
01:00:0A:00:00:00:00;1722729821;04/08/24;00:03:41;1.011;-0.022;0.105;0.02687807008624077;-0.010995574295520782;0.006108652334660292
01:00:0A:00:00:00:00;1722729822;04/08/24;00:03:42;1.011;-0.024;0.104;0.02687807008624077;-0.009773843921720982;0.006108652334660292
01:00:0A:00:00:00:00;1722729823;04/08/24;00:03:43;1.012;-0.022;0.103;0.025656338781118393;-0.010995574295520782;0.006108652334660292
01:00:0A:00:00:00:00;1722729824;04/08/24;00:03:44;1.013;-0.021;0.103;0.025656338781118393;-0.014660765416920185;0.006108652334660292
01:00:0A:00:00:00:00;1722729825;04/08/24;00:03:45;1.013;-0.022;0.102;0.025656338781118393;-0.014660765416920185;0.006108652334660292
01:00:0A:00:00:00:00;1722729826;04/08/24;00:03:46;1.012;-0.023;0.105;0.025656338781118393;-0.014660765416920185;0.004886921960860491
01:00:0A:00:00:00:00;1722729827;04/08/24;00:03:47;1.013;-0.022;0.105;0.024434609338641167;-0.013439035043120384;0.006108652334660292
01:00:0A:00:00:00:00;1722729828;04/08/24;00:03:48;1.013;-0.022;0.105;0.024434609338641167;-0.009773843921720982;0.006108652334660292
01:00:0A:00:00:00:00;1722729829;04/08/24;00:03:49;1.013;-0.023;0.104;0.024434609338641167;-0.009773843921720982;0.0073303827084600925
01:00:0A:00:00:00:00;1722729830;04/08/24;00:03:50;1.014;-0.022;0.103;0.02321287989616394;-0.010995574295520782;0.0073303827084600925
01:00:0A:00:00:00:00;1722729831;04/08/24;00:03:51;1.014;-0.022;0.103;0.02321287989616394;-0.010995574295520782;0.006108652334660292
01:00:0A:00:00:00:00;1722729832;04/08/24;00:03:52;1.012;-0.023;0.102;0.02321287989616394;-0.012217304669320583;0.006108652334660292
01:00:0A:00:00:00:00;1722729833;04/08/24;00:03:53;1.013;-0.022;0.102;0.02321287989616394;-0.012217304669320583;0.006108652334660292
01:00:0A:00:00:00:00;1722729834;04/08/24;00:03:54;1.013;-0.024;0.103;0.02321287989616394;-0.010995574295520782;0.004886921960860491
01:00:0A:00:00:00:00;1722729835;04/08/24;00:03:55;1.013;-0.023;0.104;0.02321287989616394;-0.012217304669320583;0.006108652334660292
01:00:0A:00:00:00:00;1722729836;04/08/24;00:03:56;1.012;-0.023;0.105;0.021991148591041565;-0.013439035043120384;0.00855211354792118
01:00:0A:00:00:00:00;1722729837;04/08/24;00:03:57;1.011;-0.023;0.104;0.021991148591041565;-0.013439035043120384;0.0073303827084600925
01:00:0A:00:00:00:00;1722729838;04/08/24;00:03:58;1.011;-0.021;0.104;0.021991148591041565;-0.012217304669320583;0.004886921960860491
01:00:0A:00:00:00:00;1722729839;04/08/24;00:03:59;1.014;-0.022;0.105;0.02076941914856434;-0.010995574295520782;0.004886921960860491
01:00:0A:00:00:00:00;1722729840;04/08/24;00:04:00;1.014;-0.022;0.104;0.019547687843441963;-0.009773843921720982;0.0036651913542300463
01:00:0A:00:00:00:00;1722729841;04/08/24;00:04:01;1.014;-0.022;0.104;0.018325956538319588;-0.010995574295520782;0.0036651913542300463
01:00:0A:00:00:00:00;1722729842;04/08/24;00:04:02;1.014;-0.023;0.104;0.01710422709584236;-0.013439035043120384;0.006108652334660292
01:00:0A:00:00:00:00;1722729843;04/08/24;00:04:03;1.014;-0.023;0.105;0.015882495790719986;-0.012217304669320583;0.004886921960860491
01:00:0A:00:00:00:00;1722729844;04/08/24;00:04:04;1.013;-0.021;0.105;0.014660765416920185;-0.010995574295520782;0.004886921960860491
01:00:0A:00:00:00:00;1722729845;04/08/24;00:04:05;1.013;-0.022;0.104;0.013439035043120384;-0.009773843921720982;0.006108652334660292
01:00:0A:00:00:00:00;1722729846;04/08/24;00:04:06;1.011;-0.022;0.103;0.012217304669320583;-0.00855211354792118;0.004886921960860491
01:00:0A:00:00:00:00;1722729847;04/08/24;00:04:07;1.01;-0.021;0.103;0.010995574295520782;-0.010995574295520782;0.006108652334660292
01:00:0A:00:00:00:00;1722729848;04/08/24;00:04:08;1.012;-0.022;0.104;0.009773843921720982;-0.012217304669320583;0.004886921960860491
01:00:0A:00:00:00:00;1722729849;04/08/24;00:04:09;1.012;-0.021;0.105;0.009773843921720982;-0.012217304669320583;0.0024434609804302454
01:00:0A:00:00:00:00;1722729850;04/08/24;00:04:10;1.015;-0.023;0.106;0.00855211354792118;-0.012217304669320583;0.0036651913542300463
01:00:0A:00:00:00:00;1722729851;04/08/24;00:04:11;1.016;-0.022;0.103;0.00855211354792118;-0.009773843921720982;0.0036651913542300463
01:00:0A:00:00:00:00;1722729852;04/08/24;00:04:12;1.014;-0.023;0.103;0.0073303827084600925;-0.00855211354792118;0.004886921960860491
01:00:0A:00:00:00:00;1722729853;04/08/24;00:04:13;1.011;-0.022;0.103;0.006108652334660292;-0.012217304669320583;0.0073303827084600925
01:00:0A:00:00:00:00;1722729854;04/08/24;00:04:14;1.012;-0.022;0.103;0.006108652334660292;-0.013439035043120384;0.004886921960860491
01:00:0A:00:00:00:00;1722729855;04/08/24;00:04:15;1.013;-0.021;0.104;0.0073303827084600925;-0.010995574295520782;0.0012217304902151227
01:00:0A:00:00:00:00;1722729856;04/08/24;00:04:16;1.015;-0.022;0.106;0.004886921960860491;-0.012217304669320583;0.0036651913542300463
01:00:0A:00:00:00:00;1722729857;04/08/24;00:04:17;1.014;-0.023;0.103;0.004886921960860491;-0.009773843921720982;0.006108652334660292
01:00:0A:00:00:00:00;1722729858;04/08/24;00:04:18;1.012;-0.023;0.103;0.004886921960860491;-0.00855211354792118;0.004886921960860491
01:00:0A:00:00:00:00;1722729859;04/08/24;00:04:19;1.01;-0.022;0.102;0.0036651913542300463;-0.012217304669320583;0.0073303827084600925
01:00:0A:00:00:00:00;1722729860;04/08/24;00:04:20;1.008;-0.021;0.101;0.0036651913542300463;-0.013439035043120384;0.004886921960860491
01:00:0A:00:00:00:00;1722729861;04/08/24;00:04:21;1.013;-0.021;0.105;0.0036651913542300463;-0.013439035043120384;0.0012217304902151227
01:00:0A:00:00:00:00;1722729862;04/08/24;00:04:22;1.017;-0.021;0.105;0.0036651913542300463;-0.012217304669320583;0.0024434609804302454
01:00:0A:00:00:00:00;1722729863;04/08/24;00:04:23;1.018;-0.023;0.105;0.0036651913542300463;-0.009773843921720982;0.0036651913542300463
01:00:0A:00:00:00:00;1722729864;04/08/24;00:04:24;1.015;-0.021;0.105;0.0024434609804302454;-0.00855211354792118;0.006108652334660292
01:00:0A:00:00:00:00;1722729865;04/08/24;00:04:25;1.013;-0.022;0.104;0.0012217304902151227;-0.010995574295520782;0.0073303827084600925
01:00:0A:00:00:00:00;1722729866;04/08/24;00:04:26;1.008;-0.022;0.102;0.0024434609804302454;-0.010995574295520782;0.0036651913542300463
01:00:0A:00:00:00:00;1722729867;04/08/24;00:04:27;1.009;-0.02;0.102;0.0024434609804302454;-0.010995574295520782;0.0024434609804302454
01:00:0A:00:00:00:00;1722729868;04/08/24;00:04:28;1.013;-0.022;0.103;0.0012217304902151227;-0.013439035043120384;0.0024434609804302454
01:00:0A:00:00:00:00;1722729869;04/08/24;00:04:29;1.015;-0.023;0.104;0.0036651913542300463;-0.010995574295520782;0.0012217304902151227
01:00:0A:00:00:00:00;1722729870;04/08/24;00:04:30;1.016;-0.023;0.106;0.0024434609804302454;-0.010995574295520782;0.006108652334660292
01:00:0A:00:00:00:00;1722729871;04/08/24;00:04:31;1.014;-0.021;0.104;0.0012217304902151227;-0.010995574295520782;0.0073303827084600925
01:00:0A:00:00:00:00;1722729872;04/08/24;00:04:32;1.012;-0.022;0.103;0.0024434609804302454;-0.00855211354792118;0.004886921960860491
01:00:0A:00:00:00:00;1722729873;04/08/24;00:04:33;1.008;-0.021;0.104;0.0024434609804302454;-0.010995574295520782;0.0036651913542300463
01:00:0A:00:00:00:00;1722729874;04/08/24;00:04:34;1.009;-0.022;0.103;0.0024434609804302454;-0.014660765416920185;0.0036651913542300463
01:00:0A:00:00:00:00;1722729875;04/08/24;00:04:35;1.013;-0.022;0.103;0.0036651913542300463;-0.010995574295520782;0.0012217304902151227
01:00:0A:00:00:00:00;1722729876;04/08/24;00:04:36;1.015;-0.022;0.104;0.0024434609804302454;-0.012217304669320583;0.0036651913542300463
01:00:0A:00:00:00:00;1722729877;04/08/24;00:04:37;1.016;-0.024;0.103;0.0024434609804302454;-0.013439035043120384;0.006108652334660292
01:00:0A:00:00:00:00;1722729878;04/08/24;00:04:38;1.013;-0.022;0.104;0.0036651913542300463;-0.009773843921720982;0.0036651913542300463
01:00:0A:00:00:00:00;1722729879;04/08/24;00:04:39;1.011;-0.02;0.105;0.0024434609804302454;-0.010995574295520782;0.0036651913542300463
01:00:0A:00:00:00:00;1722729880;04/08/24;00:04:40;1.012;-0.023;0.103;0.0024434609804302454;-0.013439035043120384;0.004886921960860491
01:00:0A:00:00:00:00;1722729881;04/08/24;00:04:41;1.013;-0.02;0.104;0.0036651913542300463;-0.009773843921720982;0.0024434609804302454
01:00:0A:00:00:00:00;1722729882;04/08/24;00:04:42;1.015;-0.022;0.106;0.0024434609804302454;-0.010995574295520782;0.004886921960860491
01:00:0A:00:00:00:00;1722729883;04/08/24;00:04:43;1.014;-0.022;0.103;0.0024434609804302454;-0.010995574295520782;0.004886921960860491
01:00:0A:00:00:00:00;1722729884;04/08/24;00:04:44;1.012;-0.022;0.104;0.0024434609804302454;-0.00855211354792118;0.0036651913542300463
01:00:0A:00:00:00:00;1722729885;04/08/24;00:04:45;1.009;-0.021;0.105;0.0024434609804302454;-0.012217304669320583;0.004886921960860491
01:00:0A:00:00:00:00;1722729886;04/08/24;00:04:46;1.012;-0.022;0.102;0.0024434609804302454;-0.014660765416920185;0.0024434609804302454
01:00:0A:00:00:00:00;1722729887;04/08/24;00:04:47;1.014;-0.022;0.104;0.0036651913542300463;-0.010995574295520782;0.0012217304902151227
01:00:0A:00:00:00:00;1722729888;04/08/24;00:04:48;1.016;-0.022;0.106;0.0012217304902151227;-0.012217304669320583;0.004886921960860491
01:00:0A:00:00:00:00;1722729889;04/08/24;00:04:49;1.016;-0.023;0.103;0.0024434609804302454;-0.010995574295520782;0.004886921960860491
01:00:0A:00:00:00:00;1722729890;04/08/24;00:04:50;1.014;-0.022;0.103;0.0024434609804302454;-0.0073303827084600925;0.004886921960860491
01:00:0A:00:00:00:00;1722729891;04/08/24;00:04:51;1.01;-0.021;0.103;0.0012217304902151227;-0.013439035043120384;0.0073303827084600925
01:00:0A:00:00:00:00;1722729892;04/08/24;00:04:52;1.011;-0.021;0.103;0.0012217304902151227;-0.012217304669320583;0.0036651913542300463
01:00:0A:00:00:00:00;1722729893;04/08/24;00:04:53;1.012;-0.021;0.104;0.0024434609804302454;-0.010995574295520782;0.0024434609804302454
01:00:0A:00:00:00:00;1722729894;04/08/24;00:04:54;1.013;-0.023;0.105;0.0012217304902151227;-0.013439035043120384;0.004886921960860491
01:00:0A:00:00:00:00;1722729895;04/08/24;00:04:55;1.015;-0.022;0.104;0.0012217304902151227;-0.010995574295520782;0.0036651913542300463
01:00:0A:00:00:00:00;1722729896;04/08/24;00:04:56;1.013;-0.023;0.105;0.0012217304902151227;-0.00855211354792118;0.0036651913542300463
01:00:0A:00:00:00:00;1722729897;04/08/24;00:04:57;1.012;-0.022;0.103;0.0;-0.012217304669320583;0.004886921960860491
01:00:0A:00:00:00:00;1722729898;04/08/24;00:04:58;1.013;-0.023;0.102;0.0012217304902151227;-0.012217304669320583;0.0024434609804302454
01:00:0A:00:00:00:00;1722729899;04/08/24;00:04:59;1.015;-0.021;0.105;0.0012217304902151227;-0.009773843921720982;0.0024434609804302454
01:00:0A:00:00:00:00;1722729900;04/08/24;00:05:00;1.015;-0.023;0.105;0.0;-0.013439035043120384;0.006108652334660292
01:00:0A:00:00:00:00;1722729901;04/08/24;00:05:01;1.014;-0.023;0.103;0.0;-0.009773843921720982;0.004886921960860491
01:00:0A:00:00:00:00;1722729902;04/08/24;00:05:02;1.012;-0.021;0.105;0.0;-0.009773843921720982;0.004886921960860491
01:00:0A:00:00:00:00;1722729903;04/08/24;00:05:03;1.01;-0.022;0.103;-0.0012217304902151227;-0.013439035043120384;0.006108652334660292
01:00:0A:00:00:00:00;1722729904;04/08/24;00:05:04;1.011;-0.022;0.103;0.0012217304902151227;-0.010995574295520782;0.0012217304902151227
01:00:0A:00:00:00:00;1722729905;04/08/24;00:05:05;1.015;-0.021;0.105;0.0;-0.010995574295520782;0.0024434609804302454
01:00:0A:00:00:00:00;1722729906;04/08/24;00:05:06;1.015;-0.022;0.104;-0.0012217304902151227;-0.013439035043120384;0.004886921960860491
01:00:0A:00:00:00:00;1722729907;04/08/24;00:05:07;1.016;-0.022;0.103;0.0;-0.00855211354792118;0.0036651913542300463
01:00:0A:00:00:00:00;1722729908;04/08/24;00:05:08;1.013;-0.02;0.105;-0.0012217304902151227;-0.009773843921720982;0.004886921960860491
01:00:0A:00:00:00:00;1722729909;04/08/24;00:05:09;1.012;-0.022;0.103;-0.0012217304902151227;-0.013439035043120384;0.004886921960860491
01:00:0A:00:00:00:00;1722729910;04/08/24;00:05:10;1.011;-0.021;0.102;0.0;-0.009773843921720982;0.0012217304902151227
01:00:0A:00:00:00:00;1722729911;04/08/24;00:05:11;1.015;-0.021;0.105;-0.0012217304902151227;-0.012217304669320583;0.0036651913542300463
01:00:0A:00:00:00:00;1722729912;04/08/24;00:05:12;1.016;-0.023;0.104;-0.0024434609804302454;-0.013439035043120384;0.004886921960860491
01:00:0A:00:00:00:00;1722729913;04/08/24;00:05:13;1.013;-0.022;0.104;-0.0012217304902151227;-0.0073303827084600925;0.004886921960860491
01:00:0A:00:00:00:00;1722729914;04/08/24;00:05:14;1.011;-0.021;0.104;-0.0012217304902151227;-0.009773843921720982;0.004886921960860491
01:00:0A:00:00:00:00;1722729915;04/08/24;00:05:15;1.01;-0.022;0.102;-0.0024434609804302454;-0.012217304669320583;0.0036651913542300463
01:00:0A:00:00:00:00;1722729916;04/08/24;00:05:16;1.012;-0.021;0.102;0.0;-0.009773843921720982;0.0
01:00:0A:00:00:00:00;1722729917;04/08/24;00:05:17;1.014;-0.022;0.105;-0.0024434609804302454;-0.014660765416920185;0.0024434609804302454
01:00:0A:00:00:00:00;1722729918;04/08/24;00:05:18;1.015;-0.024;0.104;-0.0024434609804302454;-0.013439035043120384;0.0036651913542300463
01:00:0A:00:00:00:00;1722729919;04/08/24;00:05:19;1.016;-0.023;0.105;-0.0012217304902151227;-0.00855211354792118;0.0036651913542300463
01:00:0A:00:00:00:00;1722729920;04/08/24;00:05:20;1.014;-0.021;0.104;-0.0024434609804302454;-0.010995574295520782;0.006108652334660292
01:00:0A:00:00:00:00;1722729921;04/08/24;00:05:21;1.013;-0.022;0.103;-0.0024434609804302454;-0.010995574295520782;0.006108652334660292
01:00:0A:00:00:00:00;1722729922;04/08/24;00:05:22;1.011;-0.02;0.103;-0.0012217304902151227;-0.009773843921720982;0.0012217304902151227
01:00:0A:00:00:00:00;1722729923;04/08/24;00:05:23;1.012;-0.022;0.104;-0.0024434609804302454;-0.013439035043120384;0.0036651913542300463
01:00:0A:00:00:00:00;1722729924;04/08/24;00:05:24;1.012;-0.023;0.103;-0.0024434609804302454;-0.012217304669320583;0.0024434609804302454
01:00:0A:00:00:00:00;1722729925;04/08/24;00:05:25;1.013;-0.023;0.105;-0.0012217304902151227;-0.00855211354792118;0.0024434609804302454
01:00:0A:00:00:00:00;1722729926;04/08/24;00:05:26;1.013;-0.021;0.105;-0.0036651913542300463;-0.012217304669320583;0.006108652334660292
01:00:0A:00:00:00:00;1722729927;04/08/24;00:05:27;1.013;-0.022;0.102;-0.0024434609804302454;-0.009773843921720982;0.0036651913542300463
01:00:0A:00:00:00:00;1722729928;04/08/24;00:05:28;1.012;-0.021;0.103;-0.0012217304902151227;-0.009773843921720982;0.0024434609804302454
01:00:0A:00:00:00:00;1722729929;04/08/24;00:05:29;1.013;-0.02;0.103;-0.0024434609804302454;-0.015882495790719986;0.0036651913542300463
01:00:0A:00:00:00:00;1722729930;04/08/24;00:05:30;1.014;-0.022;0.103;-0.0012217304902151227;-0.010995574295520782;0.0024434609804302454
01:00:0A:00:00:00:00;1722729931;04/08/24;00:05:31;1.014;-0.021;0.106;-0.0012217304902151227;-0.00855211354792118;0.0036651913542300463
01:00:0A:00:00:00:00;1722729932;04/08/24;00:05:32;1.013;-0.021;0.104;-0.0024434609804302454;-0.012217304669320583;0.0073303827084600925
01:00:0A:00:00:00:00;1722729933;04/08/24;00:05:33;1.013;-0.023;0.102;-0.0012217304902151227;-0.00855211354792118;0.004886921960860491
01:00:0A:00:00:00:00;1722729934;04/08/24;00:05:34;1.012;-0.021;0.104;-0.0012217304902151227;-0.009773843921720982;0.0036651913542300463
01:00:0A:00:00:00:00;1722729935;04/08/24;00:05:35;1.012;-0.021;0.103;-0.0024434609804302454;-0.015882495790719986;0.0036651913542300463
01:00:0A:00:00:00:00;1722729936;04/08/24;00:05:36;1.014;-0.023;0.103;0.0;-0.009773843921720982;0.0024434609804302454
01:00:0A:00:00:00:00;1722729937;04/08/24;00:05:37;1.015;-0.022;0.106;-0.0012217304902151227;-0.009773843921720982;0.0036651913542300463
01:00:0A:00:00:00:00;1722729938;04/08/24;00:05:38;1.015;-0.022;0.104;-0.0024434609804302454;-0.012217304669320583;0.0073303827084600925
01:00:0A:00:00:00:00;1722729939;04/08/24;00:05:39;1.013;-0.023;0.103;0.0;-0.0073303827084600925;0.004886921960860491
01:00:0A:00:00:00:00;1722729940;04/08/24;00:05:40;1.011;-0.021;0.104;-0.0012217304902151227;-0.009773843921720982;0.0036651913542300463
01:00:0A:00:00:00:00;1722729941;04/08/24;00:05:41;1.012;-0.022;0.103;-0.0012217304902151227;-0.014660765416920185;0.0036651913542300463
01:00:0A:00:00:00:00;1722729942;04/08/24;00:05:42;1.012;-0.022;0.103;0.0;-0.009773843921720982;0.0012217304902151227
01:00:0A:00:00:00:00;1722729943;04/08/24;00:05:43;1.013;-0.022;0.106;0.0;-0.009773843921720982;0.0024434609804302454
01:00:0A:00:00:00:00;1722729944;04/08/24;00:05:44;1.014;-0.022;0.102;-0.0012217304902151227;-0.012217304669320583;0.004886921960860491
01:00:0A:00:00:00:00;1722729945;04/08/24;00:05:45;1.013;-0.022;0.103;0.0;-0.0073303827084600925;0.0036651913542300463
01:00:0A:00:00:00:00;1722729946;04/08/24;00:05:46;1.014;-0.021;0.104;0.0;-0.012217304669320583;0.004886921960860491
01:00:0A:00:00:00:00;1722729947;04/08/24;00:05:47;1.013;-0.023;0.102;0.0;-0.013439035043120384;0.0036651913542300463
01:00:0A:00:00:00:00;1722729948;04/08/24;00:05:48;1.013;-0.023;0.103;0.0024434609804302454;-0.00855211354792118;0.0012217304902151227
01:00:0A:00:00:00:00;1722729949;04/08/24;00:05:49;1.013;-0.023;0.106;0.0012217304902151227;-0.012217304669320583;0.0024434609804302454
01:00:0A:00:00:00:00;1722729950;04/08/24;00:05:50;1.012;-0.023;0.102;0.0012217304902151227;-0.012217304669320583;0.006108652334660292
01:00:0A:00:00:00:00;1722729951;04/08/24;00:05:51;1.012;-0.022;0.104;0.0024434609804302454;-0.0073303827084600925;0.004886921960860491
01:00:0A:00:00:00:00;1722729952;04/08/24;00:05:52;1.013;-0.021;0.104;0.0012217304902151227;-0.012217304669320583;0.004886921960860491
01:00:0A:00:00:00:00;1722729953;04/08/24;00:05:53;1.013;-0.021;0.102;0.0012217304902151227;-0.013439035043120384;0.0024434609804302454
01:00:0A:00:00:00:00;1722729954;04/08/24;00:05:54;1.013;-0.022;0.104;0.0024434609804302454;-0.00855211354792118;0.0012217304902151227
01:00:0A:00:00:00:00;1722729955;04/08/24;00:05:55;1.013;-0.022;0.105;0.0012217304902151227;-0.012217304669320583;0.0036651913542300463
01:00:0A:00:00:00:00;1722729956;04/08/24;00:05:56;1.013;-0.023;0.103;0.0012217304902151227;-0.010995574295520782;0.004886921960860491
01:00:0A:00:00:00:00;1722729957;04/08/24;00:05:57;1.012;-0.022;0.104;0.0024434609804302454;-0.0073303827084600925;0.006108652334660292
01:00:0A:00:00:00:00;1722729958;04/08/24;00:05:58;1.012;-0.021;0.105;0.0012217304902151227;-0.013439035043120384;0.006108652334660292
01:00:0A:00:00:00:00;1722729959;04/08/24;00:05:59;1.012;-0.021;0.102;0.0024434609804302454;-0.012217304669320583;0.0024434609804302454
01:00:0A:00:00:00:00;1722729960;04/08/24;00:06:00;1.013;-0.021;0.105;0.0024434609804302454;-0.009773843921720982;0.0012217304902151227
01:00:0A:00:00:00:00;1722729961;04/08/24;00:06:01;1.014;-0.023;0.105;0.0012217304902151227;-0.013439035043120384;0.0036651913542300463
01:00:0A:00:00:00:00;1722729962;04/08/24;00:06:02;1.013;-0.023;0.102;0.0024434609804302454;-0.010995574295520782;0.0036651913542300463
01:00:0A:00:00:00:00;1722729963;04/08/24;00:06:03;1.014;-0.021;0.104;0.0024434609804302454;-0.00855211354792118;0.006108652334660292
01:00:0A:00:00:00:00;1722729964;04/08/24;00:06:04;1.014;-0.021;0.104;0.0012217304902151227;-0.013439035043120384;0.006108652334660292
01:00:0A:00:00:00:00;1722729965;04/08/24;00:06:05;1.013;-0.023;0.103;0.0024434609804302454;-0.009773843921720982;0.0036651913542300463
01:00:0A:00:00:00:00;1722729966;04/08/24;00:06:06;1.012;-0.021;0.104;0.0024434609804302454;-0.009773843921720982;0.0024434609804302454
01:00:0A:00:00:00:00;1722729967;04/08/24;00:06:07;1.012;-0.022;0.104;0.0012217304902151227;-0.013439035043120384;0.0036651913542300463
01:00:0A:00:00:00:00;1722729968;04/08/24;00:06:08;1.013;-0.022;0.102;0.0012217304902151227;-0.009773843921720982;0.004886921960860491
01:00:0A:00:00:00:00;1722729969;04/08/24;00:06:09;1.012;-0.022;0.105;0.0012217304902151227;-0.009773843921720982;0.006108652334660292
01:00:0A:00:00:00:00;1722729970;04/08/24;00:06:10;1.014;-0.021;0.104;0.0;-0.014660765416920185;0.004886921960860491
01:00:0A:00:00:00:00;1722729971;04/08/24;00:06:11;1.012;-0.02;0.104;0.0012217304902151227;-0.009773843921720982;0.0024434609804302454
01:00:0A:00:00:00:00;1722729972;04/08/24;00:06:12;1.013;-0.021;0.105;0.0012217304902151227;-0.009773843921720982;0.0024434609804302454
01:00:0A:00:00:00:00;1722729973;04/08/24;00:06:13;1.012;-0.023;0.102;0.0012217304902151227;-0.013439035043120384;0.0024434609804302454
01:00:0A:00:00:00:00;1722729974;04/08/24;00:06:14;1.014;-0.024;0.103;0.0024434609804302454;-0.009773843921720982;0.0036651913542300463
01:00:0A:00:00:00:00;1722729975;04/08/24;00:06:15;1.012;-0.021;0.104;0.0012217304902151227;-0.010995574295520782;0.006108652334660292
01:00:0A:00:00:00:00;1722729976;04/08/24;00:06:16;1.014;-0.023;0.102;0.0012217304902151227;-0.013439035043120384;0.006108652334660292
01:00:0A:00:00:00:00;1722729977;04/08/24;00:06:17;1.013;-0.02;0.103;0.0024434609804302454;-0.00855211354792118;0.0036651913542300463
01:00:0A:00:00:00:00;1722729978;04/08/24;00:06:18;1.013;-0.022;0.104;0.0024434609804302454;-0.010995574295520782;0.0024434609804302454
01:00:0A:00:00:00:00;1722729979;04/08/24;00:06:19;1.012;-0.023;0.102;0.0024434609804302454;-0.013439035043120384;0.0036651913542300463
01:00:0A:00:00:00:00;1722729980;04/08/24;00:06:20;1.012;-0.021;0.103;0.0036651913542300463;-0.00855211354792118;0.0024434609804302454
01:00:0A:00:00:00:00;1722729981;04/08/24;00:06:21;1.014;-0.023;0.105;0.0024434609804302454;-0.010995574295520782;0.004886921960860491
01:00:0A:00:00:00:00;1722729982;04/08/24;00:06:22;1.013;-0.022;0.103;0.0024434609804302454;-0.013439035043120384;0.004886921960860491
01:00:0A:00:00:00:00;1722729983;04/08/24;00:06:23;1.013;-0.021;0.104;0.004886921960860491;-0.00855211354792118;0.0036651913542300463
01:00:0A:00:00:00:00;1722729984;04/08/24;00:06:24;1.012;-0.022;0.104;0.0036651913542300463;-0.010995574295520782;0.0036651913542300463
01:00:0A:00:00:00:00;1722729985;04/08/24;00:06:25;1.013;-0.023;0.101;0.004886921960860491;-0.012217304669320583;0.0036651913542300463
01:00:0A:00:00:00:00;1722729986;04/08/24;00:06:26;1.012;-0.022;0.103;0.006108652334660292;-0.00855211354792118;0.0036651913542300463
01:00:0A:00:00:00:00;1722729987;04/08/24;00:06:27;1.012;-0.022;0.105;0.004886921960860491;-0.013439035043120384;0.004886921960860491
01:00:0A:00:00:00:00;1722729988;04/08/24;00:06:28;1.014;-0.022;0.102;0.006108652334660292;-0.012217304669320583;0.006108652334660292
01:00:0A:00:00:00:00;1722729989;04/08/24;00:06:29;1.014;-0.022;0.104;0.0073303827084600925;-0.00855211354792118;0.004886921960860491
01:00:0A:00:00:00:00;1722729990;04/08/24;00:06:30;1.013;-0.022;0.104;0.006108652334660292;-0.012217304669320583;0.004886921960860491
01:00:0A:00:00:00:00;1722729991;04/08/24;00:06:31;1.012;-0.024;0.102;0.0073303827084600925;-0.012217304669320583;0.0036651913542300463
01:00:0A:00:00:00:00;1722729992;04/08/24;00:06:32;1.011;-0.021;0.104;0.0073303827084600925;-0.00855211354792118;0.0036651913542300463
01:00:0A:00:00:00:00;1722729993;04/08/24;00:06:33;1.011;-0.023;0.105;0.0073303827084600925;-0.013439035043120384;0.004886921960860491
01:00:0A:00:00:00:00;1722729994;04/08/24;00:06:34;1.012;-0.023;0.102;0.0073303827084600925;-0.010995574295520782;0.0036651913542300463
01:00:0A:00:00:00:00;1722729995;04/08/24;00:06:35;1.015;-0.022;0.104;0.00855211354792118;-0.009773843921720982;0.0036651913542300463
01:00:0A:00:00:00:00;1722729996;04/08/24;00:06:36;1.014;-0.022;0.103;0.0073303827084600925;-0.012217304669320583;0.004886921960860491
01:00:0A:00:00:00:00;1722729997;04/08/24;00:06:37;1.014;-0.022;0.101;0.0073303827084600925;-0.009773843921720982;0.0036651913542300463
01:00:0A:00:00:00:00;1722729998;04/08/24;00:06:38;1.012;-0.021;0.105;0.00855211354792118;-0.00855211354792118;0.0036651913542300463
01:00:0A:00:00:00:00;1722729999;04/08/24;00:06:39;1.012;-0.023;0.103;0.0073303827084600925;-0.014660765416920185;0.006108652334660292
01:00:0A:00:00:00:00;1722730000;04/08/24;00:06:40;1.014;-0.022;0.102;0.00855211354792118;-0.010995574295520782;0.0036651913542300463
01:00:0A:00:00:00:00;1722730001;04/08/24;00:06:41;1.013;-0.023;0.104;0.00855211354792118;-0.009773843921720982;0.004886921960860491
01:00:0A:00:00:00:00;1722730002;04/08/24;00:06:42;1.014;-0.022;0.104;0.0073303827084600925;-0.013439035043120384;0.004886921960860491
01:00:0A:00:00:00:00;1722730003;04/08/24;00:06:43;1.013;-0.023;0.102;0.00855211354792118;-0.009773843921720982;0.004886921960860491
01:00:0A:00:00:00:00;1722730004;04/08/24;00:06:44;1.011;-0.022;0.104;0.0073303827084600925;-0.009773843921720982;0.0036651913542300463
01:00:0A:00:00:00:00;1722730005;04/08/24;00:06:45;1.011;-0.022;0.102;0.0073303827084600925;-0.013439035043120384;0.0036651913542300463
01:00:0A:00:00:00:00;1722730006;04/08/24;00:06:46;1.016;-0.023;0.103;0.00855211354792118;-0.009773843921720982;0.0036651913542300463
01:00:0A:00:00:00:00;1722730007;04/08/24;00:06:47;1.015;-0.021;0.105;0.0073303827084600925;-0.010995574295520782;0.0036651913542300463
01:00:0A:00:00:00:00;1722730008;04/08/24;00:06:48;1.014;-0.023;0.102;0.0073303827084600925;-0.013439035043120384;0.004886921960860491
01:00:0A:00:00:00:00;1722730009;04/08/24;00:06:49;1.013;-0.023;0.103;0.0073303827084600925;-0.00855211354792118;0.004886921960860491
01:00:0A:00:00:00:00;1722730010;04/08/24;00:06:50;1.011;-0.021;0.103;0.006108652334660292;-0.009773843921720982;0.004886921960860491
01:00:0A:00:00:00:00;1722730011;04/08/24;00:06:51;1.012;-0.022;0.102;0.006108652334660292;-0.013439035043120384;0.0036651913542300463
01:00:0A:00:00:00:00;1722730012;04/08/24;00:06:52;1.012;-0.021;0.102;0.0073303827084600925;-0.009773843921720982;0.0036651913542300463
01:00:0A:00:00:00:00;1722730013;04/08/24;00:06:53;1.014;-0.021;0.105;0.006108652334660292;-0.012217304669320583;0.004886921960860491
01:00:0A:00:00:00:00;1722730014;04/08/24;00:06:54;1.014;-0.023;0.103;0.006108652334660292;-0.012217304669320583;0.004886921960860491
01:00:0A:00:00:00:00;1722730015;04/08/24;00:06:55;1.014;-0.022;0.103;0.006108652334660292;-0.00855211354792118;0.004886921960860491
01:00:0A:00:00:00:00;1722730016;04/08/24;00:06:56;1.014;-0.022;0.104;0.004886921960860491;-0.012217304669320583;0.004886921960860491
01:00:0A:00:00:00:00;1722730017;04/08/24;00:06:57;1.012;-0.022;0.102;0.004886921960860491;-0.012217304669320583;0.004886921960860491
01:00:0A:00:00:00:00;1722730018;04/08/24;00:06:58;1.012;-0.022;0.104;0.006108652334660292;-0.009773843921720982;0.0024434609804302454
01:00:0A:00:00:00:00;1722730019;04/08/24;00:06:59;1.014;-0.022;0.105;0.0036651913542300463;-0.013439035043120384;0.0036651913542300463
01:00:0A:00:00:00:00;1722730020;04/08/24;00:07:00;1.014;-0.023;0.103;0.0036651913542300463;-0.012217304669320583;0.004886921960860491
01:00:0A:00:00:00:00;1722730021;04/08/24;00:07:01;1.013;-0.021;0.103;0.0036651913542300463;-0.00855211354792118;0.006108652334660292
01:00:0A:00:00:00:00;1722730022;04/08/24;00:07:02;1.012;-0.023;0.104;0.0036651913542300463;-0.012217304669320583;0.004886921960860491
01:00:0A:00:00:00:00;1722730023;04/08/24;00:07:03;1.012;-0.022;0.102;0.0036651913542300463;-0.012217304669320583;0.0036651913542300463
01:00:0A:00:00:00:00;1722730024;04/08/24;00:07:04;1.013;-0.021;0.103;0.0036651913542300463;-0.009773843921720982;0.0024434609804302454
01:00:0A:00:00:00:00;1722730025;04/08/24;00:07:05;1.014;-0.022;0.104;0.0036651913542300463;-0.013439035043120384;0.0024434609804302454
01:00:0A:00:00:00:00;1722730026;04/08/24;00:07:06;1.014;-0.022;0.103;0.0036651913542300463;-0.010995574295520782;0.004886921960860491
01:00:0A:00:00:00:00;1722730027;04/08/24;00:07:07;1.013;-0.023;0.104;0.0036651913542300463;-0.00855211354792118;0.004886921960860491
01:00:0A:00:00:00:00;1722730028;04/08/24;00:07:08;1.013;-0.022;0.103;0.0024434609804302454;-0.012217304669320583;0.006108652334660292
01:00:0A:00:00:00:00;1722730029;04/08/24;00:07:09;1.013;-0.022;0.103;0.0036651913542300463;-0.010995574295520782;0.0036651913542300463
01:00:0A:00:00:00:00;1722730030;04/08/24;00:07:10;1.012;-0.021;0.104;0.0036651913542300463;-0.009773843921720982;0.0036651913542300463
01:00:0A:00:00:00:00;1722730031;04/08/24;00:07:11;1.013;-0.023;0.103;0.0024434609804302454;-0.013439035043120384;0.0036651913542300463
01:00:0A:00:00:00:00;1722730032;04/08/24;00:07:12;1.013;-0.022;0.102;0.0036651913542300463;-0.009773843921720982;0.0036651913542300463
01:00:0A:00:00:00:00;1722730033;04/08/24;00:07:13;1.012;-0.022;0.105;0.0036651913542300463;-0.009773843921720982;0.004886921960860491
01:00:0A:00:00:00:00;1722730034;04/08/24;00:07:14;1.012;-0.021;0.104;0.0024434609804302454;-0.013439035043120384;0.006108652334660292
01:00:0A:00:00:00:00;1722730035;04/08/24;00:07:15;1.012;-0.022;0.103;0.0036651913542300463;-0.009773843921720982;0.004886921960860491
01:00:0A:00:00:00:00;1722730036;04/08/24;00:07:16;1.012;-0.021;0.104;0.0036651913542300463;-0.010995574295520782;0.0024434609804302454
01:00:0A:00:00:00:00;1722730037;04/08/24;00:07:17;1.011;-0.022;0.103;0.0036651913542300463;-0.013439035043120384;0.0024434609804302454
01:00:0A:00:00:00:00;1722730038;04/08/24;00:07:18;1.014;-0.022;0.102;0.0036651913542300463;-0.009773843921720982;0.0024434609804302454
01:00:0A:00:00:00:00;1722730039;04/08/24;00:07:19;1.012;-0.023;0.105;0.0036651913542300463;-0.010995574295520782;0.004886921960860491
01:00:0A:00:00:00:00;1722730040;04/08/24;00:07:20;1.013;-0.022;0.102;0.0036651913542300463;-0.013439035043120384;0.006108652334660292
01:00:0A:00:00:00:00;1722730041;04/08/24;00:07:21;1.014;-0.022;0.103;0.004886921960860491;-0.009773843921720982;0.004886921960860491
01:00:0A:00:00:00:00;1722730042;04/08/24;00:07:22;1.013;-0.021;0.105;0.004886921960860491;-0.010995574295520782;0.0036651913542300463
01:00:0A:00:00:00:00;1722730043;04/08/24;00:07:23;1.013;-0.023;0.103;0.0036651913542300463;-0.013439035043120384;0.0036651913542300463
01:00:0A:00:00:00:00;1722730044;04/08/24;00:07:24;1.013;-0.023;0.103;0.006108652334660292;-0.009773843921720982;0.0036651913542300463
01:00:0A:00:00:00:00;1722730045;04/08/24;00:07:25;1.012;-0.023;0.104;0.004886921960860491;-0.012217304669320583;0.004886921960860491
01:00:0A:00:00:00:00;1722730046;04/08/24;00:07:26;1.013;-0.022;0.103;0.004886921960860491;-0.013439035043120384;0.004886921960860491
01:00:0A:00:00:00:00;1722730047;04/08/24;00:07:27;1.013;-0.023;0.104;0.006108652334660292;-0.009773843921720982;0.004886921960860491
01:00:0A:00:00:00:00;1722730048;04/08/24;00:07:28;1.013;-0.023;0.105;0.004886921960860491;-0.012217304669320583;0.004886921960860491
01:00:0A:00:00:00:00;1722730049;04/08/24;00:07:29;1.013;-0.024;0.102;0.006108652334660292;-0.013439035043120384;0.0036651913542300463
01:00:0A:00:00:00:00;1722730050;04/08/24;00:07:30;1.012;-0.023;0.105;0.0073303827084600925;-0.00855211354792118;0.0036651913542300463
01:00:0A:00:00:00:00;1722730051;04/08/24;00:07:31;1.013;-0.023;0.105;0.006108652334660292;-0.012217304669320583;0.004886921960860491
01:00:0A:00:00:00:00;1722730052;04/08/24;00:07:32;1.014;-0.023;0.103;0.006108652334660292;-0.013439035043120384;0.004886921960860491
01:00:0A:00:00:00:00;1722730053;04/08/24;00:07:33;1.013;-0.022;0.104;0.0073303827084600925;-0.009773843921720982;0.004886921960860491
01:00:0A:00:00:00:00;1722730054;04/08/24;00:07:34;1.013;-0.022;0.103;0.0073303827084600925;-0.012217304669320583;0.0036651913542300463
01:00:0A:00:00:00:00;1722730055;04/08/24;00:07:35;1.013;-0.021;0.103;0.0073303827084600925;-0.010995574295520782;0.0036651913542300463
01:00:0A:00:00:00:00;1722730056;04/08/24;00:07:36;1.012;-0.022;0.104;0.00855211354792118;-0.009773843921720982;0.0036651913542300463
01:00:0A:00:00:00:00;1722730057;04/08/24;00:07:37;1.012;-0.023;0.103;0.0073303827084600925;-0.013439035043120384;0.004886921960860491
01:00:0A:00:00:00:00;1722730058;04/08/24;00:07:38;1.013;-0.022;0.103;0.0073303827084600925;-0.012217304669320583;0.004886921960860491
01:00:0A:00:00:00:00;1722730059;04/08/24;00:07:39;1.013;-0.022;0.104;0.00855211354792118;-0.009773843921720982;0.004886921960860491
01:00:0A:00:00:00:00;1722730060;04/08/24;00:07:40;1.012;-0.021;0.103;0.0073303827084600925;-0.012217304669320583;0.004886921960860491
01:00:0A:00:00:00:00;1722730061;04/08/24;00:07:41;1.013;-0.022;0.103;0.00855211354792118;-0.010995574295520782;0.0036651913542300463
01:00:0A:00:00:00:00;1722730062;04/08/24;00:07:42;1.013;-0.023;0.103;0.00855211354792118;-0.009773843921720982;0.004886921960860491
01:00:0A:00:00:00:00;1722730063;04/08/24;00:07:43;1.012;-0.023;0.103;0.00855211354792118;-0.013439035043120384;0.004886921960860491
01:00:0A:00:00:00:00;1722730064;04/08/24;00:07:44;1.013;-0.022;0.102;0.00855211354792118;-0.010995574295520782;0.004886921960860491
01:00:0A:00:00:00:00;1722730065;04/08/24;00:07:45;1.013;-0.022;0.105;0.00855211354792118;-0.009773843921720982;0.004886921960860491
01:00:0A:00:00:00:00;1722730066;04/08/24;00:07:46;1.013;-0.023;0.104;0.00855211354792118;-0.013439035043120384;0.004886921960860491
01:00:0A:00:00:00:00;1722730067;04/08/24;00:07:47;1.013;-0.021;0.102;0.009773843921720982;-0.009773843921720982;0.0036651913542300463
01:00:0A:00:00:00:00;1722730068;04/08/24;00:07:48;1.012;-0.022;0.104;0.009773843921720982;-0.009773843921720982;0.004886921960860491
01:00:0A:00:00:00:00;1722730069;04/08/24;00:07:49;1.011;-0.023;0.105;0.009773843921720982;-0.013439035043120384;0.004886921960860491
01:00:0A:00:00:00:00;1722730070;04/08/24;00:07:50;1.012;-0.023;0.102;0.009773843921720982;-0.010995574295520782;0.004886921960860491
01:00:0A:00:00:00:00;1722730071;04/08/24;00:07:51;1.012;-0.021;0.105;0.009773843921720982;-0.010995574295520782;0.006108652334660292
01:00:0A:00:00:00:00;1722730072;04/08/24;00:07:52;1.014;-0.021;0.104;0.009773843921720982;-0.013439035043120384;0.004886921960860491
01:00:0A:00:00:00:00;1722730073;04/08/24;00:07:53;1.014;-0.021;0.103;0.010995574295520782;-0.009773843921720982;0.0036651913542300463
01:00:0A:00:00:00:00;1722730074;04/08/24;00:07:54;1.014;-0.022;0.103;0.010995574295520782;-0.010995574295520782;0.0036651913542300463
01:00:0A:00:00:00:00;1722730075;04/08/24;00:07:55;1.011;-0.023;0.103;0.010995574295520782;-0.013439035043120384;0.004886921960860491
01:00:0A:00:00:00:00;1722730076;04/08/24;00:07:56;1.012;-0.023;0.104;0.010995574295520782;-0.009773843921720982;0.004886921960860491
01:00:0A:00:00:00:00;1722730077;04/08/24;00:07:57;1.013;-0.021;0.104;0.010995574295520782;-0.010995574295520782;0.004886921960860491
01:00:0A:00:00:00:00;1722730078;04/08/24;00:07:58;1.013;-0.022;0.103;0.010995574295520782;-0.012217304669320583;0.004886921960860491
01:00:0A:00:00:00:00;1722730079;04/08/24;00:07:59;1.014;-0.021;0.104;0.012217304669320583;-0.009773843921720982;0.0036651913542300463
01:00:0A:00:00:00:00;1722730080;04/08/24;00:08:00;1.013;-0.022;0.105;0.010995574295520782;-0.010995574295520782;0.0036651913542300463
01:00:0A:00:00:00:00;1722730081;04/08/24;00:08:01;1.013;-0.022;0.102;0.010995574295520782;-0.013439035043120384;0.004886921960860491
01:00:0A:00:00:00:00;1722730082;04/08/24;00:08:02;1.012;-0.022;0.102;0.010995574295520782;-0.009773843921720982;0.004886921960860491
01:00:0A:00:00:00:00;1722730083;04/08/24;00:08:03;1.013;-0.022;0.104;0.010995574295520782;-0.012217304669320583;0.004886921960860491
01:00:0A:00:00:00:00;1722730084;04/08/24;00:08:04;1.015;-0.022;0.102;0.009773843921720982;-0.012217304669320583;0.004886921960860491
01:00:0A:00:00:00:00;1722730085;04/08/24;00:08:05;1.014;-0.021;0.103;0.010995574295520782;-0.009773843921720982;0.0036651913542300463
01:00:0A:00:00:00:00;1722730086;04/08/24;00:08:06;1.013;-0.021;0.104;0.009773843921720982;-0.012217304669320583;0.004886921960860491
01:00:0A:00:00:00:00;1722730087;04/08/24;00:08:07;1.012;-0.022;0.103;0.009773843921720982;-0.010995574295520782;0.0036651913542300463
01:00:0A:00:00:00:00;1722730088;04/08/24;00:08:08;1.012;-0.022;0.104;0.009773843921720982;-0.009773843921720982;0.004886921960860491
01:00:0A:00:00:00:00;1722730089;04/08/24;00:08:09;1.013;-0.022;0.104;0.00855211354792118;-0.013439035043120384;0.006108652334660292
01:00:0A:00:00:00:00;1722730090;04/08/24;00:08:10;1.014;-0.022;0.103;0.00855211354792118;-0.010995574295520782;0.004886921960860491
01:00:0A:00:00:00:00;1722730091;04/08/24;00:08:11;1.013;-0.022;0.104;0.00855211354792118;-0.009773843921720982;0.004886921960860491
01:00:0A:00:00:00:00;1722730092;04/08/24;00:08:12;1.013;-0.021;0.104;0.0073303827084600925;-0.012217304669320583;0.004886921960860491
01:00:0A:00:00:00:00;1722730093;04/08/24;00:08:13;1.012;-0.022;0.102;0.0073303827084600925;-0.010995574295520782;0.0036651913542300463
01:00:0A:00:00:00:00;1722730094;04/08/24;00:08:14;1.013;-0.022;0.104;0.0073303827084600925;-0.009773843921720982;0.004886921960860491
01:00:0A:00:00:00:00;1722730095;04/08/24;00:08:15;1.013;-0.022;0.103;0.0073303827084600925;-0.013439035043120384;0.004886921960860491
01:00:0A:00:00:00:00;1722730096;04/08/24;00:08:16;1.013;-0.023;0.102;0.0073303827084600925;-0.010995574295520782;0.004886921960860491
01:00:0A:00:00:00:00;1722730097;04/08/24;00:08:17;1.012;-0.022;0.104;0.0073303827084600925;-0.009773843921720982;0.0036651913542300463
01:00:0A:00:00:00:00;1722730098;04/08/24;00:08:18;1.013;-0.022;0.103;0.006108652334660292;-0.012217304669320583;0.0036651913542300463
01:00:0A:00:00:00:00;1722730099;04/08/24;00:08:19;1.013;-0.024;0.103;0.006108652334660292;-0.010995574295520782;0.0036651913542300463
01:00:0A:00:00:00:00;1722730100;04/08/24;00:08:20;1.013;-0.021;0.104;0.006108652334660292;-0.010995574295520782;0.0036651913542300463
01:00:0A:00:00:00:00;1722730101;04/08/24;00:08:21;1.013;-0.022;0.103;0.006108652334660292;-0.012217304669320583;0.004886921960860491
01:00:0A:00:00:00:00;1722730102;04/08/24;00:08:22;1.014;-0.022;0.102;0.006108652334660292;-0.010995574295520782;0.0036651913542300463
01:00:0A:00:00:00:00;1722730103;04/08/24;00:08:23;1.013;-0.022;0.104;0.006108652334660292;-0.010995574295520782;0.0036651913542300463
01:00:0A:00:00:00:00;1722730104;04/08/24;00:08:24;1.013;-0.021;0.104;0.004886921960860491;-0.012217304669320583;0.004886921960860491
01:00:0A:00:00:00:00;1722730105;04/08/24;00:08:25;1.014;-0.022;0.103;0.006108652334660292;-0.009773843921720982;0.0036651913542300463
01:00:0A:00:00:00:00;1722730106;04/08/24;00:08:26;1.013;-0.021;0.105;0.006108652334660292;-0.010995574295520782;0.0036651913542300463
01:00:0A:00:00:00:00;1722730107;04/08/24;00:08:27;1.013;-0.022;0.103;0.004886921960860491;-0.012217304669320583;0.004886921960860491
01:00:0A:00:00:00:00;1722730108;04/08/24;00:08:28;1.013;-0.022;0.103;0.006108652334660292;-0.009773843921720982;0.0036651913542300463
01:00:0A:00:00:00:00;1722730109;04/08/24;00:08:29;1.014;-0.022;0.105;0.004886921960860491;-0.010995574295520782;0.0036651913542300463
01:00:0A:00:00:00:00;1722730110;04/08/24;00:08:30;1.012;-0.022;0.103;0.004886921960860491;-0.012217304669320583;0.004886921960860491
01:00:0A:00:00:00:00;1722730111;04/08/24;00:08:31;1.013;-0.021;0.103;0.006108652334660292;-0.009773843921720982;0.0036651913542300463
01:00:0A:00:00:00:00;1722730112;04/08/24;00:08:32;1.014;-0.022;0.103;0.004886921960860491;-0.010995574295520782;0.004886921960860491
01:00:0A:00:00:00:00;1722730113;04/08/24;00:08:33;1.013;-0.021;0.103;0.004886921960860491;-0.012217304669320583;0.004886921960860491
01:00:0A:00:00:00:00;1722730114;04/08/24;00:08:34;1.013;-0.022;0.102;0.004886921960860491;-0.009773843921720982;0.0036651913542300463
01:00:0A:00:00:00:00;1722730115;04/08/24;00:08:35;1.013;-0.021;0.104;0.004886921960860491;-0.010995574295520782;0.004886921960860491
01:00:0A:00:00:00:00;1722730116;04/08/24;00:08:36;1.012;-0.022;0.102;0.004886921960860491;-0.012217304669320583;0.004886921960860491
01:00:0A:00:00:00:00;1722730117;04/08/24;00:08:37;1.013;-0.021;0.102;0.004886921960860491;-0.009773843921720982;0.0036651913542300463
01:00:0A:00:00:00:00;1722730118;04/08/24;00:08:38;1.013;-0.022;0.103;0.004886921960860491;-0.012217304669320583;0.004886921960860491
01:00:0A:00:00:00:00;1722730119;04/08/24;00:08:39;1.012;-0.022;0.103;0.004886921960860491;-0.012217304669320583;0.004886921960860491
01:00:0A:00:00:00:00;1722730120;04/08/24;00:08:40;1.013;-0.022;0.104;0.004886921960860491;-0.010995574295520782;0.0036651913542300463
01:00:0A:00:00:00:00;1722730121;04/08/24;00:08:41;1.013;-0.021;0.103;0.004886921960860491;-0.012217304669320583;0.004886921960860491
01:00:0A:00:00:00:00;1722730122;04/08/24;00:08:42;1.013;-0.022;0.103;0.0036651913542300463;-0.012217304669320583;0.0036651913542300463
01:00:0A:00:00:00:00;1722730123;04/08/24;00:08:43;1.013;-0.022;0.103;0.004886921960860491;-0.009773843921720982;0.0036651913542300463
01:00:0A:00:00:00:00;1722730124;04/08/24;00:08:44;1.013;-0.022;0.103;0.0036651913542300463;-0.012217304669320583;0.004886921960860491
01:00:0A:00:00:00:00;1722730125;04/08/24;00:08:45;1.013;-0.021;0.103;0.004886921960860491;-0.010995574295520782;0.0036651913542300463
01:00:0A:00:00:00:00;1722730126;04/08/24;00:08:46;1.015;-0.022;0.102;0.004886921960860491;-0.010995574295520782;0.0036651913542300463
01:00:0A:00:00:00:00;1722730127;04/08/24;00:08:47;1.014;-0.023;0.104;0.004886921960860491;-0.012217304669320583;0.004886921960860491
01:00:0A:00:00:00:00;1722730128;04/08/24;00:08:48;1.014;-0.022;0.103;0.004886921960860491;-0.010995574295520782;0.004886921960860491
01:00:0A:00:00:00:00;1722730129;04/08/24;00:08:49;1.014;-0.021;0.104;0.004886921960860491;-0.009773843921720982;0.0036651913542300463
01:00:0A:00:00:00:00;1722730130;04/08/24;00:08:50;1.012;-0.022;0.104;0.004886921960860491;-0.012217304669320583;0.004886921960860491
01:00:0A:00:00:00:00;1722730131;04/08/24;00:08:51;1.011;-0.023;0.103;0.004886921960860491;-0.010995574295520782;0.004886921960860491
01:00:0A:00:00:00:00;1722730132;04/08/24;00:08:52;1.012;-0.021;0.103;0.004886921960860491;-0.010995574295520782;0.004886921960860491
01:00:0A:00:00:00:00;1722730133;04/08/24;00:08:53;1.014;-0.021;0.104;0.004886921960860491;-0.012217304669320583;0.004886921960860491
01:00:0A:00:00:00:00;1722730134;04/08/24;00:08:54;1.014;-0.022;0.102;0.004886921960860491;-0.010995574295520782;0.0036651913542300463
01:00:0A:00:00:00:00;1722730135;04/08/24;00:08:55;1.014;-0.022;0.104;0.006108652334660292;-0.009773843921720982;0.0036651913542300463
01:00:0A:00:00:00:00;1722730136;04/08/24;00:08:56;1.01;-0.022;0.106;0.004886921960860491;-0.00855211354792118;0.0036651913542300463
01:00:0A:00:00:00:00;1722730137;04/08/24;00:08:57;1.01;-0.022;0.102;0.006108652334660292;-0.0036651913542300463;0.0036651913542300463
01:00:0A:00:00:00:00;1722730138;04/08/24;00:08:58;1.012;-0.024;0.098;0.004886921960860491;-0.018325956538319588;0.004886921960860491
01:00:0A:00:00:00:00;1722730139;04/08/24;00:08:59;1.016;-0.023;0.1;0.006108652334660292;-0.019547687843441963;0.006108652334660292
01:00:0A:00:00:00:00;1722730140;04/08/24;00:09:00;1.024;-0.022;0.106;0.004886921960860491;-0.02321287989616394;0.009773843921720982
01:00:0A:00:00:00:00;1722730141;04/08/24;00:09:01;1.024;-0.021;0.105;0.00855211354792118;-0.01710422709584236;0.006108652334660292
01:00:0A:00:00:00:00;1722730142;04/08/24;00:09:02;1.014;-0.019;0.106;0.013439035043120384;-0.0024434609804302454;0.0
01:00:0A:00:00:00:00;1722730143;04/08/24;00:09:03;1.004;-0.029;0.112;0.01710422709584236;0.013439035043120384;0.0036651913542300463
01:00:0A:00:00:00:00;1722730144;04/08/24;00:09:04;0.995;-0.036;0.104;0.02076941914856434;0.0;-0.009773843921720982
01:00:0A:00:00:00:00;1722730145;04/08/24;00:09:05;1.003;-0.035;0.089;0.019547687843441963;-0.015882495790719986;0.004886921960860491
01:00:0A:00:00:00:00;1722730146;04/08/24;00:09:06;1.023;-0.034;0.093;0.018325956538319588;-0.036651913076639175;0.03420845419168472
01:00:0A:00:00:00:00;1722730147;04/08/24;00:09:07;1.031;-0.026;0.116;0.02076941914856434;-0.02932153083384037;0.028099799528717995
01:00:0A:00:00:00:00;1722730148;04/08/24;00:09:08;1.023;0.0;0.115;0.025656338781118393;-0.0073303827084600925;-0.0036651913542300463
01:00:0A:00:00:00:00;1722730149;04/08/24;00:09:09;1.008;-0.01;0.097;0.02932153083384037;0.030543262138962746;-0.02687807008624077
01:00:0A:00:00:00:00;1722730150;04/08/24;00:09:10;1.003;-0.03;0.09;0.03298672288656235;0.0073303827084600925;-0.0354301817715168
01:00:0A:00:00:00:00;1722730151;04/08/24;00:09:11;1.001;-0.041;0.088;0.02932153083384037;-0.0354301817715168;-0.013439035043120384
01:00:0A:00:00:00:00;1722730152;04/08/24;00:09:12;1.003;-0.041;0.095;0.021991148591041565;-0.02687807008624077;0.04886921867728233
01:00:0A:00:00:00:00;1722730153;04/08/24;00:09:13;1.004;-0.025;0.105;0.025656338781118393;-0.015882495790719986;0.05864306166768074
01:00:0A:00:00:00:00;1722730154;04/08/24;00:09:14;1.003;-0.009;0.093;0.042760565876960754;-0.014660765416920185;0.03298672288656235
01:00:0A:00:00:00:00;1722730155;04/08/24;00:09:15;1.023;-0.006;0.082;0.0708603635430336;0.010995574295520782;-0.03298672288656235
01:00:0A:00:00:00:00;1722730156;04/08/24;00:09:16;1.046;-0.008;0.093;0.07819075137376785;-0.018325956538319588;-0.06230825558304787
01:00:0A:00:00:00:00;1722730157;04/08/24;00:09:17;1.052;-0.034;0.052;0.06108652427792549;-0.059864792972803116;0.018325956538319588
01:00:0A:00:00:00:00;1722730158;04/08/24;00:09:18;1.008;-0.066;0.103;0.05619959905743599;0.04886921867728233;0.07696902006864548
01:00:0A:00:00:00:00;1722730159;04/08/24;00:09:19;0.969;-0.015;0.059;0.042760565876960754;-0.13072516024112701;-0.014660765416920185
01:00:0A:00:00:00:00;1722730160;04/08/24;00:09:20;0.954;-0.025;0.088;0.042760565876960754;0.1160643920302391;0.02932153083384037
01:00:0A:00:00:00:00;1722730161;04/08/24;00:09:21;0.98;-0.008;0.103;0.0;-0.18325956165790558;-0.10262535512447357
01:00:0A:00:00:00:00;1722730162;04/08/24;00:09:22;1.05;-0.008;0.062;-0.009773843921720982;0.21013763546943665;0.051312677562236786
01:00:0A:00:00:00:00;1722730163;04/08/24;00:09:23;1.047;0.014;0.275;-0.13439035415649414;-0.3176499307155609;-0.18570303916931152
01:00:0A:00:00:00:00;1722730164;04/08/24;00:09:24;1.048;0.002;-0.27;-0.19303341209888458;-0.1661553531885147;0.1563815027475357
01:00:0A:00:00:00:00;1722730165;04/08/24;00:09:25;0.951;-0.077;0.428;-0.23335053026676178;0.5803219676017761;-0.010995574295520782
01:00:0A:00:00:00:00;1722730166;04/08/24;00:09:26;0.961;-0.314;-0.094;-0.05009094998240471;-0.49357908964157104;0.31031954288482666
01:00:0A:00:00:00:00;1722730167;04/08/24;00:09:27;0.98;0.116;0.112;0.17470745742321014;0.19914205372333527;-0.7440338730812073
01:00:0A:00:00:00:00;1722730168;04/08/24;00:09:28;0.974;0.117;0.129;-0.2822197377681732;0.09651670604944229;0.4948008358478546
01:00:0A:00:00:00:00;1722730169;04/08/24;00:09:29;0.99;-0.154;0.169;-0.3176499307155609;-0.12828169763088226;-0.09529497474431992
01:00:0A:00:00:00:00;1722730170;04/08/24;00:09:30;1.045;0.04;0.049;-0.27977627515792847;0.039095375686883926;-0.16982054710388184
01:00:0A:00:00:00:00;1722730171;04/08/24;00:09:31;1.032;-0.016;0.122;-1.1191051006317139;0.12339477241039276;-0.19914205372333527
01:00:0A:00:00:00:00;1722730172;04/08/24;00:09:32;0.987;0.076;0.11;-1.0629055500030518;-0.1160643920302391;-0.09407324343919754
01:00:0A:00:00:00:00;1722730173;04/08/24;00:09:33;0.954;-0.008;0.014;-0.96883225440979;-0.12217304855585098;0.08185594528913498
01:00:0A:00:00:00:00;1722730174;04/08/24;00:09:34;0.955;-0.037;0.123;-0.8246681094169617;0.41294488310813904;0.009773843921720982
01:00:0A:00:00:00:00;1722730175;04/08/24;00:09:35;0.993;-0.065;0.081;-0.7257078886032104;-0.44104471802711487;-0.46670106053352356
01:00:0A:00:00:00:00;1722730176;04/08/24;00:09:36;0.998;0.303;0.047;-0.7195992469787598;0.16249015927314758;0.21624629199504852
01:00:0A:00:00:00:00;1722730177;04/08/24;00:09:37;1.036;-0.323;0.093;-0.588874101638794;0.02321287989616394;-0.1722639948129654
01:00:0A:00:00:00:00;1722730178;04/08/24;00:09:38;1.016;0.269;0.255;-0.5204571485519409;0.09529497474431992;-0.32009339332580566
01:00:0A:00:00:00:00;1722730179;04/08/24;00:09:39;1.013;-0.191;-0.152;-0.5534439086914062;-0.3689626157283783;0.30054569244384766
01:00:0A:00:00:00:00;1722730180;04/08/24;00:09:40;0.93;0.112;0.284;-0.3286454975605011;0.7892378568649292;-0.43860122561454773
01:00:0A:00:00:00:00;1722730181;04/08/24;00:09:41;0.958;0.044;0.073;-0.6597344279289246;-0.7745770812034607;0.06719517707824707
01:00:0A:00:00:00:00;1722730182;04/08/24;00:09:42;0.957;0.054;-0.061;-0.5155702233314514;0.32009339332580566;0.12461651116609573
01:00:0A:00:00:00:00;1722730183;04/08/24;00:09:43;1.022;-0.082;0.15;-0.4862487316131592;-0.015882495790719986;0.05253440886735916
01:00:0A:00:00:00:00;1722730184;04/08/24;00:09:44;1.063;-0.044;0.057;-0.3543018400669098;-0.13072516024112701;-0.20036379992961884
01:00:0A:00:00:00:00;1722730185;04/08/24;00:09:45;1.014;0.166;0.189;-0.37140607833862305;0.20647244155406952;0.021991148591041565
01:00:0A:00:00:00:00;1722730186;04/08/24;00:09:46;0.978;-0.213;0.11;-0.41172316670417786;-0.15393804013729095;0.32009339332580566
01:00:0A:00:00:00:00;1722730187;04/08/24;00:09:47;0.942;-0.221;0.216;-0.20891590416431427;0.3066543638706207;-0.3494149148464203
01:00:0A:00:00:00:00;1722730188;04/08/24;00:09:48;0.941;-0.076;0.22;-0.7513642311096191;0.2724458873271942;0.2565633952617645
01:00:0A:00:00:00:00;1722730189;04/08/24;00:09:49;0.977;0.026;0.235;-0.6963863372802734;-0.5253441333770752;-0.8967502117156982
01:00:0A:00:00:00:00;1722730190;04/08/24;00:09:50;0.928;0.365;0.232;-1.0042624473571777;-0.1869247555732727;0.29077184200286865
01:00:0A:00:00:00:00;1722730191;04/08/24;00:09:51;1.043;-0.103;-0.115;-0.9285151362419128;-0.10506881773471832;0.06963863223791122
01:00:0A:00:00:00:00;1722730192;04/08/24;00:09:52;1.015;-0.042;0.281;-0.7525859475135803;0.4495967924594879;-0.039095375686883926
01:00:0A:00:00:00:00;1722730193;04/08/24;00:09:53;1.006;-0.001;0.141;-0.7367035150527954;-0.10995574295520782;-0.26022857427597046
01:00:0A:00:00:00:00;1722730194;04/08/24;00:09:54;0.942;-0.022;0.173;-0.7635815143585205;0.06352998316287994;0.059864792972803116
01:00:0A:00:00:00:00;1722730195;04/08/24;00:09:55;0.962;0.042;0.054;-0.7819074988365173;-0.40683624148368835;-0.5106833577156067
01:00:0A:00:00:00:00;1722730196;04/08/24;00:09:56;0.948;0.216;-0.005;-1.0897835493087769;-0.22846359014511108;1.0690141916275024
01:00:0A:00:00:00:00;1722730197;04/08/24;00:09:57;1.022;-0.171;0.006;-0.6719517707824707;0.5253441333770752;-0.32009339332580566
01:00:0A:00:00:00:00;1722730198;04/08/24;00:09:58;1.058;0.007;0.089;-0.7183775305747986;0.14905111491680145;-0.02321287989616394
01:00:0A:00:00:00:00;1722730199;04/08/24;00:09:59;0.997;-0.203;0.269;-0.7330382466316223;0.3738495111465454;-0.045204028487205505
01:00:0A:00:00:00:00;1722730200;04/08/24;00:10:00;0.964;0.039;0.348;-0.739146888256073;0.13316862285137177;-0.5913175940513611
01:00:0A:00:00:00:00;1722730201;04/08/24;00:10:01;0.954;0.093;0.106;-0.9505062699317932;-0.4398229718208313;-0.10506881773471832
01:00:0A:00:00:00:00;1722730202;04/08/24;00:10:02;0.959;-0.088;0.114;-0.9676105380058289;0.014660765416920185;0.1661553531885147
01:00:0A:00:00:00:00;1722730203;04/08/24;00:10:03;1.015;-0.062;0.027;-0.7489207983016968;0.039095375686883926;-0.4337143301963806
01:00:0A:00:00:00:00;1722730204;04/08/24;00:10:04;0.988;0.198;0.269;-0.9346237778663635;-0.2431243658065796;0.03420845419168472
01:00:0A:00:00:00:00;1722730205;04/08/24;00:10:05;1.066;0.069;-0.113;-0.9065240025520325;-0.22846359014511108;-0.15271630883216858
01:00:0A:00:00:00:00;1722730206;04/08/24;00:10:06;1.019;0.142;0.302;-0.9676105380058289;0.10384709388017654;0.1661553531885147
01:00:0A:00:00:00:00;1722730207;04/08/24;00:10:07;1.004;-0.102;-0.182;-0.8564330339431763;-0.455705463886261;0.06352998316287994
01:00:0A:00:00:00:00;1722730208;04/08/24;00:10:08;0.971;0.141;0.035;-0.6414085030555725;0.3848450779914856;0.01710422709584236
01:00:0A:00:00:00:00;1722730209;04/08/24;00:10:09;0.963;-0.147;0.063;-0.6218608021736145;-0.15271630883216858;0.14049901068210602
01:00:0A:00:00:00:00;1722730210;04/08/24;00:10:10;1.004;-0.032;-0.011;-0.3298672139644623;0.30543261766433716;-0.3799581527709961
01:00:0A:00:00:00:00;1722730211;04/08/24;00:10:11;1.011;0.09;0.234;-0.41661006212234497;-0.2675589621067047;0.1722639948129654
01:00:0A:00:00:00:00;1722730212;04/08/24;00:10:12;1.057;-0.093;-0.095;-0.3286454975605011;0.12461651116609573;0.26633724570274353
01:00:0A:00:00:00:00;1722730213;04/08/24;00:10:13;1.012;-0.262;0.264;-0.14538592100143433;0.1160643920302391;0.07330382615327835
01:00:0A:00:00:00:00;1722730214;04/08/24;00:10:14;1.023;0.077;0.04;-0.09285151958465576;-0.1918116807937622;-0.36651912331581116
01:00:0A:00:00:00:00;1722730215;04/08/24;00:10:15;0.953;-0.037;0.225;-0.23579397797584534;0.17959438264369965;0.26145032048225403
01:00:0A:00:00:00:00;1722730216;04/08/24;00:10:16;0.967;-0.02;0.044;-0.23945917189121246;-0.4337143301963806;-0.09407324343919754
01:00:0A:00:00:00:00;1722730217;04/08/24;00:10:17;1.004;0.042;-0.008;-0.14905111491680145;0.46792274713516235;0.12461651116609573
01:00:0A:00:00:00:00;1722730218;04/08/24;00:10:18;1.023;-0.073;0.212;-0.27977627515792847;-0.4141666293144226;0.27611109614372253
01:00:0A:00:00:00:00;1722730219;04/08/24;00:10:19;1.028;-0.172;-0.258;0.010995574295520782;0.03176499158143997;-0.009773843921720982
01:00:0A:00:00:00:00;1722730220;04/08/24;00:10:20;1.02;0.191;0.276;0.08674286305904388;0.12339477241039276;0.004886921960860491
01:00:0A:00:00:00:00;1722730221;04/08/24;00:10:21;1.018;-0.246;-0.037;0.08307767659425735;-0.21135938167572021;0.2871066629886627
01:00:0A:00:00:00:00;1722730222;04/08/24;00:10:22;1.001;0.086;0.104;0.2834414541721344;0.1673770695924759;-0.4153883755207062
01:00:0A:00:00:00:00;1722730223;04/08/24;00:10:23;0.974;-0.059;0.1;0.08796459436416626;-0.06475171446800232;0.4691444933414459
01:00:0A:00:00:00:00;1722730224;04/08/24;00:10:24;0.978;-0.03;0.173;0.19058994948863983;0.05375614017248154;-0.3445279896259308
01:00:0A:00:00:00:00;1722730225;04/08/24;00:10:25;0.976;0.225;0.228;-0.08185594528913498;-0.1062905490398407;-0.08552113175392151
01:00:0A:00:00:00:00;1722730226;04/08/24;00:10:26;1.044;0.131;0.06;-0.34208452701568604;-0.36651912331581116;0.1722639948129654
01:00:0A:00:00:00:00;1722730227;04/08/24;00:10:27;0.984;0.209;-0.316;-0.28588491678237915;-0.31031954288482666;-0.06719517707824707
01:00:0A:00:00:00:00;1722730228;04/08/24;00:10:28;1.008;-0.208;0.078;-0.19547687470912933;0.4190535545349121;0.46547931432724
01:00:0A:00:00:00:00;1722730229;04/08/24;00:10:29;0.976;-0.186;0.103;-0.10751228034496307;0.16004669666290283;-0.17104226350784302
01:00:0A:00:00:00:00;1722730230;04/08/24;00:10:30;0.882;0.215;0.341;-0.22968533635139465;-0.2822197377681732;-0.8772024512290955
01:00:0A:00:00:00:00;1722730231;04/08/24;00:10:31;0.828;0.42;-0.077;-0.6682865619659424;-1.2962559461593628;1.1728612184524536
01:00:0A:00:00:00:00;1722730232;04/08/24;00:10:32;0.879;-0.287;-0.025;-1.145983099937439;1.1166616678237915;0.5900958180427551
01:00:0A:00:00:00:00;1722730233;04/08/24;00:10:33;0.902;0.0;0.429;-0.8283332586288452;0.35185837745666504;-0.929736852645874
01:00:0A:00:00:00:00;1722730234;04/08/24;00:10:34;0.967;0.135;0.185;-1.263269305229187;-0.6243042349815369;-0.30543261766433716
01:00:0A:00:00:00:00;1722730235;04/08/24;00:10:35;0.965;0.106;0.047;-1.6859880685806274;0.21380282938480377;-0.2577851116657257
01:00:0A:00:00:00:00;1722730236;04/08/24;00:10:36;0.97;-0.045;0.054;-1.82404363155365;-0.30054569244384766;0.004886921960860491
01:00:0A:00:00:00:00;1722730237;04/08/24;00:10:37;0.984;0.025;0.015;-1.6468926668167114;0.740368664264679;0.10873401165008545
01:00:0A:00:00:00:00;1722730238;04/08/24;00:10:38;0.992;0.044;0.258;-2.2968533039093018;0.19792033731937408;-1.0531316995620728
01:00:0A:00:00:00:00;1722730239;04/08/24;00:10:39;0.997;-0.046;0.35;-2.255314350128174;-0.4141666293144226;-0.588874101638794
01:00:0A:00:00:00:00;1722730240;04/08/24;00:10:40;0.972;0.206;0.293;-2.2773056030273438;-0.2382374405860901;-0.11484266817569733
01:00:0A:00:00:00:00;1722730241;04/08/24;00:10:41;1.021;0.035;-0.13;-2.0366246700286865;-0.3384193480014801;-0.3335324227809906
01:00:0A:00:00:00:00;1722730242;04/08/24;00:10:42;0.953;-0.064;0.321;-1.9327776432037354;0.16982054710388184;0.17104226350784302
01:00:0A:00:00:00:00;1722730243;04/08/24;00:10:43;0.984;0.113;0.015;-1.5454890727996826;-0.08552113175392151;-0.6401867866516113
01:00:0A:00:00:00:00;1722730244;04/08/24;00:10:44;0.949;-0.108;0.253;-1.5943583250045776;-0.10751228034496307;0.14782939851284027
01:00:0A:00:00:00:00;1722730245;04/08/24;00:10:45;0.989;0.064;0.101;-1.3060299158096313;0.14294245839118958;-0.4948008358478546
01:00:0A:00:00:00:00;1722730246;04/08/24;00:10:46;1.0;-0.038;0.264;-1.4184291362762451;-0.2919935882091522;-0.02321287989616394
01:00:0A:00:00:00:00;1722730247;04/08/24;00:10:47;1.044;0.033;0.018;-1.2693779468536377;-0.051312677562236786;-0.13439035415649414
01:00:0A:00:00:00:00;1722730248;04/08/24;00:10:48;1.028;-0.166;0.136;-1.1789698600769043;0.13561207056045532;0.07696902006864548
01:00:0A:00:00:00:00;1722730249;04/08/24;00:10:49;0.998;-0.074;0.26;-1.0030406713485718;0.32620203495025635;-0.41172316670417786
01:00:0A:00:00:00:00;1722730250;04/08/24;00:10:50;0.924;0.05;0.356;-1.1386528015136719;-0.0354301817715168;-0.5436700582504272
01:00:0A:00:00:00:00;1722730251;04/08/24;00:10:51;0.962;0.097;0.181;-1.3610076904296875;-0.7305948734283447;-0.6316346526145935
01:00:0A:00:00:00:00;1722730252;04/08/24;00:10:52;0.955;0.159;0.258;-1.6371188163757324;-0.7330382466316223;-0.2626720666885376
01:00:0A:00:00:00:00;1722730253;04/08/24;00:10:53;0.907;0.39;0.231;-1.8374826908111572;-0.8124507665634155;-0.5021312236785889
01:00:0A:00:00:00:00;1722730254;04/08/24;00:10:54;0.816;0.438;0.458;-2.090380907058716;-1.1252137422561646;-0.7195992469787598
01:00:0A:00:00:00:00;1722730255;04/08/24;00:10:55;0.894;0.287;0.431;0.24068090319633484;0.15027284622192383;0.8197811245918274
01:00:0A:00:00:00:00;1722730256;04/08/24;00:10:56;1.005;-0.203;0.025;-0.6243042349815369;-0.45814892649650574;-0.0012217304902151227
01:00:0A:00:00:00:00;1722730257;04/08/24;00:10:57;1.017;0.143;0.07;-0.6609562039375305;0.2883284091949463;-0.1270599663257599
01:00:0A:00:00:00:00;1722730258;04/08/24;00:10:58;0.948;-0.429;0.173;-0.32620203495025635;-0.19425514340400696;0.7220427393913269
01:00:0A:00:00:00:00;1722730259;04/08/24;00:10:59;1.007;-0.238;0.031;0.161268413066864;0.015882495790719986;-0.3897320330142975
01:00:0A:00:00:00:00;1722730260;04/08/24;00:11:00;1.014;0.025;-0.101;0.17470745742321014;-0.1270599663257599;0.1160643920302391
01:00:0A:00:00:00:00;1722730261;04/08/24;00:11:01;0.992;-0.218;0.256;0.20036379992961884;0.014660765416920185;0.1258382350206375
01:00:0A:00:00:00:00;1722730262;04/08/24;00:11:02;1.023;-0.1;0.154;0.1514945775270462;-0.2431243658065796;-0.08185594528913498
01:00:0A:00:00:00:00;1722730263;04/08/24;00:11:03;1.015;0.057;0.026;0.04642575979232788;-0.05009094998240471;-0.09162978082895279
01:00:0A:00:00:00:00;1722730264;04/08/24;00:11:04;0.971;0.028;0.132;-0.08796459436416626;0.2822197377681732;0.05742133408784866
01:00:0A:00:00:00:00;1722730265;04/08/24;00:11:05;0.955;0.097;0.174;-0.4056144952774048;-0.09040805697441101;-0.2125810980796814
01:00:0A:00:00:00:00;1722730266;04/08/24;00:11:06;0.98;0.091;0.16;-0.8319984674453735;-0.2382374405860901;0.18570303916931152
01:00:0A:00:00:00:00;1722730267;04/08/24;00:11:07;1.012;-0.163;0.105;-0.7696901559829712;0.18448130786418915;-0.24556782841682434
01:00:0A:00:00:00:00;1722730268;04/08/24;00:11:08;1.048;-0.042;0.202;-0.7709119319915771;-0.15027284622192383;-0.1918116807937622
01:00:0A:00:00:00:00;1722730269;04/08/24;00:11:09;1.043;-0.055;-0.116;-0.7134906053543091;-0.19303341209888458;0.10506881773471832
01:00:0A:00:00:00:00;1722730270;04/08/24;00:11:10;0.997;-0.1;0.21;-0.5571090579032898;0.3127630054950714;-0.028099799528717995
01:00:0A:00:00:00:00;1722730271;04/08/24;00:11:11;0.956;0.078;0.025;-0.6047565937042236;-0.37629297375679016;-0.37140607833862305
01:00:0A:00:00:00:00;1722730272;04/08/24;00:11:12;0.943;-0.035;0.086;-0.7318165302276611;0.1722639948129654;0.5632177591323853
01:00:0A:00:00:00:00;1722730273;04/08/24;00:11:13;0.976;-0.083;0.014;0.06841690838336945;-0.27122414112091064;-0.6719517707824707
01:00:0A:00:00:00:00;1722730274;04/08/24;00:11:14;1.002;0.093;0.041;-0.15027284622192383;0.4031710624694824;0.587652325630188
01:00:0A:00:00:00:00;1722730275;04/08/24;00:11:15;0.935;-0.308;0.375;-0.12217304855585098;-0.2773328125476837;-0.20525071024894714
01:00:0A:00:00:00:00;1722730276;04/08/24;00:11:16;1.049;0.097;0.0;-0.04764748737215996;-0.14905111491680145;-0.12461651116609573
01:00:0A:00:00:00:00;1722730277;04/08/24;00:11:17;1.026;0.042;0.151;-0.08552113175392151;0.2480112910270691;0.1319468915462494
01:00:0A:00:00:00:00;1722730278;04/08/24;00:11:18;0.957;-0.114;0.14;-0.1014036238193512;0.00855211354792118;0.05253440886735916
01:00:0A:00:00:00:00;1722730279;04/08/24;00:11:19;0.947;0.013;0.051;0.012217304669320583;-0.14538592100143433;-0.38728854060173035
01:00:0A:00:00:00:00;1722730280;04/08/24;00:11:20;1.001;0.036;0.024;-0.1466076523065567;0.14294245839118958;0.4031710624694824
01:00:0A:00:00:00:00;1722730281;04/08/24;00:11:21;1.002;-0.211;0.193;0.06475171446800232;-0.23945917189121246;-0.6181955933570862
01:00:0A:00:00:00:00;1722730282;04/08/24;00:11:22;1.028;0.34;-0.067;-0.16249015927314758;0.01710422709584236;0.25045475363731384
01:00:0A:00:00:00:00;1722730283;04/08/24;00:11:23;0.983;-0.474;0.288;-0.10995574295520782;0.059864792972803116;-0.0024434609804302454
01:00:0A:00:00:00:00;1722730284;04/08/24;00:11:24;1.021;0.286;-0.025;-0.04886921867728233;-0.28099802136421204;-0.4593706727027893
01:00:0A:00:00:00:00;1722730285;04/08/24;00:11:25;0.996;-0.177;0.155;-0.2577851116657257;0.21502456068992615;0.6218608021736145
01:00:0A:00:00:00:00;1722730286;04/08/24;00:11:26;0.947;0.025;0.097;-0.03176499158143997;-0.16493360698223114;-0.4862487316131592
01:00:0A:00:00:00:00;1722730287;04/08/24;00:11:27;0.964;0.085;0.098;-0.26633724570274353;0.11239919811487198;0.5057964324951172
01:00:0A:00:00:00:00;1722730288;04/08/24;00:11:28;0.996;-0.166;0.179;-0.028099799528717995;-0.059864792972803116;-0.5742133259773254
01:00:0A:00:00:00:00;1722730289;04/08/24;00:11:29;1.031;0.293;0.06;-0.27122414112091064;0.09407324343919754;0.2590068578720093
01:00:0A:00:00:00:00;1722730290;04/08/24;00:11:30;1.008;-0.403;0.133;-0.17104226350784302;0.1258382350206375;-0.05009094998240471
01:00:0A:00:00:00:00;1722730291;04/08/24;00:11:31;1.016;0.287;0.071;-0.12339477241039276;-0.0708603635430336;-0.4398229718208313
01:00:0A:00:00:00:00;1722730292;04/08/24;00:11:32;1.015;-0.212;0.085;-0.3298672139644623;-0.00855211354792118;0.44715335965156555
01:00:0A:00:00:00:00;1722730293;04/08/24;00:11:33;0.984;-0.06;0.108;-0.051312677562236786;0.00855211354792118;-0.3591887652873993
01:00:0A:00:00:00:00;1722730294;04/08/24;00:11:34;0.978;0.007;0.093;-0.17348572611808777;-0.0073303827084600925;0.13805554807186127
01:00:0A:00:00:00:00;1722730295;04/08/24;00:11:35;0.996;-0.107;0.126;-0.12339477241039276;0.04398229718208313;0.014660765416920185
01:00:0A:00:00:00:00;1722730296;04/08/24;00:11:36;1.027;-0.055;0.155;-0.05253440886735916;-0.021991148591041565;-0.17348572611808777
01:00:0A:00:00:00:00;1722730297;04/08/24;00:11:37;1.033;0.062;0.065;-0.10384709388017654;0.0073303827084600925;0.0024434609804302454
01:00:0A:00:00:00:00;1722730298;04/08/24;00:11:38;1.009;-0.087;0.091;-0.1014036238193512;0.06719517707824707;0.13561207056045532
01:00:0A:00:00:00:00;1722730299;04/08/24;00:11:39;0.995;-0.007;0.113;-0.01710422709584236;-0.025656338781118393;-0.17592918872833252
01:00:0A:00:00:00:00;1722730300;04/08/24;00:11:40;0.997;0.045;0.089;-0.11972958594560623;-0.07696902006864548;0.09162978082895279
01:00:0A:00:00:00:00;1722730301;04/08/24;00:11:41;1.013;-0.06;0.107;-0.080634206533432;0.03420845419168472;0.009773843921720982
01:00:0A:00:00:00:00;1722730302;04/08/24;00:11:42;1.028;-0.014;0.153;-0.05864306166768074;-0.004886921960860491;-0.08429940044879913
01:00:0A:00:00:00:00;1722730303;04/08/24;00:11:43;1.026;0.018;0.105;-0.11850785464048386;-0.02076941914856434;0.004886921960860491
01:00:0A:00:00:00:00;1722730304;04/08/24;00:11:44;1.011;-0.07;0.109;-0.10751228034496307;0.051312677562236786;0.059864792972803116
01:00:0A:00:00:00:00;1722730305;04/08/24;00:11:45;0.99;-0.031;0.106;-0.05497787147760391;0.02687807008624077;-0.08429940044879913
01:00:0A:00:00:00:00;1722730306;04/08/24;00:11:46;0.984;-0.012;0.105;-0.1111774742603302;-0.010995574295520782;0.05497787147760391
01:00:0A:00:00:00:00;1722730307;04/08/24;00:11:47;0.997;-0.036;0.101;-0.10873401165008545;-0.04398229718208313;-0.03298672288656235
01:00:0A:00:00:00:00;1722730308;04/08/24;00:11:48;1.016;0.0;0.117;-0.12095131725072861;-0.059864792972803116;-0.06475171446800232
01:00:0A:00:00:00:00;1722730309;04/08/24;00:11:49;1.032;0.007;0.137;-0.16249015927314758;-0.04764748737215996;-0.009773843921720982
01:00:0A:00:00:00:00;1722730310;04/08/24;00:11:50;1.031;-0.065;0.125;-0.1368338167667389;-0.0012217304902151227;-0.018325956538319588
01:00:0A:00:00:00:00;1722730311;04/08/24;00:11:51;1.023;-0.034;0.143;-0.10506881773471832;0.04153883829712868;-0.051312677562236786
01:00:0A:00:00:00:00;1722730312;04/08/24;00:11:52;1.01;-0.031;0.117;-0.1270599663257599;-0.02932153083384037;0.0024434609804302454
01:00:0A:00:00:00:00;1722730313;04/08/24;00:11:53;0.999;-0.057;0.088;-0.09407324343919754;-0.015882495790719986;0.0073303827084600925
01:00:0A:00:00:00:00;1722730314;04/08/24;00:11:54;0.988;-0.035;0.105;-0.05375614017248154;-0.013439035043120384;-0.01710422709584236
01:00:0A:00:00:00:00;1722730315;04/08/24;00:11:55;0.992;-0.021;0.103;-0.0708603635430336;-0.10018189996480942;0.018325956538319588
01:00:0A:00:00:00:00;1722730316;04/08/24;00:11:56;1.025;-0.033;0.081;-0.030543262138962746;-0.04642575979232788;-0.01710422709584236
01:00:0A:00:00:00:00;1722730317;04/08/24;00:11:57;1.042;-0.021;0.134;-0.009773843921720982;-0.06841690838336945;-0.03298672288656235
01:00:0A:00:00:00:00;1722730318;04/08/24;00:11:58;1.056;-0.04;0.123;-0.009773843921720982;-0.04886921867728233;-0.018325956538319588
01:00:0A:00:00:00:00;1722730319;04/08/24;00:11:59;1.042;-0.053;0.122;0.0036651913542300463;0.012217304669320583;0.014660765416920185
01:00:0A:00:00:00:00;1722730320;04/08/24;00:12:00;0.994;-0.05;0.122;0.009773843921720982;0.05375614017248154;0.05253440886735916
01:00:0A:00:00:00:00;1722730321;04/08/24;00:12:01;0.965;-0.04;0.087;0.012217304669320583;0.004886921960860491;0.07208210229873657
01:00:0A:00:00:00:00;1722730322;04/08/24;00:12:02;0.976;-0.034;0.087;0.04886921867728233;0.0354301817715168;-0.0024434609804302454
01:00:0A:00:00:00:00;1722730323;04/08/24;00:12:03;1.023;-0.009;0.107;0.021991148591041565;-0.07452555745840073;0.03420845419168472
01:00:0A:00:00:00:00;1722730324;04/08/24;00:12:04;1.05;-0.046;0.09;0.0354301817715168;-0.04886921867728233;-0.006108652334660292
01:00:0A:00:00:00:00;1722730325;04/08/24;00:12:05;1.053;-0.009;0.143;0.03176499158143997;-0.004886921960860491;-0.004886921960860491
01:00:0A:00:00:00:00;1722730326;04/08/24;00:12:06;1.036;-0.027;0.116;0.00855211354792118;-0.015882495790719986;0.04153883829712868
01:00:0A:00:00:00:00;1722730327;04/08/24;00:12:07;0.983;-0.017;0.109;0.03298672288656235;0.0708603635430336;-0.015882495790719986
01:00:0A:00:00:00:00;1722730328;04/08/24;00:12:08;0.966;-0.009;0.104;0.01710422709584236;0.028099799528717995;-0.03176499158143997
01:00:0A:00:00:00:00;1722730329;04/08/24;00:12:09;0.994;-0.024;0.091;-0.0012217304902151227;-0.0012217304902151227;-0.013439035043120384
01:00:0A:00:00:00:00;1722730330;04/08/24;00:12:10;1.043;-0.044;0.108;-0.00855211354792118;-0.04764748737215996;-0.030543262138962746
01:00:0A:00:00:00:00;1722730331;04/08/24;00:12:11;1.058;-0.015;0.112;-0.039095375686883926;-0.02932153083384037;0.030543262138962746
01:00:0A:00:00:00:00;1722730332;04/08/24;00:12:12;1.031;-0.029;0.114;-0.06230825558304787;-0.00855211354792118;0.06719517707824707
01:00:0A:00:00:00:00;1722730333;04/08/24;00:12:13;0.993;-0.007;0.104;-0.06352998316287994;-0.010995574295520782;-0.013439035043120384
01:00:0A:00:00:00:00;1722730334;04/08/24;00:12:14;0.942;-0.004;0.1;-0.08552113175392151;-0.0659734457731247;0.0012217304902151227
01:00:0A:00:00:00:00;1722730335;04/08/24;00:12:15;0.958;-0.016;0.104;-0.0757472887635231;-0.05253440886735916;-0.06230825558304787
01:00:0A:00:00:00:00;1722730336;04/08/24;00:12:16;1.021;-0.032;0.129;-0.09529497474431992;-0.04153883829712868;-0.0012217304902151227
01:00:0A:00:00:00:00;1722730337;04/08/24;00:12:17;1.053;-0.05;0.121;-0.08307767659425735;0.014660765416920185;-0.025656338781118393
01:00:0A:00:00:00:00;1722730338;04/08/24;00:12:18;1.06;-0.012;0.127;-0.11362093687057495;0.028099799528717995;0.05497787147760391
01:00:0A:00:00:00:00;1722730339;04/08/24;00:12:19;1.014;-0.021;0.088;-0.13316862285137177;-0.012217304669320583;0.080634206533432
01:00:0A:00:00:00:00;1722730340;04/08/24;00:12:20;0.977;0.007;0.116;-0.10995574295520782;0.036651913076639175;-0.02687807008624077
01:00:0A:00:00:00:00;1722730341;04/08/24;00:12:21;0.971;0.0;0.125;-0.15271630883216858;-0.07330382615327835;0.006108652334660292
01:00:0A:00:00:00:00;1722730342;04/08/24;00:12:22;0.996;-0.034;0.106;-0.13072516024112701;0.0;-0.040317103266716
01:00:0A:00:00:00:00;1722730343;04/08/24;00:12:23;1.033;-0.028;0.145;-0.13561207056045532;0.0036651913542300463;-0.019547687843441963
01:00:0A:00:00:00:00;1722730344;04/08/24;00:12:24;1.047;-0.034;0.126;-0.15271630883216858;-0.021991148591041565;0.015882495790719986
01:00:0A:00:00:00:00;1722730345;04/08/24;00:12:25;1.034;-0.028;0.107;-0.13927726447582245;0.025656338781118393;0.02932153083384037
01:00:0A:00:00:00:00;1722730346;04/08/24;00:12:26;1.012;-0.022;0.139;-0.1368338167667389;0.04642575979232788;0.0073303827084600925
01:00:0A:00:00:00:00;1722730347;04/08/24;00:12:27;0.985;-0.018;0.102;-0.1514945775270462;-0.03298672288656235;-0.0036651913542300463
01:00:0A:00:00:00:00;1722730348;04/08/24;00:12:28;0.981;-0.016;0.099;-0.1417207270860672;0.03176499158143997;0.0012217304902151227
01:00:0A:00:00:00:00;1722730349;04/08/24;00:12:29;0.996;-0.026;0.13;-0.15027284622192383;-0.03787364438176155;-0.02687807008624077
01:00:0A:00:00:00:00;1722730350;04/08/24;00:12:30;1.033;-0.018;0.115;-0.15027284622192383;-0.02076941914856434;-0.040317103266716
01:00:0A:00:00:00:00;1722730351;04/08/24;00:12:31;1.048;-0.022;0.114;-0.15027284622192383;0.028099799528717995;-0.019547687843441963
01:00:0A:00:00:00:00;1722730352;04/08/24;00:12:32;1.049;-0.043;0.131;-0.15271630883216858;0.03176499158143997;-0.018325956538319588
01:00:0A:00:00:00:00;1722730353;04/08/24;00:12:33;1.041;-0.025;0.084;-0.15515977144241333;0.0012217304902151227;-0.018325956538319588
01:00:0A:00:00:00:00;1722730354;04/08/24;00:12:34;0.998;-0.034;0.09;-0.16493360698223114;0.021991148591041565;0.04886921867728233
01:00:0A:00:00:00:00;1722730355;04/08/24;00:12:35;0.98;-0.021;0.081;-0.16004669666290283;-0.06108652427792549;-0.019547687843441963
01:00:0A:00:00:00:00;1722730356;04/08/24;00:12:36;0.973;-0.013;0.085;-0.16493360698223114;-0.06352998316287994;-0.018325956538319588
01:00:0A:00:00:00:00;1722730357;04/08/24;00:12:37;0.999;-0.029;0.118;-0.16249015927314758;-0.059864792972803116;-0.04153883829712868
01:00:0A:00:00:00:00;1722730358;04/08/24;00:12:38;1.019;-0.039;0.13;-0.161268413066864;-0.04642575979232788;-0.05619959905743599
01:00:0A:00:00:00:00;1722730359;04/08/24;00:12:39;1.043;-0.028;0.123;-0.17959438264369965;0.009773843921720982;0.013439035043120384
01:00:0A:00:00:00:00;1722730360;04/08/24;00:12:40;1.048;-0.055;0.123;-0.18814648687839508;0.019547687843441963;0.045204028487205505
01:00:0A:00:00:00:00;1722730361;04/08/24;00:12:41;1.039;-0.013;0.115;-0.1918116807937622;0.014660765416920185;0.036651913076639175
01:00:0A:00:00:00:00;1722730362;04/08/24;00:12:42;1.019;-0.007;0.119;-0.20525071024894714;0.018325956538319588;0.040317103266716
01:00:0A:00:00:00:00;1722730363;04/08/24;00:12:43;0.979;-0.003;0.103;-0.1966986060142517;-0.0012217304902151227;-0.019547687843441963
01:00:0A:00:00:00:00;1722730364;04/08/24;00:12:44;0.968;-0.002;0.101;-0.19303341209888458;-0.0024434609804302454;-0.06475171446800232
01:00:0A:00:00:00:00;1722730365;04/08/24;00:12:45;0.985;-0.016;0.108;-0.2125810980796814;-0.03420845419168472;-0.0354301817715168
01:00:0A:00:00:00:00;1722730366;04/08/24;00:12:46;1.035;-0.038;0.112;-0.20525071024894714;-0.025656338781118393;-0.06230825558304787
01:00:0A:00:00:00:00;1722730367;04/08/24;00:12:47;1.057;-0.011;0.116;-0.2223549485206604;-0.013439035043120384;-0.010995574295520782
01:00:0A:00:00:00:00;1722730368;04/08/24;00:12:48;1.061;-0.053;0.022;-0.46547931432724;0.018325956538319588;0.0354301817715168
01:00:0A:00:00:00:00;1722730369;04/08/24;00:12:49;1.021;-0.039;0.235;-0.41294488310813904;0.15882496535778046;0.012217304669320583
01:00:0A:00:00:00:00;1722730370;04/08/24;00:12:50;0.982;0.012;0.047;-0.41661006212234497;-0.27000245451927185;-0.11362093687057495
01:00:0A:00:00:00:00;1722730371;04/08/24;00:12:51;0.948;-0.037;0.122;-0.375071257352829;0.2015855312347412;0.161268413066864
01:00:0A:00:00:00:00;1722730372;04/08/24;00:12:52;0.967;-0.067;0.136;-0.2785545289516449;-0.24068090319633484;-0.3188716471195221
01:00:0A:00:00:00:00;1722730373;04/08/24;00:12:53;1.035;0.058;0.066;-0.3335324227809906;0.05253440886735916;0.1820378452539444
01:00:0A:00:00:00:00;1722730374;04/08/24;00:12:54;1.051;-0.195;0.148;-0.22113320231437683;-0.04764748737215996;-0.1160643920302391
01:00:0A:00:00:00:00;1722730375;04/08/24;00:12:55;1.057;0.162;0.107;-0.23335053026676178;-0.03176499158143997;-0.10262535512447357
01:00:0A:00:00:00:00;1722730376;04/08/24;00:12:56;1.029;-0.219;0.094;-0.2687807083129883;-0.010995574295520782;0.32498031854629517
01:00:0A:00:00:00:00;1722730377;04/08/24;00:12:57;0.976;0.084;0.127;-0.07208210229873657;0.1160643920302391;-0.436157763004303
01:00:0A:00:00:00:00;1722730378;04/08/24;00:12:58;0.964;-0.052;0.075;-0.3237585723400116;-0.13561207056045532;0.3897320330142975
01:00:0A:00:00:00:00;1722730379;04/08/24;00:12:59;0.97;-0.085;0.056;-0.051312677562236786;0.16982054710388184;-0.3188716471195221
01:00:0A:00:00:00:00;1722730380;04/08/24;00:13:00;0.988;0.073;0.145;-0.22113320231437683;-0.1820378452539444;0.09407324343919754
01:00:0A:00:00:00:00;1722730381;04/08/24;00:13:01;1.039;-0.07;0.055;-0.21013763546943665;-0.0659734457731247;0.015882495790719986
01:00:0A:00:00:00:00;1722730382;04/08/24;00:13:02;1.041;-0.062;0.133;-0.11728612333536148;0.08796459436416626;-0.06841690838336945
01:00:0A:00:00:00:00;1722730383;04/08/24;00:13:03;1.023;0.017;0.173;-0.1918116807937622;0.0073303827084600925;-0.0024434609804302454
01:00:0A:00:00:00:00;1722730384;04/08/24;00:13:04;1.008;-0.04;0.055;-0.2370157092809677;-0.0659734457731247;0.13072516024112701
01:00:0A:00:00:00:00;1722730385;04/08/24;00:13:05;0.996;-0.014;0.111;-0.14049901068210602;0.14782939851284027;-0.030543262138962746
01:00:0A:00:00:00:00;1722730386;04/08/24;00:13:06;0.986;0.027;0.154;-0.20525071024894714;-0.0757472887635231;-0.040317103266716
01:00:0A:00:00:00:00;1722730387;04/08/24;00:13:07;1.001;0.003;0.081;-0.22602014243602753;-0.040317103266716;-0.01710422709584236
01:00:0A:00:00:00:00;1722730388;04/08/24;00:13:08;1.019;-0.027;0.105;-0.1771509200334549;0.10995574295520782;-0.06108652427792549
01:00:0A:00:00:00:00;1722730389;04/08/24;00:13:09;1.024;-0.024;0.166;-0.20647244155406952;-0.004886921960860491;-0.0708603635430336
01:00:0A:00:00:00:00;1722730390;04/08/24;00:13:10;1.032;-0.009;0.055;-0.2223549485206604;-0.06719517707824707;-0.040317103266716
01:00:0A:00:00:00:00;1722730391;04/08/24;00:13:11;1.0;-0.035;0.103;-0.20402899384498596;0.06352998316287994;0.025656338781118393
01:00:0A:00:00:00:00;1722730392;04/08/24;00:13:12;0.98;-0.036;0.123;-0.19425514340400696;-0.059864792972803116;-0.0757472887635231
01:00:0A:00:00:00:00;1722730393;04/08/24;00:13:13;0.985;-0.013;0.097;-0.20036379992961884;-0.07819075137376785;-0.05619959905743599
01:00:0A:00:00:00:00;1722730394;04/08/24;00:13:14;1.004;-0.029;0.108;-0.2015855312347412;0.015882495790719986;0.006108652334660292
01:00:0A:00:00:00:00;1722730395;04/08/24;00:13:15;1.03;-0.061;0.141;-0.1820378452539444;-0.02687807008624077;-0.04764748737215996
01:00:0A:00:00:00:00;1722730396;04/08/24;00:13:16;1.04;-0.002;0.108;-0.18814648687839508;-0.02687807008624077;-0.013439035043120384
01:00:0A:00:00:00:00;1722730397;04/08/24;00:13:17;1.033;-0.037;0.114;-0.1966986060142517;0.010995574295520782;0.036651913076639175
01:00:0A:00:00:00:00;1722730398;04/08/24;00:13:18;1.006;-0.041;0.122;-0.16859880089759827;0.009773843921720982;-0.0036651913542300463
01:00:0A:00:00:00:00;1722730399;04/08/24;00:13:19;0.999;-0.003;0.113;-0.16859880089759827;-0.015882495790719986;-0.025656338781118393
01:00:0A:00:00:00:00;1722730400;04/08/24;00:13:20;0.997;-0.025;0.108;-0.18325956165790558;-0.010995574295520782;0.02687807008624077
01:00:0A:00:00:00:00;1722730401;04/08/24;00:13:21;1.0;-0.034;0.118;-0.14294245839118958;-0.0024434609804302454;-0.07208210229873657
01:00:0A:00:00:00:00;1722730402;04/08/24;00:13:22;1.012;-0.006;0.125;-0.15393804013729095;-0.028099799528717995;-0.040317103266716
01:00:0A:00:00:00:00;1722730403;04/08/24;00:13:23;1.019;-0.03;0.106;-0.16493360698223114;0.0024434609804302454;0.009773843921720982
01:00:0A:00:00:00:00;1722730404;04/08/24;00:13:24;1.024;-0.048;0.11;-0.13805554807186127;0.025656338781118393;-0.01710422709584236
01:00:0A:00:00:00:00;1722730405;04/08/24;00:13:25;1.023;-0.014;0.12;-0.14782939851284027;0.004886921960860491;-0.006108652334660292
01:00:0A:00:00:00:00;1722730406;04/08/24;00:13:26;1.006;-0.018;0.087;-0.16004669666290283;-0.040317103266716;0.02687807008624077
01:00:0A:00:00:00:00;1722730407;04/08/24;00:13:27;0.992;-0.029;0.106;-0.13072516024112701;0.0;-0.036651913076639175
01:00:0A:00:00:00:00;1722730408;04/08/24;00:13:28;0.991;-0.014;0.115;-0.13316862285137177;-0.05009094998240471;-0.06352998316287994
01:00:0A:00:00:00:00;1722730409;04/08/24;00:13:29;1.014;-0.024;0.11;-0.14782939851284027;-0.04642575979232788;-0.028099799528717995
01:00:0A:00:00:00:00;1722730409;04/08/24;00:13:29;1.029;-0.056;0.115;-0.13439035415649414;-0.01710422709584236;-0.03420845419168472
01:00:0A:00:00:00:00;1722730410;04/08/24;00:13:30;1.037;-0.036;0.135;-0.14049901068210602;-0.010995574295520782;-0.0024434609804302454
01:00:0A:00:00:00:00;1722730411;04/08/24;00:13:31;1.028;-0.029;0.116;-0.1576032191514969;-0.018325956538319588;0.039095375686883926
01:00:0A:00:00:00:00;1722730412;04/08/24;00:13:32;0.999;-0.035;0.118;-0.14782939851284027;0.02932153083384037;0.04153883829712868
01:00:0A:00:00:00:00;1722730413;04/08/24;00:13:33;0.984;-0.017;0.116;-0.13805554807186127;-0.012217304669320583;-0.021991148591041565
01:00:0A:00:00:00:00;1722730414;04/08/24;00:13:34;0.993;-0.005;0.107;-0.1576032191514969;-0.03298672288656235;0.0012217304902151227
01:00:0A:00:00:00:00;1722730415;04/08/24;00:13:35;1.02;-0.034;0.118;-0.13927726447582245;-0.00855211354792118;-0.051312677562236786
01:00:0A:00:00:00:00;1722730416;04/08/24;00:13:36;1.028;-0.025;0.137;-0.13927726447582245;-0.010995574295520782;-0.04886921867728233
01:00:0A:00:00:00:00;1722730417;04/08/24;00:13:37;1.028;-0.033;0.122;-0.15882496535778046;0.010995574295520782;0.0073303827084600925
01:00:0A:00:00:00:00;1722730418;04/08/24;00:13:38;1.019;-0.044;0.109;-0.1563815027475357;0.039095375686883926;0.03298672288656235
01:00:0A:00:00:00:00;1722730419;04/08/24;00:13:39;1.004;-0.011;0.114;-0.15882496535778046;0.039095375686883926;0.01710422709584236
01:00:0A:00:00:00:00;1722730420;04/08/24;00:13:40;1.0;-0.003;0.114;-0.18570303916931152;-0.010995574295520782;0.02687807008624077
01:00:0A:00:00:00:00;1722730421;04/08/24;00:13:41;0.997;-0.006;0.103;-0.17837265133857727;0.004886921960860491;-0.030543262138962746
01:00:0A:00:00:00:00;1722730422;04/08/24;00:13:42;1.001;-0.017;0.12;-0.17837265133857727;0.0012217304902151227;-0.06108652427792549
01:00:0A:00:00:00:00;1722730423;04/08/24;00:13:43;1.006;-0.032;0.117;-0.19792033731937408;-0.0354301817715168;-0.039095375686883926
01:00:0A:00:00:00:00;1722730424;04/08/24;00:13:44;1.016;-0.037;0.101;-0.19425514340400696;-0.0073303827084600925;-0.00855211354792118
01:00:0A:00:00:00:00;1722730425;04/08/24;00:13:45;1.017;-0.036;0.122;-0.19303341209888458;-0.01710422709584236;0.0024434609804302454
01:00:0A:00:00:00:00;1722730426;04/08/24;00:13:46;1.016;-0.022;0.12;-0.19058994948863983;-0.02932153083384037;-0.014660765416920185
01:00:0A:00:00:00:00;1722730427;04/08/24;00:13:47;1.017;-0.018;0.116;-0.17959438264369965;0.013439035043120384;-0.012217304669320583
01:00:0A:00:00:00:00;1722730428;04/08/24;00:13:48;1.016;-0.031;0.119;-0.16982054710388184;0.03787364438176155;-0.012217304669320583
01:00:0A:00:00:00:00;1722730429;04/08/24;00:13:49;1.016;-0.025;0.101;-0.161268413066864;0.010995574295520782;-0.025656338781118393
01:00:0A:00:00:00:00;1722730430;04/08/24;00:13:50;1.009;-0.02;0.085;-0.15882496535778046;-0.013439035043120384;-0.013439035043120384
01:00:0A:00:00:00:00;1722730431;04/08/24;00:13:51;0.995;-0.031;0.102;-0.14905111491680145;-0.040317103266716;-0.025656338781118393
01:00:0A:00:00:00:00;1722730432;04/08/24;00:13:52;0.988;-0.03;0.11;-0.13805554807186127;-0.05619959905743599;-0.05742133408784866
01:00:0A:00:00:00:00;1722730433;04/08/24;00:13:53;1.005;-0.031;0.115;-0.14049901068210602;-0.040317103266716;-0.039095375686883926
01:00:0A:00:00:00:00;1722730434;04/08/24;00:13:54;1.02;-0.037;0.119;-0.1417207270860672;-0.009773843921720982;-0.028099799528717995
01:00:0A:00:00:00:00;1722730435;04/08/24;00:13:55;1.046;-0.034;0.123;-0.14782939851284027;-0.0012217304902151227;-0.0024434609804302454
01:00:0A:00:00:00:00;1722730436;04/08/24;00:13:56;1.054;-0.027;0.112;-0.15271630883216858;-0.0036651913542300463;0.012217304669320583
01:00:0A:00:00:00:00;1722730437;04/08/24;00:13:57;1.03;-0.028;0.117;-0.15271630883216858;0.0073303827084600925;0.02687807008624077
01:00:0A:00:00:00:00;1722730438;04/08/24;00:13:58;0.985;-0.023;0.111;-0.14905111491680145;-0.004886921960860491;0.0024434609804302454
01:00:0A:00:00:00:00;1722730439;04/08/24;00:13:59;0.967;-0.028;0.102;-0.1466076523065567;-0.01710422709584236;0.009773843921720982
01:00:0A:00:00:00:00;1722730440;04/08/24;00:14:00;0.979;-0.026;0.108;-0.13072516024112701;-0.009773843921720982;-0.006108652334660292
01:00:0A:00:00:00:00;1722730441;04/08/24;00:14:01;1.0;-0.026;0.118;-0.12828169763088226;-0.042760565876960754;-0.009773843921720982
01:00:0A:00:00:00:00;1722730442;04/08/24;00:14:02;1.032;-0.025;0.115;-0.11728612333536148;-0.013439035043120384;-0.00855211354792118
01:00:0A:00:00:00:00;1722730443;04/08/24;00:14:03;1.036;-0.027;0.119;-0.1062905490398407;0.018325956538319588;0.006108652334660292
01:00:0A:00:00:00:00;1722730444;04/08/24;00:14:04;1.029;-0.026;0.12;-0.10262535512447357;0.010995574295520782;0.0012217304902151227
01:00:0A:00:00:00:00;1722730445;04/08/24;00:14:05;1.017;-0.021;0.105;-0.09651670604944229;0.0;-0.0036651913542300463
01:00:0A:00:00:00:00;1722730446;04/08/24;00:14:06;0.999;-0.024;0.107;-0.08918632566928864;0.013439035043120384;-0.00855211354792118
01:00:0A:00:00:00:00;1722730447;04/08/24;00:14:07;0.993;-0.036;0.116;-0.08552113175392151;-0.018325956538319588;-0.019547687843441963
01:00:0A:00:00:00:00;1722730448;04/08/24;00:14:08;0.997;-0.024;0.105;-0.08429940044879913;-0.03176499158143997;-0.025656338781118393
01:00:0A:00:00:00:00;1722730449;04/08/24;00:14:09;1.008;-0.028;0.109;-0.08429940044879913;-0.010995574295520782;0.0012217304902151227
01:00:0A:00:00:00:00;1722730450;04/08/24;00:14:10;1.014;-0.041;0.124;-0.07941248267889023;-0.03176499158143997;-0.021991148591041565
01:00:0A:00:00:00:00;1722730451;04/08/24;00:14:11;1.025;-0.028;0.113;-0.07941248267889023;-0.01710422709584236;-0.012217304669320583
01:00:0A:00:00:00:00;1722730452;04/08/24;00:14:12;1.028;-0.03;0.112;-0.08674286305904388;0.0073303827084600925;0.024434609338641167
01:00:0A:00:00:00:00;1722730453;04/08/24;00:14:13;1.022;-0.04;0.122;-0.08429940044879913;-0.00855211354792118;0.018325956538319588
01:00:0A:00:00:00:00;1722730454;04/08/24;00:14:14;1.016;-0.017;0.109;-0.07941248267889023;-0.019547687843441963;-0.012217304669320583
01:00:0A:00:00:00:00;1722730455;04/08/24;00:14:15;1.004;-0.025;0.118;-0.08796459436416626;-0.006108652334660292;0.018325956538319588
01:00:0A:00:00:00:00;1722730456;04/08/24;00:14:16;0.996;-0.038;0.122;-0.07696902006864548;-0.00855211354792118;-0.02076941914856434
01:00:0A:00:00:00:00;1722730457;04/08/24;00:14:17;1.0;-0.023;0.114;-0.07330382615327835;-0.0073303827084600925;-0.028099799528717995
01:00:0A:00:00:00:00;1722730458;04/08/24;00:14:18;1.011;-0.032;0.111;-0.08552113175392151;-0.0012217304902151227;0.028099799528717995
01:00:0A:00:00:00:00;1722730459;04/08/24;00:14:19;1.019;-0.045;0.109;-0.07208210229873657;-0.013439035043120384;-0.009773843921720982
01:00:0A:00:00:00:00;1722730460;04/08/24;00:14:20;1.023;-0.012;0.11;-0.07452555745840073;-0.024434609338641167;0.0024434609804302454
01:00:0A:00:00:00:00;1722730461;04/08/24;00:14:21;1.016;-0.026;0.112;-0.08674286305904388;-0.014660765416920185;0.040317103266716
01:00:0A:00:00:00:00;1722730462;04/08/24;00:14:22;1.003;-0.029;0.115;-0.06963863223791122;0.004886921960860491;-0.0024434609804302454
01:00:0A:00:00:00:00;1722730463;04/08/24;00:14:23;0.998;-0.01;0.116;-0.07330382615327835;-0.004886921960860491;-0.009773843921720982
01:00:0A:00:00:00:00;1722730464;04/08/24;00:14:24;1.007;-0.021;0.11;-0.08307767659425735;-0.01710422709584236;0.0012217304902151227
01:00:0A:00:00:00:00;1722730465;04/08/24;00:14:25;1.02;-0.036;0.107;-0.06475171446800232;0.004886921960860491;-0.030543262138962746
01:00:0A:00:00:00:00;1722730466;04/08/24;00:14:26;1.019;-0.02;0.118;-0.0708603635430336;-0.0024434609804302454;-0.01710422709584236
01:00:0A:00:00:00:00;1722730467;04/08/24;00:14:27;1.01;-0.036;0.099;-0.08429940044879913;-0.015882495790719986;0.030543262138962746
01:00:0A:00:00:00:00;1722730468;04/08/24;00:14:28;0.998;-0.03;0.103;-0.06230825558304787;0.01710422709584236;0.0012217304902151227
01:00:0A:00:00:00:00;1722730469;04/08/24;00:14:29;0.994;-0.015;0.111;-0.0708603635430336;-0.030543262138962746;-0.0012217304902151227
01:00:0A:00:00:00:00;1722730470;04/08/24;00:14:30;1.008;-0.022;0.102;-0.07330382615327835;-0.05253440886735916;-0.014660765416920185
01:00:0A:00:00:00:00;1722730471;04/08/24;00:14:31;1.03;-0.033;0.112;-0.05742133408784866;-0.014660765416920185;-0.036651913076639175
01:00:0A:00:00:00:00;1722730472;04/08/24;00:14:32;1.033;-0.026;0.136;-0.06963863223791122;-0.01710422709584236;-0.021991148591041565
01:00:0A:00:00:00:00;1722730473;04/08/24;00:14:33;1.022;-0.044;0.112;-0.08185594528913498;-0.013439035043120384;0.024434609338641167
01:00:0A:00:00:00:00;1722730474;04/08/24;00:14:34;0.999;-0.028;0.11;-0.0708603635430336;0.02321287989616394;0.018325956538319588
01:00:0A:00:00:00:00;1722730475;04/08/24;00:14:35;0.989;-0.02;0.121;-0.08185594528913498;-0.013439035043120384;0.018325956538319588
01:00:0A:00:00:00:00;1722730476;04/08/24;00:14:36;0.998;-0.018;0.107;-0.08429940044879913;-0.036651913076639175;-0.006108652334660292
01:00:0A:00:00:00:00;1722730477;04/08/24;00:14:37;1.012;-0.02;0.111;-0.06841690838336945;0.0012217304902151227;-0.03787364438176155
01:00:0A:00:00:00:00;1722730478;04/08/24;00:14:38;1.026;-0.032;0.13;-0.08185594528913498;-0.014660765416920185;-0.02076941914856434
01:00:0A:00:00:00:00;1722730479;04/08/24;00:14:39;1.031;-0.037;0.106;-0.08918632566928864;-0.021991148591041565;0.0012217304902151227
01:00:0A:00:00:00:00;1722730480;04/08/24;00:14:40;1.016;-0.035;0.115;-0.08552113175392151;0.004886921960860491;0.021991148591041565
01:00:0A:00:00:00:00;1722730481;04/08/24;00:14:41;1.002;-0.028;0.125;-0.09407324343919754;-0.01710422709584236;0.019547687843441963
01:00:0A:00:00:00:00;1722730482;04/08/24;00:14:42;0.991;-0.016;0.12;-0.09773843735456467;-0.02321287989616394;0.006108652334660292
01:00:0A:00:00:00:00;1722730483;04/08/24;00:14:43;0.999;-0.017;0.12;-0.09162978082895279;0.009773843921720982;-0.013439035043120384
01:00:0A:00:00:00:00;1722730484;04/08/24;00:14:44;1.011;-0.024;0.128;-0.09529497474431992;-0.0073303827084600925;-0.02932153083384037
01:00:0A:00:00:00:00;1722730485;04/08/24;00:14:45;1.027;-0.031;0.112;-0.10018189996480942;0.012217304669320583;-0.012217304669320583
01:00:0A:00:00:00:00;1722730486;04/08/24;00:14:46;1.029;-0.035;0.113;-0.1014036238193512;0.019547687843441963;0.006108652334660292
01:00:0A:00:00:00:00;1722730487;04/08/24;00:14:47;1.015;-0.03;0.111;-0.10506881773471832;-0.0073303827084600925;0.0073303827084600925
01:00:0A:00:00:00:00;1722730488;04/08/24;00:14:48;1.005;-0.023;0.103;-0.1062905490398407;-0.02321287989616394;0.0012217304902151227
01:00:0A:00:00:00:00;1722730489;04/08/24;00:14:49;0.992;-0.024;0.112;-0.10384709388017654;-0.019547687843441963;-0.009773843921720982
01:00:0A:00:00:00:00;1722730490;04/08/24;00:14:50;0.997;-0.032;0.117;-0.1014036238193512;-0.03298672288656235;-0.02932153083384037
01:00:0A:00:00:00:00;1722730491;04/08/24;00:14:51;1.011;-0.031;0.115;-0.10506881773471832;-0.03298672288656235;-0.021991148591041565
01:00:0A:00:00:00:00;1722730492;04/08/24;00:14:52;1.026;-0.04;0.122;-0.10751228034496307;-0.013439035043120384;0.0
01:00:0A:00:00:00:00;1722730493;04/08/24;00:14:53;1.029;-0.039;0.121;-0.10751228034496307;-0.015882495790719986;0.0024434609804302454
01:00:0A:00:00:00:00;1722730494;04/08/24;00:14:54;1.026;-0.033;0.122;-0.11362093687057495;-0.010995574295520782;0.015882495790719986
01:00:0A:00:00:00:00;1722730495;04/08/24;00:14:55;1.022;-0.034;0.118;-0.11484266817569733;-0.006108652334660292;0.018325956538319588
01:00:0A:00:00:00:00;1722730496;04/08/24;00:14:56;1.011;-0.028;0.12;-0.11239919811487198;0.0;0.00855211354792118
01:00:0A:00:00:00:00;1722730497;04/08/24;00:14:57;1.007;-0.027;0.12;-0.11484266817569733;-0.004886921960860491;0.004886921960860491
01:00:0A:00:00:00:00;1722730498;04/08/24;00:14:58;0.999;-0.025;0.112;-0.11484266817569733;-0.0073303827084600925;0.0012217304902151227
01:00:0A:00:00:00:00;1722730499;04/08/24;00:14:59;0.996;-0.028;0.115;-0.10995574295520782;-0.0036651913542300463;-0.013439035043120384
01:00:0A:00:00:00:00;1722730500;04/08/24;00:15:00;1.0;-0.027;0.114;-0.11239919811487198;-0.015882495790719986;-0.012217304669320583
01:00:0A:00:00:00:00;1722730501;04/08/24;00:15:01;1.01;-0.025;0.109;-0.11239919811487198;-0.019547687843441963;-0.009773843921720982
01:00:0A:00:00:00:00;1722730502;04/08/24;00:15:02;1.015;-0.029;0.112;-0.11239919811487198;-0.01710422709584236;-0.0024434609804302454
01:00:0A:00:00:00:00;1722730503;04/08/24;00:15:03;1.021;-0.023;0.115;-0.1111774742603302;-0.025656338781118393;-0.012217304669320583
01:00:0A:00:00:00:00;1722730504;04/08/24;00:15:04;1.019;-0.019;0.108;-0.1111774742603302;-0.015882495790719986;-0.010995574295520782
01:00:0A:00:00:00:00;1722730505;04/08/24;00:15:05;1.016;-0.024;0.118;-0.10995574295520782;0.0;-0.00855211354792118
01:00:0A:00:00:00:00;1722730506;04/08/24;00:15:06;1.016;-0.024;0.116;-0.10995574295520782;-0.014660765416920185;-0.024434609338641167
01:00:0A:00:00:00:00;1722730507;04/08/24;00:15:07;1.01;-0.026;0.107;-0.10995574295520782;-0.0073303827084600925;-0.019547687843441963
01:00:0A:00:00:00:00;1722730508;04/08/24;00:15:08;1.01;-0.036;0.116;-0.11362093687057495;-0.0012217304902151227;-0.006108652334660292
