Source;Epoch timestamp (UTC);Date;Time (UTC);Accel X (G);Accel Y (G);Accel Z (G);Gyro X (rad/s);Gyro Y (rad/s);Gyro Z (rad/s)
01:00:0A:00:00:00:00;1724803209;28/08/24;00:00:09;1.012;-0.057;0.01;-0.09162978082895279;0.05864306166768074;0.1014036238193512
01:00:0A:00:00:00:00;1724803210;28/08/24;00:00:10;0.98;0.032;0.078;-0.004886921960860491;0.1160643920302391;-0.1563815027475357
01:00:0A:00:00:00:00;1724803211;28/08/24;00:00:11;0.985;0.018;0.061;-0.14538592100143433;-0.21135938167572021;0.010995574295520782
01:00:0A:00:00:00:00;1724803212;28/08/24;00:00:12;1.022;-0.067;0.023;-0.024434609338641167;0.04642575979232788;-0.1368338167667389
01:00:0A:00:00:00:00;1724803213;28/08/24;00:00:13;1.044;-0.065;0.106;0.09896016865968704;-0.1673770695924759;0.036651913076639175
01:00:0A:00:00:00:00;1724803214;28/08/24;00:00:14;1.025;-0.027;0.122;0.2871066629886627;0.13805554807186127;0.0
01:00:0A:00:00:00:00;1724803215;28/08/24;00:00:15;0.949;0.015;0.069;0.13316862285137177;-0.018325956538319588;0.09896016865968704
01:00:0A:00:00:00:00;1724803216;28/08/24;00:00:16;0.924;-0.034;0.075;0.6976081132888794;-0.024434609338641167;0.10262535512447357
01:00:0A:00:00:00:00;1724803217;28/08/24;00:00:17;0.991;-0.017;0.044;1.5894713401794434;-0.34086278080940247;0.02932153083384037
01:00:0A:00:00:00:00;1724803218;28/08/24;00:00:18;1.019;-0.154;0.067;1.615127682685852;-0.05009094998240471;-0.7269296050071716
01:00:0A:00:00:00:00;1724803219;28/08/24;00:00:19;0.988;0.205;-0.358;1.2705997228622437;0.7379252314567566;0.50335294008255
01:00:0A:00:00:00:00;1724803220;28/08/24;00:00:20;0.806;0.184;0.651;0.587652325630188;-0.6658430695533752;0.4043927788734436
01:00:0A:00:00:00:00;1724803221;28/08/24;00:00:21;1.071;-0.154;-0.141;0.2981022298336029;-0.41661006212234497;0.17348572611808777
01:00:0A:00:00:00:00;1724803222;28/08/24;00:00:22;1.063;-0.087;0.06;0.6108652353286743;0.10751228034496307;-0.17592918872833252
01:00:0A:00:00:00:00;1724803223;28/08/24;00:00:23;0.962;0.101;0.154;0.35063666105270386;-0.10506881773471832;-0.07330382615327835
01:00:0A:00:00:00:00;1724803224;28/08/24;00:00:24;0.943;-0.108;0.151;0.12095131725072861;-0.16493360698223114;0.5534439086914062
01:00:0A:00:00:00:00;1724803225;28/08/24;00:00:25;0.967;-0.05;0.165;0.4508185386657715;0.0;-0.6133087277412415
01:00:0A:00:00:00:00;1724803226;28/08/24;00:00:26;0.981;0.178;0.043;0.20036379992961884;0.20647244155406952;0.22357667982578278
01:00:0A:00:00:00:00;1724803227;28/08/24;00:00:27;0.994;-0.159;0.103;0.17959438264369965;0.05497787147760391;-0.0354301817715168
01:00:0A:00:00:00:00;1724803228;28/08/24;00:00:28;1.023;-0.086;0.065;0.21502456068992615;-0.2174680233001709;-0.29077184200286865
01:00:0A:00:00:00:00;1724803229;28/08/24;00:00:29;1.03;0.063;-0.03;0.12461651116609573;0.025656338781118393;0.24068090319633484
01:00:0A:00:00:00:00;1724803230;28/08/24;00:00:30;1.024;-0.192;0.201;0.15393804013729095;-0.08552113175392151;0.12217304855585098
01:00:0A:00:00:00:00;1724803231;28/08/24;00:00:31;1.052;0.029;0.05;0.19792033731937408;-0.1820378452539444;-0.04886921867728233
01:00:0A:00:00:00:00;1724803232;28/08/24;00:00:32;1.034;0.0;0.047;0.2577851116657257;0.10262535512447357;0.059864792972803116
01:00:0A:00:00:00:00;1724803233;28/08/24;00:00:33;0.992;-0.081;0.188;0.26633724570274353;0.1270599663257599;0.0012217304902151227
01:00:0A:00:00:00:00;1724803234;28/08/24;00:00:34;1.008;-0.052;0.055;0.21380282938480377;-0.18936821818351746;-0.05619959905743599
01:00:0A:00:00:00:00;1724803235;28/08/24;00:00:35;1.007;-0.054;0.04;0.3090977966785431;0.18325956165790558;0.0354301817715168
01:00:0A:00:00:00:00;1724803236;28/08/24;00:00:36;0.995;0.0;0.133;0.27000245451927185;0.10384709388017654;0.0073303827084600925
01:00:0A:00:00:00:00;1724803237;28/08/24;00:00:37;0.983;-0.031;0.012;0.17837265133857727;-0.1820378452539444;0.08552113175392151
01:00:0A:00:00:00:00;1724803238;28/08/24;00:00:38;0.975;-0.04;0.016;0.3274237811565399;0.09285151958465576;-0.16371189057826996
01:00:0A:00:00:00:00;1724803239;28/08/24;00:00:39;1.002;0.004;0.095;0.2015855312347412;-0.21868975460529327;0.07819075137376785
01:00:0A:00:00:00:00;1724803240;28/08/24;00:00:40;1.028;-0.097;0.05;0.2480112910270691;-0.0354301817715168;-0.009773843921720982
01:00:0A:00:00:00:00;1724803241;28/08/24;00:00:41;1.056;-0.007;0.134;0.26511549949645996;0.02076941914856434;-0.010995574295520782
01:00:0A:00:00:00:00;1724803242;28/08/24;00:00:42;1.054;-0.022;0.05;0.24434609711170197;0.042760565876960754;0.06230825558304787
01:00:0A:00:00:00:00;1724803243;28/08/24;00:00:43;1.019;-0.056;0.086;0.2883284091949463;0.11362093687057495;0.014660765416920185
01:00:0A:00:00:00:00;1724803244;28/08/24;00:00:44;0.976;-0.033;0.042;0.2626720666885376;-0.06352998316287994;-0.025656338781118393
01:00:0A:00:00:00:00;1724803245;28/08/24;00:00:45;0.973;-0.064;0.051;0.27122414112091064;0.08307767659425735;0.05864306166768074
01:00:0A:00:00:00:00;1724803246;28/08/24;00:00:46;1.008;-0.062;0.104;0.24434609711170197;-0.08918632566928864;-0.01710422709584236
01:00:0A:00:00:00:00;1724803247;28/08/24;00:00:47;1.04;-0.046;0.048;0.23335053026676178;-0.02687807008624077;0.036651913076639175
01:00:0A:00:00:00:00;1724803248;28/08/24;00:00:48;1.051;-0.055;0.104;0.21868975460529327;0.0;0.04886921867728233
01:00:0A:00:00:00:00;1724803249;28/08/24;00:00:49;1.022;-0.015;0.101;0.1661553531885147;-0.03298672288656235;0.05009094998240471
01:00:0A:00:00:00:00;1724803250;28/08/24;00:00:50;0.998;-0.022;0.089;0.1466076523065567;0.019547687843441963;0.05864306166768074
01:00:0A:00:00:00:00;1724803251;28/08/24;00:00:51;0.98;-0.004;0.097;0.13072516024112701;0.00855211354792118;-0.02321287989616394
01:00:0A:00:00:00:00;1724803252;28/08/24;00:00:52;0.99;-0.007;0.073;0.07696902006864548;-0.059864792972803116;0.010995574295520782
01:00:0A:00:00:00:00;1724803253;28/08/24;00:00:53;1.018;-0.035;0.069;0.08307767659425735;-0.019547687843441963;-0.05619959905743599
01:00:0A:00:00:00:00;1724803254;28/08/24;00:00:54;1.027;-0.026;0.103;0.05375614017248154;-0.07696902006864548;-0.010995574295520782
01:00:0A:00:00:00:00;1724803255;28/08/24;00:00:55;1.026;-0.043;0.098;0.042760565876960754;-0.030543262138962746;0.028099799528717995
01:00:0A:00:00:00:00;1724803256;28/08/24;00:00:56;1.016;-0.035;0.115;0.06230825558304787;0.06719517707824707;0.0024434609804302454
01:00:0A:00:00:00:00;1724803257;28/08/24;00:00:57;1.009;-0.033;0.099;0.04398229718208313;0.1014036238193512;0.010995574295520782
01:00:0A:00:00:00:00;1724803258;28/08/24;00:00:58;1.01;-0.045;0.058;0.028099799528717995;0.07819075137376785;0.024434609338641167
01:00:0A:00:00:00:00;1724803259;28/08/24;00:00:59;1.013;-0.033;0.036;0.02076941914856434;-0.012217304669320583;-0.014660765416920185
01:00:0A:00:00:00:00;1724803260;28/08/24;00:01:00;1.029;-0.023;0.069;-0.02321287989616394;-0.11728612333536148;0.00855211354792118
01:00:0A:00:00:00:00;1724803261;28/08/24;00:01:01;1.045;-0.048;0.081;-0.03298672288656235;-0.10262535512447357;0.004886921960860491
01:00:0A:00:00:00:00;1724803262;28/08/24;00:01:02;1.041;-0.036;0.122;-0.024434609338641167;-0.010995574295520782;-0.0036651913542300463
01:00:0A:00:00:00:00;1724803263;28/08/24;00:01:03;1.018;-0.027;0.091;-0.045204028487205505;0.010995574295520782;0.03420845419168472
01:00:0A:00:00:00:00;1724803264;28/08/24;00:01:04;0.951;-0.04;0.081;-0.045204028487205505;0.036651913076639175;0.02932153083384037
01:00:0A:00:00:00:00;1724803265;28/08/24;00:01:05;0.938;-0.031;0.067;-0.05375614017248154;-0.08307767659425735;-0.07208210229873657
01:00:0A:00:00:00:00;1724803265;28/08/24;00:01:05;1.0;-0.04;0.069;-0.059864792972803116;0.0024434609804302454;0.009773843921720982
01:00:0A:00:00:00:00;1724803266;28/08/24;00:01:06;1.065;-0.068;0.117;-0.08796459436416626;-0.08918632566928864;0.0036651913542300463
01:00:0A:00:00:00:00;1724803267;28/08/24;00:01:07;1.084;0.032;0.04;-0.10873401165008545;0.021991148591041565;0.0708603635430336
01:00:0A:00:00:00:00;1724803268;28/08/24;00:01:08;1.038;-0.094;0.2;-0.15515977144241333;0.15393804013729095;0.1417207270860672
01:00:0A:00:00:00:00;1724803269;28/08/24;00:01:09;1.0;0.117;-0.005;-0.17959438264369965;-0.2321287840604782;-0.24923302233219147
01:00:0A:00:00:00:00;1724803270;28/08/24;00:01:10;0.94;-0.078;0.162;-0.24434609711170197;0.31154125928878784;0.4043927788734436
01:00:0A:00:00:00:00;1724803271;28/08/24;00:01:11;0.955;-0.044;0.113;-0.13072516024112701;-0.2883284091949463;-0.5962044596672058
01:00:0A:00:00:00:00;1724803272;28/08/24;00:01:12;0.989;0.106;0.05;-0.31031954288482666;0.19303341209888458;0.49357908964157104
01:00:0A:00:00:00:00;1724803273;28/08/24;00:01:13;1.003;-0.245;0.113;-0.16004669666290283;-0.04398229718208313;-0.23457224667072296
01:00:0A:00:00:00:00;1724803274;28/08/24;00:01:14;1.044;0.147;0.074;-0.14905111491680145;-0.02321287989616394;-0.12828169763088226
01:00:0A:00:00:00:00;1724803275;28/08/24;00:01:15;1.02;-0.075;0.097;-0.24190263450145721;-0.006108652334660292;0.19425514340400696
01:00:0A:00:00:00:00;1724803276;28/08/24;00:01:16;0.985;-0.061;0.069;-0.0757472887635231;0.010995574295520782;-0.20891590416431427
01:00:0A:00:00:00:00;1724803277;28/08/24;00:01:17;0.972;-0.019;0.087;-0.11239919811487198;-0.019547687843441963;-0.04153883829712868
01:00:0A:00:00:00:00;1724803278;28/08/24;00:01:18;1.007;-0.088;0.074;-0.1466076523065567;-0.08918632566928864;0.02932153083384037
01:00:0A:00:00:00:00;1724803279;28/08/24;00:01:19;1.063;-0.098;0.063;-0.06352998316287994;0.019547687843441963;0.0024434609804302454
01:00:0A:00:00:00:00;1724803280;28/08/24;00:01:20;1.066;0.057;0.157;-0.14782939851284027;-0.0024434609804302454;0.12828169763088226
01:00:0A:00:00:00:00;1724803281;28/08/24;00:01:21;1.036;-0.104;-0.001;-0.13805554807186127;-0.09285151958465576;0.22602014243602753
01:00:0A:00:00:00:00;1724803282;28/08/24;00:01:22;0.971;0.144;0.156;-0.03420845419168472;0.26145032048225403;-0.3689626157283783
01:00:0A:00:00:00:00;1724803283;28/08/24;00:01:23;0.936;-0.066;0.003;-0.3078760802745819;-0.4190535545349121;0.42149701714515686
01:00:0A:00:00:00:00;1724803284;28/08/24;00:01:24;0.95;-0.054;0.048;0.16493360698223114;0.5082398653030396;-0.6585127115249634
01:00:0A:00:00:00:00;1724803285;28/08/24;00:01:25;0.959;0.076;0.162;-0.40194931626319885;-0.5949827432632446;0.47769662737846375
01:00:0A:00:00:00:00;1724803286;28/08/24;00:01:26;0.996;-0.211;-0.139;-0.014660765416920185;0.37140607833862305;-0.2724458873271942
01:00:0A:00:00:00:00;1724803287;28/08/24;00:01:27;1.018;0.099;0.272;-0.17104226350784302;-0.14294245839118958;0.03420845419168472
01:00:0A:00:00:00:00;1724803288;28/08/24;00:01:28;1.06;-0.111;-0.062;-0.26511549949645996;-0.21502456068992615;0.17959438264369965
01:00:0A:00:00:00:00;1724803289;28/08/24;00:01:29;1.029;-0.013;0.164;-0.11484266817569733;0.22113320231437683;-0.040317103266716
01:00:0A:00:00:00:00;1724803290;28/08/24;00:01:30;0.978;-0.005;0.105;-0.2675589621067047;-0.1820378452539444;0.03298672288656235
01:00:0A:00:00:00:00;1724803291;28/08/24;00:01:31;0.969;-0.025;0.066;-0.2015855312347412;0.08185594528913498;-0.006108652334660292
01:00:0A:00:00:00:00;1724803292;28/08/24;00:01:32;0.999;-0.033;0.131;-0.20525071024894714;0.012217304669320583;-0.07208210229873657
01:00:0A:00:00:00:00;1724803293;28/08/24;00:01:33;1.031;-0.032;0.116;-0.26022857427597046;-0.042760565876960754;-0.012217304669320583
01:00:0A:00:00:00:00;1724803294;28/08/24;00:01:34;1.046;-0.043;0.04;-0.22602014243602753;0.05497787147760391;0.03298672288656235
01:00:0A:00:00:00:00;1724803295;28/08/24;00:01:35;1.012;-0.03;0.105;-0.21013763546943665;0.09651670604944229;0.006108652334660292
01:00:0A:00:00:00:00;1724803296;28/08/24;00:01:36;0.994;0.0;0.045;-0.2382374405860901;-0.11362093687057495;-0.0659734457731247
01:00:0A:00:00:00:00;1724803297;28/08/24;00:01:37;0.989;-0.005;0.05;-0.21135938167572021;0.019547687843441963;-0.00855211354792118
01:00:0A:00:00:00:00;1724803298;28/08/24;00:01:38;1.006;-0.051;0.106;-0.21013763546943665;-0.07941248267889023;-0.09651670604944229
01:00:0A:00:00:00:00;1724803299;28/08/24;00:01:39;1.046;-0.04;0.087;-0.21013763546943665;-0.040317103266716;-0.06841690838336945
01:00:0A:00:00:00:00;1724803300;28/08/24;00:01:40;1.057;-0.042;0.094;-0.22846359014511108;0.024434609338641167;0.028099799528717995
01:00:0A:00:00:00:00;1724803301;28/08/24;00:01:41;1.041;-0.073;0.09;-0.2382374405860901;0.013439035043120384;0.07208210229873657
01:00:0A:00:00:00:00;1724803302;28/08/24;00:01:42;0.996;-0.006;0.071;-0.22968533635139465;-0.02932153083384037;-0.009773843921720982
01:00:0A:00:00:00:00;1724803303;28/08/24;00:01:43;0.97;-0.022;0.076;-0.25045475363731384;-0.021991148591041565;0.09285151958465576
01:00:0A:00:00:00:00;1724803304;28/08/24;00:01:44;0.968;-0.016;0.086;-0.20036379992961884;-0.02687807008624077;-0.1014036238193512
01:00:0A:00:00:00:00;1724803305;28/08/24;00:01:45;0.99;0.004;0.127;-0.3689626157283783;-0.04153883829712868;0.1062905490398407
01:00:0A:00:00:00:00;1724803306;28/08/24;00:01:46;1.024;-0.079;0.111;-0.27611109614372253;-0.03176499158143997;-0.1111774742603302
01:00:0A:00:00:00:00;1724803307;28/08/24;00:01:47;1.044;-0.001;0.07;-0.2626720666885376;0.04886921867728233;0.03420845419168472
01:00:0A:00:00:00:00;1724803308;28/08/24;00:01:48;1.046;-0.088;0.09;-0.23457224667072296;0.042760565876960754;0.06719517707824707
01:00:0A:00:00:00:00;1724803309;28/08/24;00:01:49;1.035;-0.005;0.079;-0.1918116807937622;0.015882495790719986;-0.06230825558304787
01:00:0A:00:00:00:00;1724803310;28/08/24;00:01:50;1.003;-0.009;0.067;-0.21991148591041565;-0.00855211354792118;0.045204028487205505
01:00:0A:00:00:00:00;1724803311;28/08/24;00:01:51;0.989;-0.045;0.067;-0.1966986060142517;-0.010995574295520782;-0.018325956538319588
01:00:0A:00:00:00:00;1724803312;28/08/24;00:01:52;1.001;-0.023;0.087;-0.17104226350784302;-0.02076941914856434;-0.10384709388017654
01:00:0A:00:00:00:00;1724803313;28/08/24;00:01:53;1.028;-0.014;0.094;-0.21624629199504852;-0.05497787147760391;-0.0036651913542300463
01:00:0A:00:00:00:00;1724803314;28/08/24;00:01:54;1.041;-0.072;0.074;-0.19425514340400696;0.02076941914856434;-0.010995574295520782
01:00:0A:00:00:00:00;1724803315;28/08/24;00:01:55;1.021;-0.036;0.101;-0.1722639948129654;0.05619959905743599;-0.045204028487205505
01:00:0A:00:00:00:00;1724803316;28/08/24;00:01:56;0.993;-0.03;0.051;-0.20647244155406952;-0.05253440886735916;0.009773843921720982
01:00:0A:00:00:00:00;1724803317;28/08/24;00:01:57;0.961;-0.039;0.05;-0.16982054710388184;-0.019547687843441963;-0.04398229718208313
01:00:0A:00:00:00:00;1724803318;28/08/24;00:01:58;0.976;-0.037;0.076;-0.1661553531885147;-0.10751228034496307;-0.07330382615327835
01:00:0A:00:00:00:00;1724803319;28/08/24;00:01:59;1.036;-0.05;0.081;-0.1661553531885147;-0.06841690838336945;0.0073303827084600925
01:00:0A:00:00:00:00;1724803320;28/08/24;00:02:00;1.065;-0.058;0.095;-0.14538592100143433;0.013439035043120384;0.05619959905743599
01:00:0A:00:00:00:00;1724803321;28/08/24;00:02:01;1.054;-0.016;0.118;-0.14905111491680145;0.03176499158143997;0.06352998316287994
01:00:0A:00:00:00:00;1724803322;28/08/24;00:02:02;1.008;-0.012;0.078;-0.15027284622192383;0.019547687843441963;0.05864306166768074
01:00:0A:00:00:00:00;1724803323;28/08/24;00:02:03;0.981;-0.006;0.1;-0.11728612333536148;0.08674286305904388;-0.028099799528717995
01:00:0A:00:00:00:00;1724803324;28/08/24;00:02:04;0.985;-0.02;0.09;-0.15393804013729095;-0.02932153083384037;-0.051312677562236786
01:00:0A:00:00:00:00;1724803325;28/08/24;00:02:05;1.01;-0.035;0.063;-0.1417207270860672;0.03787364438176155;-0.030543262138962746
01:00:0A:00:00:00:00;1724803326;28/08/24;00:02:06;1.036;-0.052;0.101;-0.15027284622192383;-0.018325956538319588;0.02076941914856434
01:00:0A:00:00:00:00;1724803327;28/08/24;00:02:07;1.041;-0.037;0.08;-0.15271630883216858;-0.03787364438176155;0.0073303827084600925
01:00:0A:00:00:00:00;1724803328;28/08/24;00:02:08;1.03;-0.018;0.088;-0.1368338167667389;0.0;-0.014660765416920185
01:00:0A:00:00:00:00;1724803329;28/08/24;00:02:09;1.018;-0.05;0.105;-0.12339477241039276;0.013439035043120384;0.0012217304902151227
01:00:0A:00:00:00:00;1724803330;28/08/24;00:02:10;1.024;-0.04;0.091;-0.11362093687057495;0.009773843921720982;-0.02932153083384037
01:00:0A:00:00:00:00;1724803331;28/08/24;00:02:11;1.008;-0.037;0.067;-0.1111774742603302;0.006108652334660292;0.010995574295520782
01:00:0A:00:00:00:00;1724803332;28/08/24;00:02:12;0.984;-0.04;0.064;-0.1014036238193512;-0.010995574295520782;0.0073303827084600925
01:00:0A:00:00:00:00;1724803333;28/08/24;00:02:13;0.954;-0.031;0.065;-0.09407324343919754;-0.05742133408784866;-0.024434609338641167
01:00:0A:00:00:00:00;1724803334;28/08/24;00:02:14;0.964;-0.035;0.074;-0.08674286305904388;-0.03420845419168472;-0.014660765416920185
01:00:0A:00:00:00:00;1724803335;28/08/24;00:02:15;1.025;-0.051;0.097;-0.0757472887635231;-0.05864306166768074;-0.08552113175392151
01:00:0A:00:00:00:00;1724803336;28/08/24;00:02:16;1.058;-0.011;0.085;-0.1014036238193512;0.014660765416920185;0.04642575979232788
01:00:0A:00:00:00:00;1724803337;28/08/24;00:02:17;1.075;-0.102;0.104;-0.08429940044879913;0.013439035043120384;0.03787364438176155
01:00:0A:00:00:00:00;1724803338;28/08/24;00:02:18;1.042;0.06;0.07;-0.08429940044879913;-0.006108652334660292;-0.08307767659425735
01:00:0A:00:00:00:00;1724803339;28/08/24;00:02:19;0.997;-0.092;0.093;-0.13316862285137177;0.05619959905743599;0.2321287840604782
01:00:0A:00:00:00:00;1724803340;28/08/24;00:02:20;0.955;0.012;0.078;-0.02932153083384037;-0.009773843921720982;-0.3176499307155609
01:00:0A:00:00:00:00;1724803341;28/08/24;00:02:21;0.972;-0.001;0.081;-0.1771509200334549;-0.0036651913542300463;0.21868975460529327
01:00:0A:00:00:00:00;1724803342;28/08/24;00:02:22;1.014;-0.145;0.069;-0.036651913076639175;0.02076941914856434;-0.23579397797584534
01:00:0A:00:00:00:00;1724803343;28/08/24;00:02:23;1.039;0.062;0.106;-0.1258382350206375;-0.024434609338641167;0.03176499158143997
01:00:0A:00:00:00:00;1724803344;28/08/24;00:02:24;1.042;-0.102;0.052;-0.1661553531885147;-0.04764748737215996;0.14782939851284027
01:00:0A:00:00:00:00;1724803345;28/08/24;00:02:25;1.018;-0.03;0.087;-0.06108652427792549;0.05009094998240471;-0.08429940044879913
01:00:0A:00:00:00:00;1724803346;28/08/24;00:02:26;0.968;-0.002;0.087;-0.13927726447582245;-0.1062905490398407;0.030543262138962746
01:00:0A:00:00:00:00;1724803347;28/08/24;00:02:27;0.976;-0.04;0.071;-0.12095131725072861;-0.05009094998240471;-0.012217304669320583
01:00:0A:00:00:00:00;1724803348;28/08/24;00:02:28;1.007;-0.046;0.097;-0.059864792972803116;-0.0024434609804302454;-0.12339477241039276
01:00:0A:00:00:00:00;1724803349;28/08/24;00:02:29;1.057;-0.003;0.131;-0.13439035415649414;-0.051312677562236786;0.06108652427792549
01:00:0A:00:00:00:00;1724803350;28/08/24;00:02:30;1.074;-0.097;0.032;-0.05742133408784866;0.06719517707824707;-0.0024434609804302454
01:00:0A:00:00:00:00;1724803351;28/08/24;00:02:31;1.053;0.045;0.184;-0.07941248267889023;0.13927726447582245;-0.02076941914856434
01:00:0A:00:00:00:00;1724803352;28/08/24;00:02:32;1.044;-0.092;-0.051;-0.10873401165008545;-0.1722639948129654;0.16371189057826996
01:00:0A:00:00:00:00;1724803353;28/08/24;00:02:33;0.976;0.04;0.155;0.036651913076639175;0.3640756905078888;-0.1661553531885147
01:00:0A:00:00:00:00;1724803354;28/08/24;00:02:34;0.959;-0.038;0.003;-0.16982054710388184;-0.4043927788734436;0.16249015927314758
01:00:0A:00:00:00:00;1724803355;28/08/24;00:02:35;0.944;-0.028;0.058;0.09529497474431992;0.41661006212234497;-0.2125810980796814
01:00:0A:00:00:00:00;1724803356;28/08/24;00:02:36;0.976;-0.012;0.17;-0.17592918872833252;-0.5057964324951172;0.06841690838336945
01:00:0A:00:00:00:00;1724803357;28/08/24;00:02:37;1.015;-0.066;-0.059;0.06352998316287994;0.38606682419776917;-0.09651670604944229
01:00:0A:00:00:00:00;1724803358;28/08/24;00:02:38;1.023;-0.008;0.313;-0.12217304855585098;-0.22846359014511108;0.06963863223791122
01:00:0A:00:00:00:00;1724803359;28/08/24;00:02:39;1.062;-0.068;-0.137;-0.03420845419168472;0.00855211354792118;-0.0012217304902151227
01:00:0A:00:00:00:00;1724803360;28/08/24;00:02:40;1.035;0.013;0.27;0.004886921960860491;0.2675589621067047;0.03787364438176155
01:00:0A:00:00:00:00;1724803361;28/08/24;00:02:41;1.031;0.007;-0.066;-0.04398229718208313;-0.26633724570274353;0.09407324343919754
01:00:0A:00:00:00:00;1724803362;28/08/24;00:02:42;0.982;-0.061;0.114;0.11972958594560623;0.35063666105270386;0.05375614017248154
01:00:0A:00:00:00:00;1724803363;28/08/24;00:02:43;0.98;0.028;0.085;0.080634206533432;-0.17470745742321014;-0.04398229718208313
01:00:0A:00:00:00:00;1724803364;28/08/24;00:02:44;1.003;-0.035;0.033;0.07208210229873657;0.05375614017248154;0.13805554807186127
01:00:0A:00:00:00:00;1724803365;28/08/24;00:02:45;1.02;-0.095;0.155;0.13072516024112701;0.0036651913542300463;-0.09896016865968704
01:00:0A:00:00:00:00;1724803366;28/08/24;00:02:46;1.035;0.037;0.09;0.04886921867728233;-0.08552113175392151;-0.03420845419168472
01:00:0A:00:00:00:00;1724803367;28/08/24;00:02:47;1.028;-0.078;0.042;0.05253440886735916;0.04153883829712868;0.11239919811487198
01:00:0A:00:00:00:00;1724803368;28/08/24;00:02:48;1.014;-0.073;0.136;0.10262535512447357;0.05619959905743599;-0.04153883829712868
01:00:0A:00:00:00:00;1724803369;28/08/24;00:02:49;1.008;-0.005;0.067;0.018325956538319588;-0.12339477241039276;0.02076941914856434
01:00:0A:00:00:00:00;1724803370;28/08/24;00:02:50;1.003;-0.068;0.051;0.04642575979232788;0.045204028487205505;0.13316862285137177
01:00:0A:00:00:00:00;1724803371;28/08/24;00:02:51;0.99;-0.035;0.122;0.0757472887635231;-0.0073303827084600925;-0.0354301817715168
01:00:0A:00:00:00:00;1724803372;28/08/24;00:02:52;0.993;0.018;0.08;-0.0024434609804302454;-0.11850785464048386;0.03420845419168472
01:00:0A:00:00:00:00;1724803373;28/08/24;00:02:53;1.021;-0.037;0.062;0.04886921867728233;0.05497787147760391;-0.018325956538319588
01:00:0A:00:00:00:00;1724803374;28/08/24;00:02:54;1.042;-0.058;0.151;0.04764748737215996;0.0073303827084600925;-0.07330382615327835
01:00:0A:00:00:00:00;1724803375;28/08/24;00:02:55;1.057;-0.021;0.059;0.0024434609804302454;-0.03787364438176155;0.004886921960860491
01:00:0A:00:00:00:00;1724803376;28/08/24;00:02:56;1.023;-0.072;0.09;0.024434609338641167;0.09285151958465576;0.1062905490398407
01:00:0A:00:00:00:00;1724803377;28/08/24;00:02:57;0.995;0.0;0.081;0.02076941914856434;0.0;-0.04642575979232788
01:00:0A:00:00:00:00;1724803378;28/08/24;00:02:58;0.957;-0.029;0.051;-0.02932153083384037;-0.04642575979232788;0.12950342893600464
01:00:0A:00:00:00:00;1724803379;28/08/24;00:02:59;0.967;-0.035;0.071;0.05009094998240471;0.00855211354792118;-0.12828169763088226
01:00:0A:00:00:00:00;1724803380;28/08/24;00:03:00;1.014;0.002;0.097;-0.036651913076639175;-0.10873401165008545;0.06963863223791122
01:00:0A:00:00:00:00;1724803381;28/08/24;00:03:01;1.04;-0.086;0.059;0.013439035043120384;0.0024434609804302454;-0.019547687843441963
01:00:0A:00:00:00:00;1724803382;28/08/24;00:03:02;1.047;0.012;0.131;0.004886921960860491;0.00855211354792118;-0.014660765416920185
01:00:0A:00:00:00:00;1724803383;28/08/24;00:03:03;1.023;-0.058;0.074;-0.039095375686883926;-0.030543262138962746;0.08918632566928864
01:00:0A:00:00:00:00;1724803384;28/08/24;00:03:04;1.003;-0.048;0.091;0.03176499158143997;0.07452555745840073;-0.03176499158143997
01:00:0A:00:00:00:00;1724803385;28/08/24;00:03:05;0.996;-0.026;0.095;-0.0073303827084600925;-0.006108652334660292;0.0073303827084600925
01:00:0A:00:00:00:00;1724803386;28/08/24;00:03:06;1.01;-0.051;0.065;-0.025656338781118393;-0.021991148591041565;0.04642575979232788
01:00:0A:00:00:00:00;1724803387;28/08/24;00:03:07;1.022;-0.035;0.08;0.009773843921720982;0.004886921960860491;-0.03176499158143997
01:00:0A:00:00:00:00;1724803388;28/08/24;00:03:08;1.025;-0.005;0.098;-0.02321287989616394;-0.02076941914856434;0.0012217304902151227
01:00:0A:00:00:00:00;1724803389;28/08/24;00:03:09;1.012;-0.047;0.073;-0.03420845419168472;-0.03298672288656235;0.02076941914856434
01:00:0A:00:00:00:00;1724803390;28/08/24;00:03:10;0.998;-0.05;0.086;0.006108652334660292;0.0073303827084600925;-0.06475171446800232
01:00:0A:00:00:00:00;1724803391;28/08/24;00:03:11;0.998;-0.035;0.093;-0.03420845419168472;-0.0659734457731247;-0.009773843921720982
01:00:0A:00:00:00:00;1724803392;28/08/24;00:03:12;1.017;-0.062;0.085;-0.03420845419168472;-0.024434609338641167;0.01710422709584236
01:00:0A:00:00:00:00;1724803393;28/08/24;00:03:13;1.029;-0.054;0.106;-0.019547687843441963;0.00855211354792118;0.014660765416920185
01:00:0A:00:00:00:00;1724803394;28/08/24;00:03:14;1.035;-0.02;0.101;-0.042760565876960754;-0.0036651913542300463;0.030543262138962746
01:00:0A:00:00:00:00;1724803395;28/08/24;00:03:15;1.025;-0.041;0.078;-0.045204028487205505;0.010995574295520782;0.03787364438176155
01:00:0A:00:00:00:00;1724803396;28/08/24;00:03:16;1.005;-0.029;0.088;-0.024434609338641167;0.018325956538319588;-0.03298672288656235
01:00:0A:00:00:00:00;1724803397;28/08/24;00:03:17;0.999;-0.025;0.085;-0.04886921867728233;-0.02687807008624077;-0.009773843921720982
01:00:0A:00:00:00:00;1724803398;28/08/24;00:03:18;1.004;-0.041;0.074;-0.04764748737215996;-0.02932153083384037;-0.0073303827084600925
01:00:0A:00:00:00:00;1724803399;28/08/24;00:03:19;1.016;-0.045;0.089;-0.036651913076639175;-0.015882495790719986;-0.015882495790719986
01:00:0A:00:00:00:00;1724803400;28/08/24;00:03:20;1.023;-0.035;0.096;-0.05253440886735916;-0.025656338781118393;0.0012217304902151227
01:00:0A:00:00:00:00;1724803401;28/08/24;00:03:21;1.023;-0.04;0.086;-0.05253440886735916;0.006108652334660292;0.012217304669320583
01:00:0A:00:00:00:00;1724803402;28/08/24;00:03:22;1.016;-0.039;0.09;-0.04398229718208313;0.012217304669320583;0.006108652334660292
01:00:0A:00:00:00:00;1724803403;28/08/24;00:03:23;1.014;-0.03;0.083;-0.05619959905743599;-0.021991148591041565;0.009773843921720982
01:00:0A:00:00:00:00;1724803404;28/08/24;00:03:24;1.011;-0.034;0.081;-0.05375614017248154;-0.010995574295520782;0.0012217304902151227
01:00:0A:00:00:00:00;1724803405;28/08/24;00:03:25;1.019;-0.036;0.088;-0.04642575979232788;-0.0073303827084600925;-0.009773843921720982
01:00:0A:00:00:00:00;1724803406;28/08/24;00:03:26;1.025;-0.033;0.091;-0.05619959905743599;-0.013439035043120384;0.0012217304902151227
01:00:0A:00:00:00:00;1724803407;28/08/24;00:03:27;1.027;-0.042;0.086;-0.051312677562236786;-0.0024434609804302454;0.0012217304902151227
01:00:0A:00:00:00:00;1724803408;28/08/24;00:03:28;1.016;-0.038;0.089;-0.045204028487205505;-0.0012217304902151227;-0.010995574295520782
01:00:0A:00:00:00:00;1724803409;28/08/24;00:03:29;1.01;-0.04;0.089;-0.05619959905743599;-0.004886921960860491;0.012217304669320583
01:00:0A:00:00:00:00;1724803410;28/08/24;00:03:30;1.0;-0.04;0.081;-0.05375614017248154;-0.009773843921720982;0.006108652334660292
01:00:0A:00:00:00:00;1724803411;28/08/24;00:03:31;0.997;-0.035;0.09;-0.04764748737215996;-0.0073303827084600925;-0.012217304669320583
01:00:0A:00:00:00:00;1724803412;28/08/24;00:03:32;1.007;-0.039;0.092;-0.05864306166768074;-0.030543262138962746;-0.0073303827084600925
01:00:0A:00:00:00:00;1724803413;28/08/24;00:03:33;1.015;-0.045;0.083;-0.05497787147760391;-0.019547687843441963;-0.012217304669320583
01:00:0A:00:00:00:00;1724803414;28/08/24;00:03:34;1.028;-0.042;0.091;-0.05619959905743599;-0.014660765416920185;0.004886921960860491
01:00:0A:00:00:00:00;1724803415;28/08/24;00:03:35;1.032;-0.036;0.095;-0.06352998316287994;-0.024434609338641167;0.006108652334660292
01:00:0A:00:00:00:00;1724803416;28/08/24;00:03:36;1.028;-0.042;0.094;-0.05864306166768074;-0.004886921960860491;0.015882495790719986
01:00:0A:00:00:00:00;1724803417;28/08/24;00:03:37;1.011;-0.035;0.097;-0.05253440886735916;0.018325956538319588;0.004886921960860491
01:00:0A:00:00:00:00;1724803418;28/08/24;00:03:38;0.997;-0.036;0.091;-0.059864792972803116;0.004886921960860491;0.006108652334660292
01:00:0A:00:00:00:00;1724803419;28/08/24;00:03:39;0.991;-0.04;0.078;-0.05253440886735916;-0.009773843921720982;-0.014660765416920185
01:00:0A:00:00:00:00;1724803420;28/08/24;00:03:40;0.999;-0.037;0.081;-0.051312677562236786;-0.018325956538319588;-0.02321287989616394
01:00:0A:00:00:00:00;1724803421;28/08/24;00:03:41;1.022;-0.045;0.091;-0.059864792972803116;-0.040317103266716;0.0
01:00:0A:00:00:00:00;1724803422;28/08/24;00:03:42;1.032;-0.051;0.088;-0.05375614017248154;-0.025656338781118393;0.0024434609804302454
01:00:0A:00:00:00:00;1724803423;28/08/24;00:03:43;1.035;-0.037;0.095;-0.05253440886735916;0.00855211354792118;0.024434609338641167
01:00:0A:00:00:00:00;1724803424;28/08/24;00:03:44;1.023;-0.038;0.092;-0.06230825558304787;0.0;0.039095375686883926
01:00:0A:00:00:00:00;1724803425;28/08/24;00:03:45;1.002;-0.028;0.082;-0.05497787147760391;-0.0012217304902151227;0.0012217304902151227
01:00:0A:00:00:00:00;1724803426;28/08/24;00:03:46;0.995;-0.026;0.082;-0.05375614017248154;-0.012217304669320583;-0.013439035043120384
01:00:0A:00:00:00:00;1724803427;28/08/24;00:03:47;1.003;-0.032;0.084;-0.05742133408784866;-0.03298672288656235;-0.03298672288656235
01:00:0A:00:00:00:00;1724803428;28/08/24;00:03:48;1.026;-0.04;0.086;-0.05375614017248154;-0.014660765416920185;-0.03787364438176155
01:00:0A:00:00:00:00;1724803429;28/08/24;00:03:49;1.032;-0.042;0.093;-0.059864792972803116;0.0036651913542300463;0.0012217304902151227
01:00:0A:00:00:00:00;1724803430;28/08/24;00:03:50;1.02;-0.046;0.081;-0.0659734457731247;-0.012217304669320583;0.02321287989616394
01:00:0A:00:00:00:00;1724803431;28/08/24;00:03:51;1.009;-0.037;0.078;-0.06230825558304787;-0.009773843921720982;0.014660765416920185
01:00:0A:00:00:00:00;1724803432;28/08/24;00:03:52;0.997;-0.034;0.082;-0.0659734457731247;-0.02932153083384037;0.01710422709584236
01:00:0A:00:00:00:00;1724803433;28/08/24;00:03:53;1.003;-0.042;0.085;-0.059864792972803116;-0.042760565876960754;-0.0024434609804302454
01:00:0A:00:00:00:00;1724803434;28/08/24;00:03:54;1.025;-0.037;0.094;-0.051312677562236786;-0.01710422709584236;-0.0024434609804302454
01:00:0A:00:00:00:00;1724803435;28/08/24;00:03:55;1.034;-0.038;0.097;-0.051312677562236786;0.015882495790719986;0.01710422709584236
01:00:0A:00:00:00:00;1724803436;28/08/24;00:03:56;1.026;-0.035;0.089;-0.04764748737215996;0.014660765416920185;0.013439035043120384
01:00:0A:00:00:00:00;1724803437;28/08/24;00:03:57;1.004;-0.033;0.079;-0.039095375686883926;0.015882495790719986;0.0012217304902151227
01:00:0A:00:00:00:00;1724803438;28/08/24;00:03:58;0.995;-0.037;0.076;-0.04153883829712868;-0.0024434609804302454;0.0024434609804302454
01:00:0A:00:00:00:00;1724803439;28/08/24;00:03:59;1.002;-0.042;0.078;-0.03787364438176155;-0.02321287989616394;-0.012217304669320583
01:00:0A:00:00:00:00;1724803440;28/08/24;00:04:00;1.016;-0.037;0.08;-0.036651913076639175;-0.03176499158143997;-0.006108652334660292
01:00:0A:00:00:00:00;1724803441;28/08/24;00:04:01;1.031;-0.035;0.091;-0.039095375686883926;-0.030543262138962746;0.0012217304902151227
01:00:0A:00:00:00:00;1724803442;28/08/24;00:04:02;1.03;-0.037;0.089;-0.0354301817715168;-0.014660765416920185;0.0
01:00:0A:00:00:00:00;1724803443;28/08/24;00:04:03;1.013;-0.036;0.094;-0.03176499158143997;0.0;-0.0012217304902151227
01:00:0A:00:00:00:00;1724803444;28/08/24;00:04:04;0.999;-0.04;0.091;-0.03420845419168472;-0.0012217304902151227;-0.0012217304902151227
01:00:0A:00:00:00:00;1724803445;28/08/24;00:04:05;0.997;-0.044;0.086;-0.03176499158143997;-0.0036651913542300463;0.0
01:00:0A:00:00:00:00;1724803446;28/08/24;00:04:06;1.003;-0.037;0.085;-0.03176499158143997;-0.02076941914856434;0.0012217304902151227
01:00:0A:00:00:00:00;1724803447;28/08/24;00:04:07;1.011;-0.034;0.085;-0.03176499158143997;-0.021991148591041565;0.0073303827084600925
01:00:0A:00:00:00:00;1724803448;28/08/24;00:04:08;1.025;-0.04;0.091;-0.025656338781118393;-0.014660765416920185;-0.006108652334660292
01:00:0A:00:00:00:00;1724803449;28/08/24;00:04:09;1.029;-0.036;0.089;-0.02321287989616394;-0.012217304669320583;-0.0073303827084600925
01:00:0A:00:00:00:00;1724803450;28/08/24;00:04:10;1.026;-0.041;0.09;-0.02687807008624077;-0.0036651913542300463;0.0073303827084600925
01:00:0A:00:00:00:00;1724803451;28/08/24;00:04:11;1.021;-0.042;0.089;-0.02687807008624077;-0.004886921960860491;0.010995574295520782
01:00:0A:00:00:00:00;1724803452;28/08/24;00:04:12;1.011;-0.033;0.084;-0.028099799528717995;-0.0036651913542300463;0.014660765416920185
01:00:0A:00:00:00:00;1724803453;28/08/24;00:04:13;1.008;-0.035;0.086;-0.03176499158143997;-0.012217304669320583;0.01710422709584236
01:00:0A:00:00:00:00;1724803454;28/08/24;00:04:14;1.005;-0.03;0.082;-0.030543262138962746;-0.02076941914856434;-0.006108652334660292
01:00:0A:00:00:00:00;1724803455;28/08/24;00:04:15;1.011;-0.034;0.083;-0.030543262138962746;-0.018325956538319588;-0.013439035043120384
01:00:0A:00:00:00:00;1724803456;28/08/24;00:04:16;1.015;-0.04;0.087;-0.03176499158143997;-0.015882495790719986;-0.013439035043120384
01:00:0A:00:00:00:00;1724803457;28/08/24;00:04:17;1.023;-0.041;0.084;-0.0354301817715168;-0.018325956538319588;-0.0036651913542300463
01:00:0A:00:00:00:00;1724803458;28/08/24;00:04:18;1.026;-0.04;0.088;-0.039095375686883926;-0.00855211354792118;0.00855211354792118
01:00:0A:00:00:00:00;1724803459;28/08/24;00:04:19;1.021;-0.04;0.088;-0.04153883829712868;-0.0012217304902151227;0.02076941914856434
01:00:0A:00:00:00:00;1724803460;28/08/24;00:04:20;1.017;-0.038;0.083;-0.04153883829712868;-0.0012217304902151227;0.018325956538319588
01:00:0A:00:00:00:00;1724803461;28/08/24;00:04:21;1.01;-0.031;0.083;-0.042760565876960754;-0.009773843921720982;0.00855211354792118
01:00:0A:00:00:00:00;1724803462;28/08/24;00:04:22;1.004;-0.029;0.082;-0.04153883829712868;-0.02076941914856434;-0.0024434609804302454
01:00:0A:00:00:00:00;1724803463;28/08/24;00:04:23;1.004;-0.032;0.089;-0.040317103266716;-0.015882495790719986;-0.012217304669320583
01:00:0A:00:00:00:00;1724803464;28/08/24;00:04:24;1.012;-0.037;0.095;-0.04153883829712868;-0.010995574295520782;-0.013439035043120384
01:00:0A:00:00:00:00;1724803465;28/08/24;00:04:25;1.017;-0.038;0.093;-0.04153883829712868;-0.0073303827084600925;-0.015882495790719986
01:00:0A:00:00:00:00;1724803466;28/08/24;00:04:26;1.023;-0.04;0.087;-0.04153883829712868;0.009773843921720982;0.0036651913542300463
01:00:0A:00:00:00:00;1724803467;28/08/24;00:04:27;1.025;-0.043;0.091;-0.045204028487205505;0.0036651913542300463;0.013439035043120384
01:00:0A:00:00:00:00;1724803468;28/08/24;00:04:28;1.021;-0.039;0.08;-0.04642575979232788;-0.009773843921720982;0.01710422709584236
01:00:0A:00:00:00:00;1724803469;28/08/24;00:04:29;1.018;-0.033;0.081;-0.04764748737215996;-0.0073303827084600925;0.01710422709584236
01:00:0A:00:00:00:00;1724803470;28/08/24;00:04:30;1.013;-0.032;0.088;-0.04886921867728233;-0.02321287989616394;0.00855211354792118
01:00:0A:00:00:00:00;1724803471;28/08/24;00:04:31;1.011;-0.029;0.087;-0.045204028487205505;-0.02076941914856434;-0.0012217304902151227
01:00:0A:00:00:00:00;1724803472;28/08/24;00:04:32;1.01;-0.03;0.089;-0.04398229718208313;-0.006108652334660292;-0.0024434609804302454
01:00:0A:00:00:00:00;1724803473;28/08/24;00:04:33;1.007;-0.037;0.087;-0.042760565876960754;-0.004886921960860491;-0.0024434609804302454
01:00:0A:00:00:00:00;1724803474;28/08/24;00:04:34;1.009;-0.038;0.082;-0.03787364438176155;-0.010995574295520782;-0.010995574295520782
01:00:0A:00:00:00:00;1724803475;28/08/24;00:04:35;1.014;-0.037;0.087;-0.040317103266716;-0.010995574295520782;0.006108652334660292
01:00:0A:00:00:00:00;1724803476;28/08/24;00:04:36;1.015;-0.039;0.088;-0.03787364438176155;-0.0073303827084600925;0.00855211354792118
01:00:0A:00:00:00:00;1724803477;28/08/24;00:04:37;1.017;-0.033;0.085;-0.03420845419168472;-0.0073303827084600925;0.0
01:00:0A:00:00:00:00;1724803478;28/08/24;00:04:38;1.016;-0.03;0.083;-0.03420845419168472;-0.006108652334660292;0.004886921960860491
01:00:0A:00:00:00:00;1724803479;28/08/24;00:04:39;1.018;-0.036;0.084;-0.03176499158143997;-0.00855211354792118;-0.00855211354792118
01:00:0A:00:00:00:00;1724803480;28/08/24;00:04:40;1.021;-0.035;0.084;-0.02932153083384037;-0.015882495790719986;-0.013439035043120384
01:00:0A:00:00:00:00;1724803481;28/08/24;00:04:41;1.026;-0.038;0.088;-0.03176499158143997;-0.012217304669320583;0.0024434609804302454
01:00:0A:00:00:00:00;1724803482;28/08/24;00:04:42;1.023;-0.046;0.092;-0.02932153083384037;0.0;0.019547687843441963
01:00:0A:00:00:00:00;1724803483;28/08/24;00:04:43;1.014;-0.039;0.091;-0.028099799528717995;0.0012217304902151227;0.02076941914856434
01:00:0A:00:00:00:00;1724803484;28/08/24;00:04:44;0.993;-0.035;0.084;-0.03176499158143997;-0.012217304669320583;0.021991148591041565
01:00:0A:00:00:00:00;1724803485;28/08/24;00:04:45;0.985;-0.035;0.084;-0.028099799528717995;-0.02687807008624077;0.006108652334660292
01:00:0A:00:00:00:00;1724803486;28/08/24;00:04:46;1.003;-0.029;0.087;-0.02321287989616394;-0.039095375686883926;-0.02321287989616394
01:00:0A:00:00:00:00;1724803487;28/08/24;00:04:47;1.022;-0.036;0.092;-0.02321287989616394;-0.025656338781118393;-0.010995574295520782
01:00:0A:00:00:00:00;1724803488;28/08/24;00:04:48;1.041;-0.045;0.096;-0.018325956538319588;0.0036651913542300463;0.0073303827084600925
01:00:0A:00:00:00:00;1724803489;28/08/24;00:04:49;1.043;-0.038;0.088;-0.014660765416920185;0.012217304669320583;0.010995574295520782
01:00:0A:00:00:00:00;1724803490;28/08/24;00:04:50;1.019;-0.037;0.084;-0.01710422709584236;0.014660765416920185;0.025656338781118393
01:00:0A:00:00:00:00;1724803491;28/08/24;00:04:51;0.997;-0.036;0.079;-0.015882495790719986;-0.010995574295520782;0.006108652334660292
01:00:0A:00:00:00:00;1724803492;28/08/24;00:04:52;0.994;-0.035;0.08;-0.013439035043120384;-0.01710422709584236;-0.004886921960860491
01:00:0A:00:00:00:00;1724803493;28/08/24;00:04:53;1.003;-0.033;0.086;-0.013439035043120384;-0.02321287989616394;-0.009773843921720982
01:00:0A:00:00:00:00;1724803494;28/08/24;00:04:54;1.013;-0.036;0.087;-0.014660765416920185;-0.03298672288656235;-0.012217304669320583
01:00:0A:00:00:00:00;1724803495;28/08/24;00:04:55;1.028;-0.039;0.09;-0.013439035043120384;-0.02321287989616394;-0.00855211354792118
01:00:0A:00:00:00:00;1724803496;28/08/24;00:04:56;1.026;-0.039;0.09;-0.012217304669320583;-0.013439035043120384;0.0012217304902151227
01:00:0A:00:00:00:00;1724803497;28/08/24;00:04:57;1.02;-0.038;0.091;-0.013439035043120384;-0.010995574295520782;0.0024434609804302454
01:00:0A:00:00:00:00;1724803498;28/08/24;00:04:58;1.016;-0.037;0.091;-0.012217304669320583;-0.0036651913542300463;-0.0024434609804302454
01:00:0A:00:00:00:00;1724803499;28/08/24;00:04:59;1.012;-0.038;0.087;-0.013439035043120384;0.010995574295520782;0.014660765416920185
01:00:0A:00:00:00:00;1724803500;28/08/24;00:05:00;1.009;-0.035;0.081;-0.013439035043120384;0.0024434609804302454;0.015882495790719986
01:00:0A:00:00:00:00;1724803501;28/08/24;00:05:01;1.007;-0.029;0.075;-0.013439035043120384;-0.0073303827084600925;0.00855211354792118
01:00:0A:00:00:00:00;1724803502;28/08/24;00:05:02;1.011;-0.026;0.079;-0.014660765416920185;-0.02687807008624077;0.0
01:00:0A:00:00:00:00;1724803503;28/08/24;00:05:03;1.013;-0.029;0.083;-0.014660765416920185;-0.02932153083384037;-0.00855211354792118
01:00:0A:00:00:00:00;1724803504;28/08/24;00:05:04;1.019;-0.033;0.089;-0.013439035043120384;-0.02076941914856434;-0.006108652334660292
01:00:0A:00:00:00:00;1724803505;28/08/24;00:05:05;1.021;-0.034;0.092;-0.014660765416920185;-0.010995574295520782;0.004886921960860491
01:00:0A:00:00:00:00;1724803506;28/08/24;00:05:06;1.017;-0.037;0.092;-0.013439035043120384;0.0012217304902151227;0.004886921960860491
01:00:0A:00:00:00:00;1724803507;28/08/24;00:05:07;1.013;-0.033;0.089;-0.012217304669320583;0.0036651913542300463;0.004886921960860491
01:00:0A:00:00:00:00;1724803508;28/08/24;00:05:08;1.009;-0.034;0.083;-0.013439035043120384;0.0;0.0073303827084600925
01:00:0A:00:00:00:00;1724803509;28/08/24;00:05:09;1.008;-0.036;0.082;-0.013439035043120384;-0.013439035043120384;0.0024434609804302454
01:00:0A:00:00:00:00;1724803510;28/08/24;00:05:10;1.011;-0.035;0.085;-0.012217304669320583;-0.013439035043120384;0.0
01:00:0A:00:00:00:00;1724803511;28/08/24;00:05:11;1.015;-0.036;0.087;-0.013439035043120384;-0.014660765416920185;0.004886921960860491
01:00:0A:00:00:00:00;1724803512;28/08/24;00:05:12;1.017;-0.035;0.085;-0.012217304669320583;-0.015882495790719986;0.0012217304902151227
01:00:0A:00:00:00:00;1724803513;28/08/24;00:05:13;1.02;-0.035;0.086;-0.010995574295520782;-0.010995574295520782;-0.0024434609804302454
01:00:0A:00:00:00:00;1724803514;28/08/24;00:05:14;1.02;-0.035;0.087;-0.012217304669320583;-0.010995574295520782;-0.0024434609804302454
01:00:0A:00:00:00:00;1724803515;28/08/24;00:05:15;1.019;-0.04;0.086;-0.010995574295520782;-0.006108652334660292;0.0012217304902151227
01:00:0A:00:00:00:00;1724803516;28/08/24;00:05:16;1.018;-0.04;0.085;-0.012217304669320583;-0.009773843921720982;0.0073303827084600925
01:00:0A:00:00:00:00;1724803517;28/08/24;00:05:17;1.012;-0.037;0.085;-0.014660765416920185;-0.013439035043120384;0.015882495790719986
01:00:0A:00:00:00:00;1724803518;28/08/24;00:05:18;1.006;-0.034;0.085;-0.013439035043120384;-0.012217304669320583;0.0073303827084600925
01:00:0A:00:00:00:00;1724803519;28/08/24;00:05:19;1.007;-0.032;0.083;-0.013439035043120384;-0.014660765416920185;0.004886921960860491
01:00:0A:00:00:00:00;1724803520;28/08/24;00:05:20;1.012;-0.034;0.085;-0.013439035043120384;-0.019547687843441963;-0.0036651913542300463
01:00:0A:00:00:00:00;1724803521;28/08/24;00:05:21;1.016;-0.035;0.089;-0.012217304669320583;-0.018325956538319588;-0.0073303827084600925
01:00:0A:00:00:00:00;1724803522;28/08/24;00:05:22;1.016;-0.033;0.09;-0.012217304669320583;-0.00855211354792118;-0.0024434609804302454
01:00:0A:00:00:00:00;1724803523;28/08/24;00:05:23;1.016;-0.035;0.086;-0.015882495790719986;-0.004886921960860491;0.006108652334660292
01:00:0A:00:00:00:00;1724803524;28/08/24;00:05:24;1.01;-0.035;0.083;-0.013439035043120384;-0.0073303827084600925;-0.0024434609804302454
01:00:0A:00:00:00:00;1724803525;28/08/24;00:05:25;1.008;-0.033;0.081;-0.014660765416920185;-0.014660765416920185;-0.006108652334660292
01:00:0A:00:00:00:00;1724803526;28/08/24;00:05:26;1.014;-0.036;0.082;-0.015882495790719986;-0.02321287989616394;-0.006108652334660292
01:00:0A:00:00:00:00;1724803527;28/08/24;00:05:27;1.024;-0.04;0.088;-0.013439035043120384;-0.015882495790719986;-0.0024434609804302454
01:00:0A:00:00:00:00;1724803528;28/08/24;00:05:28;1.027;-0.04;0.09;-0.01710422709584236;-0.013439035043120384;0.0073303827084600925
01:00:0A:00:00:00:00;1724803529;28/08/24;00:05:29;1.022;-0.039;0.089;-0.01710422709584236;-0.0012217304902151227;0.02076941914856434
01:00:0A:00:00:00:00;1724803530;28/08/24;00:05:30;1.016;-0.036;0.087;-0.015882495790719986;0.0024434609804302454;0.018325956538319588
01:00:0A:00:00:00:00;1724803531;28/08/24;00:05:31;1.005;-0.031;0.085;-0.01710422709584236;-0.006108652334660292;0.0073303827084600925
01:00:0A:00:00:00:00;1724803532;28/08/24;00:05:32;1.002;-0.033;0.082;-0.015882495790719986;-0.014660765416920185;-0.0036651913542300463
01:00:0A:00:00:00:00;1724803533;28/08/24;00:05:33;1.008;-0.036;0.082;-0.014660765416920185;-0.021991148591041565;-0.0073303827084600925
01:00:0A:00:00:00:00;1724803534;28/08/24;00:05:34;1.013;-0.036;0.087;-0.015882495790719986;-0.018325956538319588;0.0
01:00:0A:00:00:00:00;1724803535;28/08/24;00:05:35;1.017;-0.038;0.084;-0.015882495790719986;-0.014660765416920185;0.0024434609804302454
01:00:0A:00:00:00:00;1724803536;28/08/24;00:05:36;1.019;-0.034;0.083;-0.014660765416920185;-0.013439035043120384;0.0024434609804302454
01:00:0A:00:00:00:00;1724803537;28/08/24;00:05:37;1.02;-0.035;0.084;-0.015882495790719986;-0.018325956538319588;0.0036651913542300463
01:00:0A:00:00:00:00;1724803538;28/08/24;00:05:38;1.023;-0.039;0.086;-0.013439035043120384;-0.01710422709584236;0.0
01:00:0A:00:00:00:00;1724803539;28/08/24;00:05:39;1.024;-0.037;0.087;-0.012217304669320583;-0.0073303827084600925;0.0024434609804302454
01:00:0A:00:00:00:00;1724803540;28/08/24;00:05:40;1.016;-0.039;0.089;-0.014660765416920185;-0.00855211354792118;0.019547687843441963
01:00:0A:00:00:00:00;1724803541;28/08/24;00:05:41;1.01;-0.039;0.087;-0.013439035043120384;-0.006108652334660292;0.018325956538319588
01:00:0A:00:00:00:00;1724803542;28/08/24;00:05:42;1.002;-0.031;0.086;-0.010995574295520782;-0.00855211354792118;0.006108652334660292
01:00:0A:00:00:00:00;1724803543;28/08/24;00:05:43;1.001;-0.031;0.087;-0.010995574295520782;-0.015882495790719986;-0.0024434609804302454
01:00:0A:00:00:00:00;1724803544;28/08/24;00:05:44;1.016;-0.036;0.087;-0.0073303827084600925;-0.015882495790719986;-0.015882495790719986
01:00:0A:00:00:00:00;1724803545;28/08/24;00:05:45;1.026;-0.041;0.09;-0.006108652334660292;-0.0073303827084600925;-0.0073303827084600925
01:00:0A:00:00:00:00;1724803546;28/08/24;00:05:46;1.029;-0.043;0.088;-0.00855211354792118;0.0024434609804302454;0.006108652334660292
01:00:0A:00:00:00:00;1724803547;28/08/24;00:05:47;1.019;-0.039;0.082;-0.00855211354792118;-0.0036651913542300463;0.014660765416920185
01:00:0A:00:00:00:00;1724803548;28/08/24;00:05:48;1.011;-0.035;0.083;-0.006108652334660292;-0.0073303827084600925;0.013439035043120384
01:00:0A:00:00:00:00;1724803549;28/08/24;00:05:49;1.005;-0.032;0.081;-0.006108652334660292;-0.021991148591041565;0.004886921960860491
01:00:0A:00:00:00:00;1724803550;28/08/24;00:05:50;1.006;-0.035;0.081;-0.0024434609804302454;-0.02321287989616394;-0.006108652334660292
01:00:0A:00:00:00:00;1724803551;28/08/24;00:05:51;1.01;-0.037;0.087;0.0;-0.018325956538319588;-0.004886921960860491
01:00:0A:00:00:00:00;1724803552;28/08/24;00:05:52;1.013;-0.038;0.088;-0.0012217304902151227;-0.02321287989616394;0.0024434609804302454
01:00:0A:00:00:00:00;1724803553;28/08/24;00:05:53;1.016;-0.037;0.087;0.0024434609804302454;-0.00855211354792118;0.0073303827084600925
01:00:0A:00:00:00:00;1724803554;28/08/24;00:05:54;1.017;-0.032;0.086;0.006108652334660292;-0.004886921960860491;0.004886921960860491
01:00:0A:00:00:00:00;1724803555;28/08/24;00:05:55;1.017;-0.032;0.086;0.006108652334660292;-0.009773843921720982;0.0024434609804302454
01:00:0A:00:00:00:00;1724803556;28/08/24;00:05:56;1.017;-0.035;0.083;0.009773843921720982;-0.006108652334660292;-0.0036651913542300463
01:00:0A:00:00:00:00;1724803557;28/08/24;00:05:57;1.017;-0.035;0.085;0.010995574295520782;-0.00855211354792118;-0.004886921960860491
01:00:0A:00:00:00:00;1724803558;28/08/24;00:05:58;1.016;-0.039;0.083;0.00855211354792118;-0.012217304669320583;0.0073303827084600925
01:00:0A:00:00:00:00;1724803559;28/08/24;00:05:59;1.015;-0.04;0.081;0.009773843921720982;-0.010995574295520782;0.013439035043120384
01:00:0A:00:00:00:00;1724803560;28/08/24;00:06:00;1.011;-0.034;0.086;0.010995574295520782;-0.009773843921720982;0.015882495790719986
01:00:0A:00:00:00:00;1724803561;28/08/24;00:06:01;1.011;-0.034;0.084;0.009773843921720982;-0.014660765416920185;0.010995574295520782
01:00:0A:00:00:00:00;1724803562;28/08/24;00:06:02;1.013;-0.033;0.083;0.013439035043120384;-0.009773843921720982;0.0
01:00:0A:00:00:00:00;1724803563;28/08/24;00:06:03;1.014;-0.033;0.085;0.013439035043120384;-0.009773843921720982;-0.0012217304902151227
01:00:0A:00:00:00:00;1724803564;28/08/24;00:06:04;1.016;-0.034;0.082;0.010995574295520782;-0.01710422709584236;0.0012217304902151227
01:00:0A:00:00:00:00;1724803565;28/08/24;00:06:05;1.017;-0.033;0.082;0.013439035043120384;-0.012217304669320583;0.0
01:00:0A:00:00:00:00;1724803566;28/08/24;00:06:06;1.017;-0.032;0.084;0.013439035043120384;-0.012217304669320583;0.0073303827084600925
01:00:0A:00:00:00:00;1724803567;28/08/24;00:06:07;1.016;-0.033;0.085;0.012217304669320583;-0.01710422709584236;0.0024434609804302454
01:00:0A:00:00:00:00;1724803568;28/08/24;00:06:08;1.015;-0.034;0.086;0.015882495790719986;-0.010995574295520782;-0.0012217304902151227
01:00:0A:00:00:00:00;1724803569;28/08/24;00:06:09;1.011;-0.035;0.088;0.014660765416920185;-0.010995574295520782;0.0036651913542300463
01:00:0A:00:00:00:00;1724803570;28/08/24;00:06:10;1.011;-0.04;0.086;0.014660765416920185;-0.012217304669320583;0.004886921960860491
01:00:0A:00:00:00:00;1724803571;28/08/24;00:06:11;1.014;-0.037;0.085;0.01710422709584236;-0.00855211354792118;0.009773843921720982
01:00:0A:00:00:00:00;1724803572;28/08/24;00:06:12;1.018;-0.034;0.086;0.015882495790719986;-0.00855211354792118;0.010995574295520782
01:00:0A:00:00:00:00;1724803573;28/08/24;00:06:13;1.018;-0.033;0.084;0.014660765416920185;-0.010995574295520782;0.0073303827084600925
01:00:0A:00:00:00:00;1724803574;28/08/24;00:06:14;1.014;-0.032;0.082;0.01710422709584236;-0.009773843921720982;0.0
01:00:0A:00:00:00:00;1724803575;28/08/24;00:06:15;1.012;-0.033;0.084;0.015882495790719986;-0.009773843921720982;0.0024434609804302454
01:00:0A:00:00:00:00;1724803576;28/08/24;00:06:16;1.01;-0.035;0.082;0.013439035043120384;-0.019547687843441963;0.0012217304902151227
01:00:0A:00:00:00:00;1724803577;28/08/24;00:06:17;1.01;-0.034;0.084;0.014660765416920185;-0.014660765416920185;-0.0024434609804302454
01:00:0A:00:00:00:00;1724803578;28/08/24;00:06:18;1.016;-0.035;0.087;0.012217304669320583;-0.015882495790719986;0.0012217304902151227
01:00:0A:00:00:00:00;1724803579;28/08/24;00:06:19;1.019;-0.035;0.086;0.010995574295520782;-0.015882495790719986;0.0036651913542300463
01:00:0A:00:00:00:00;1724803580;28/08/24;00:06:20;1.019;-0.034;0.086;0.013439035043120384;-0.0036651913542300463;0.0036651913542300463
01:00:0A:00:00:00:00;1724803581;28/08/24;00:06:21;1.017;-0.035;0.087;0.010995574295520782;-0.0073303827084600925;0.004886921960860491
01:00:0A:00:00:00:00;1724803582;28/08/24;00:06:22;1.016;-0.036;0.083;0.009773843921720982;-0.009773843921720982;0.0073303827084600925
01:00:0A:00:00:00:00;1724803583;28/08/24;00:06:23;1.016;-0.034;0.084;0.010995574295520782;-0.0073303827084600925;0.0073303827084600925
01:00:0A:00:00:00:00;1724803584;28/08/24;00:06:24;1.016;-0.034;0.087;0.00855211354792118;-0.010995574295520782;0.010995574295520782
01:00:0A:00:00:00:00;1724803585;28/08/24;00:06:25;1.012;-0.033;0.084;0.00855211354792118;-0.00855211354792118;0.009773843921720982
01:00:0A:00:00:00:00;1724803586;28/08/24;00:06:26;1.007;-0.032;0.085;0.009773843921720982;-0.0024434609804302454;0.00855211354792118
01:00:0A:00:00:00:00;1724803587;28/08/24;00:06:27;1.004;-0.03;0.085;0.00855211354792118;-0.012217304669320583;0.0
01:00:0A:00:00:00:00;1724803588;28/08/24;00:06:28;1.006;-0.032;0.083;0.0073303827084600925;-0.01710422709584236;-0.004886921960860491
01:00:0A:00:00:00:00;1724803589;28/08/24;00:06:29;1.018;-0.036;0.086;0.009773843921720982;-0.012217304669320583;-0.00855211354792118
01:00:0A:00:00:00:00;1724803590;28/08/24;00:06:30;1.027;-0.039;0.09;0.006108652334660292;-0.010995574295520782;0.004886921960860491
01:00:0A:00:00:00:00;1724803591;28/08/24;00:06:31;1.026;-0.04;0.088;0.004886921960860491;-0.0073303827084600925;0.013439035043120384
01:00:0A:00:00:00:00;1724803592;28/08/24;00:06:32;1.016;-0.037;0.086;0.006108652334660292;0.0;0.01710422709584236
01:00:0A:00:00:00:00;1724803593;28/08/24;00:06:33;1.008;-0.034;0.086;0.0036651913542300463;-0.0073303827084600925;0.01710422709584236
01:00:0A:00:00:00:00;1724803594;28/08/24;00:06:34;1.003;-0.033;0.084;0.0036651913542300463;-0.01710422709584236;0.0024434609804302454
01:00:0A:00:00:00:00;1724803595;28/08/24;00:06:35;1.007;-0.033;0.085;0.006108652334660292;-0.015882495790719986;-0.0024434609804302454
01:00:0A:00:00:00:00;1724803596;28/08/24;00:06:36;1.014;-0.035;0.088;0.004886921960860491;-0.01710422709584236;-0.0036651913542300463
01:00:0A:00:00:00:00;1724803597;28/08/24;00:06:37;1.017;-0.038;0.086;0.0036651913542300463;-0.014660765416920185;-0.0012217304902151227
01:00:0A:00:00:00:00;1724803598;28/08/24;00:06:38;1.019;-0.036;0.086;0.0036651913542300463;-0.006108652334660292;0.00855211354792118
01:00:0A:00:00:00:00;1724803599;28/08/24;00:06:39;1.019;-0.034;0.086;0.0024434609804302454;-0.00855211354792118;0.00855211354792118
01:00:0A:00:00:00:00;1724803600;28/08/24;00:06:40;1.016;-0.031;0.084;0.0024434609804302454;-0.014660765416920185;0.0036651913542300463
01:00:0A:00:00:00:00;1724803601;28/08/24;00:06:41;1.013;-0.033;0.086;0.0036651913542300463;-0.010995574295520782;0.0012217304902151227
01:00:0A:00:00:00:00;1724803602;28/08/24;00:06:42;1.013;-0.035;0.087;0.0;-0.014660765416920185;0.0012217304902151227
01:00:0A:00:00:00:00;1724803603;28/08/24;00:06:43;1.012;-0.037;0.087;0.0;-0.012217304669320583;0.004886921960860491
01:00:0A:00:00:00:00;1724803604;28/08/24;00:06:44;1.01;-0.035;0.088;0.0;-0.006108652334660292;0.00855211354792118
01:00:0A:00:00:00:00;1724803605;28/08/24;00:06:45;1.014;-0.034;0.088;-0.0024434609804302454;-0.010995574295520782;0.0073303827084600925
01:00:0A:00:00:00:00;1724803606;28/08/24;00:06:46;1.016;-0.034;0.084;-0.0012217304902151227;-0.0073303827084600925;0.0036651913542300463
01:00:0A:00:00:00:00;1724803607;28/08/24;00:06:47;1.018;-0.032;0.087;0.0;-0.006108652334660292;0.0
01:00:0A:00:00:00:00;1724803608;28/08/24;00:06:48;1.016;-0.036;0.086;-0.0024434609804302454;-0.009773843921720982;0.0024434609804302454
01:00:0A:00:00:00:00;1724803609;28/08/24;00:06:49;1.013;-0.037;0.081;-0.0024434609804302454;-0.00855211354792118;0.004886921960860491
01:00:0A:00:00:00:00;1724803610;28/08/24;00:06:50;1.01;-0.035;0.084;-0.0024434609804302454;-0.009773843921720982;0.0073303827084600925
01:00:0A:00:00:00:00;1724803611;28/08/24;00:06:51;1.009;-0.033;0.086;-0.0036651913542300463;-0.015882495790719986;0.004886921960860491
01:00:0A:00:00:00:00;1724803612;28/08/24;00:06:52;1.011;-0.032;0.083;-0.0024434609804302454;-0.018325956538319588;-0.0036651913542300463
01:00:0A:00:00:00:00;1724803613;28/08/24;00:06:53;1.013;-0.033;0.088;-0.0012217304902151227;-0.014660765416920185;-0.006108652334660292
01:00:0A:00:00:00:00;1724803614;28/08/24;00:06:54;1.018;-0.038;0.087;-0.0024434609804302454;-0.01710422709584236;-0.006108652334660292
01:00:0A:00:00:00:00;1724803615;28/08/24;00:06:55;1.02;-0.039;0.086;-0.0036651913542300463;-0.013439035043120384;-0.0036651913542300463
01:00:0A:00:00:00:00;1724803616;28/08/24;00:06:56;1.023;-0.039;0.089;-0.0036651913542300463;-0.006108652334660292;0.0073303827084600925
01:00:0A:00:00:00:00;1724803617;28/08/24;00:06:57;1.019;-0.037;0.088;-0.006108652334660292;-0.0073303827084600925;0.012217304669320583
01:00:0A:00:00:00:00;1724803618;28/08/24;00:06:58;1.018;-0.035;0.086;-0.004886921960860491;-0.0036651913542300463;0.00855211354792118
01:00:0A:00:00:00:00;1724803619;28/08/24;00:06:59;1.011;-0.034;0.085;-0.0024434609804302454;-0.0036651913542300463;0.004886921960860491
01:00:0A:00:00:00:00;1724803620;28/08/24;00:07:00;1.009;-0.034;0.086;-0.004886921960860491;-0.00855211354792118;0.0036651913542300463
01:00:0A:00:00:00:00;1724803621;28/08/24;00:07:01;1.008;-0.034;0.083;-0.0036651913542300463;-0.013439035043120384;-0.0012217304902151227
01:00:0A:00:00:00:00;1724803622;28/08/24;00:07:02;1.011;-0.034;0.083;-0.0036651913542300463;-0.018325956538319588;-0.0024434609804302454
01:00:0A:00:00:00:00;1724803623;28/08/24;00:07:03;1.017;-0.035;0.087;-0.0036651913542300463;-0.019547687843441963;-0.0012217304902151227
01:00:0A:00:00:00:00;1724803624;28/08/24;00:07:04;1.019;-0.034;0.086;-0.0024434609804302454;-0.012217304669320583;0.0
01:00:0A:00:00:00:00;1724803625;28/08/24;00:07:05;1.018;-0.036;0.088;-0.0024434609804302454;-0.004886921960860491;0.0024434609804302454
01:00:0A:00:00:00:00;1724803626;28/08/24;00:07:06;1.014;-0.035;0.085;-0.0036651913542300463;-0.00855211354792118;0.006108652334660292
01:00:0A:00:00:00:00;1724803627;28/08/24;00:07:07;1.012;-0.035;0.085;-0.0024434609804302454;-0.00855211354792118;0.004886921960860491
01:00:0A:00:00:00:00;1724803628;28/08/24;00:07:08;1.011;-0.034;0.085;-0.0024434609804302454;-0.0073303827084600925;0.0036651913542300463
01:00:0A:00:00:00:00;1724803629;28/08/24;00:07:09;1.014;-0.033;0.084;-0.0024434609804302454;-0.014660765416920185;0.0024434609804302454
01:00:0A:00:00:00:00;1724803630;28/08/24;00:07:10;1.016;-0.035;0.084;-0.0012217304902151227;-0.013439035043120384;0.0
01:00:0A:00:00:00:00;1724803631;28/08/24;00:07:11;1.017;-0.034;0.086;-0.0012217304902151227;-0.013439035043120384;0.0012217304902151227
01:00:0A:00:00:00:00;1724803632;28/08/24;00:07:12;1.017;-0.036;0.085;-0.0024434609804302454;-0.014660765416920185;0.0036651913542300463
01:00:0A:00:00:00:00;1724803633;28/08/24;00:07:13;1.019;-0.036;0.084;-0.0012217304902151227;-0.012217304669320583;0.004886921960860491
01:00:0A:00:00:00:00;1724803634;28/08/24;00:07:14;1.016;-0.035;0.087;-0.0024434609804302454;-0.012217304669320583;0.00855211354792118
01:00:0A:00:00:00:00;1724803635;28/08/24;00:07:15;1.013;-0.034;0.086;-0.0024434609804302454;-0.00855211354792118;0.0073303827084600925
01:00:0A:00:00:00:00;1724803636;28/08/24;00:07:16;1.012;-0.033;0.086;-0.0012217304902151227;-0.004886921960860491;0.0036651913542300463
01:00:0A:00:00:00:00;1724803637;28/08/24;00:07:17;1.01;-0.034;0.085;-0.0012217304902151227;-0.00855211354792118;0.0012217304902151227
01:00:0A:00:00:00:00;1724803638;28/08/24;00:07:18;1.01;-0.036;0.082;-0.0024434609804302454;-0.014660765416920185;0.0
01:00:0A:00:00:00:00;1724803639;28/08/24;00:07:19;1.015;-0.036;0.083;-0.0012217304902151227;-0.013439035043120384;0.0024434609804302454
01:00:0A:00:00:00:00;1724803640;28/08/24;00:07:20;1.018;-0.036;0.086;-0.0012217304902151227;-0.013439035043120384;0.004886921960860491
01:00:0A:00:00:00:00;1724803641;28/08/24;00:07:21;1.02;-0.033;0.085;-0.0024434609804302454;-0.012217304669320583;0.004886921960860491
01:00:0A:00:00:00:00;1724803642;28/08/24;00:07:22;1.02;-0.034;0.084;0.0;-0.006108652334660292;0.0036651913542300463
01:00:0A:00:00:00:00;1724803643;28/08/24;00:07:23;1.015;-0.035;0.085;-0.0012217304902151227;-0.0073303827084600925;0.0024434609804302454
01:00:0A:00:00:00:00;1724803644;28/08/24;00:07:24;1.01;-0.035;0.082;-0.0012217304902151227;-0.012217304669320583;0.0012217304902151227
01:00:0A:00:00:00:00;1724803645;28/08/24;00:07:25;1.01;-0.036;0.081;-0.0012217304902151227;-0.012217304669320583;0.0012217304902151227
01:00:0A:00:00:00:00;1724803646;28/08/24;00:07:26;1.013;-0.035;0.085;-0.0024434609804302454;-0.019547687843441963;0.0024434609804302454
01:00:0A:00:00:00:00;1724803647;28/08/24;00:07:27;1.016;-0.034;0.084;-0.0024434609804302454;-0.018325956538319588;0.0
01:00:0A:00:00:00:00;1724803648;28/08/24;00:07:28;1.018;-0.033;0.087;-0.0012217304902151227;-0.012217304669320583;0.0
01:00:0A:00:00:00:00;1724803649;28/08/24;00:07:29;1.017;-0.035;0.088;-0.0024434609804302454;-0.013439035043120384;0.0012217304902151227
01:00:0A:00:00:00:00;1724803650;28/08/24;00:07:30;1.016;-0.036;0.085;-0.0024434609804302454;-0.013439035043120384;0.0036651913542300463
01:00:0A:00:00:00:00;1724803651;28/08/24;00:07:31;1.015;-0.036;0.085;-0.0024434609804302454;-0.010995574295520782;0.006108652334660292
01:00:0A:00:00:00:00;1724803652;28/08/24;00:07:32;1.014;-0.035;0.088;-0.0036651913542300463;-0.009773843921720982;0.0073303827084600925
01:00:0A:00:00:00:00;1724803653;28/08/24;00:07:33;1.016;-0.033;0.085;-0.0024434609804302454;-0.009773843921720982;0.004886921960860491
01:00:0A:00:00:00:00;1724803654;28/08/24;00:07:34;1.015;-0.033;0.085;-0.0012217304902151227;-0.006108652334660292;0.0024434609804302454
01:00:0A:00:00:00:00;1724803655;28/08/24;00:07:35;1.015;-0.035;0.084;-0.0024434609804302454;-0.010995574295520782;0.0
01:00:0A:00:00:00:00;1724803656;28/08/24;00:07:36;1.013;-0.037;0.081;-0.0012217304902151227;-0.012217304669320583;0.0012217304902151227
01:00:0A:00:00:00:00;1724803657;28/08/24;00:07:37;1.014;-0.037;0.084;-0.0012217304902151227;-0.014660765416920185;0.006108652334660292
01:00:0A:00:00:00:00;1724803658;28/08/24;00:07:38;1.016;-0.036;0.083;-0.0024434609804302454;-0.018325956538319588;0.0073303827084600925
01:00:0A:00:00:00:00;1724803659;28/08/24;00:07:39;1.016;-0.033;0.086;-0.0012217304902151227;-0.015882495790719986;0.004886921960860491
01:00:0A:00:00:00:00;1724803660;28/08/24;00:07:40;1.016;-0.031;0.085;0.0;-0.013439035043120384;0.0024434609804302454
01:00:0A:00:00:00:00;1724803661;28/08/24;00:07:41;1.015;-0.032;0.087;0.0;-0.010995574295520782;-0.0024434609804302454
01:00:0A:00:00:00:00;1724803662;28/08/24;00:07:42;1.015;-0.034;0.084;0.0012217304902151227;-0.009773843921720982;-0.0024434609804302454
01:00:0A:00:00:00:00;1724803663;28/08/24;00:07:43;1.013;-0.038;0.085;0.0012217304902151227;-0.009773843921720982;0.0012217304902151227
01:00:0A:00:00:00:00;1724803664;28/08/24;00:07:44;1.016;-0.037;0.084;0.0;-0.013439035043120384;0.004886921960860491
01:00:0A:00:00:00:00;1724803665;28/08/24;00:07:45;1.016;-0.036;0.084;0.0;-0.012217304669320583;0.004886921960860491
01:00:0A:00:00:00:00;1724803666;28/08/24;00:07:46;1.016;-0.034;0.086;0.0012217304902151227;-0.009773843921720982;0.004886921960860491
01:00:0A:00:00:00:00;1724803667;28/08/24;00:07:47;1.014;-0.034;0.085;0.0012217304902151227;-0.012217304669320583;0.0036651913542300463
01:00:0A:00:00:00:00;1724803668;28/08/24;00:07:48;1.013;-0.034;0.084;0.0012217304902151227;-0.010995574295520782;0.0036651913542300463
01:00:0A:00:00:00:00;1724803669;28/08/24;00:07:49;1.015;-0.035;0.085;0.0024434609804302454;-0.012217304669320583;0.0036651913542300463
01:00:0A:00:00:00:00;1724803670;28/08/24;00:07:50;1.015;-0.034;0.085;0.0012217304902151227;-0.012217304669320583;0.004886921960860491
01:00:0A:00:00:00:00;1724803671;28/08/24;00:07:51;1.016;-0.033;0.084;0.0024434609804302454;-0.009773843921720982;0.0024434609804302454
01:00:0A:00:00:00:00;1724803672;28/08/24;00:07:52;1.016;-0.032;0.086;0.0036651913542300463;-0.00855211354792118;0.0012217304902151227
01:00:0A:00:00:00:00;1724803673;28/08/24;00:07:53;1.014;-0.035;0.085;0.0036651913542300463;-0.009773843921720982;-0.0012217304902151227
01:00:0A:00:00:00:00;1724803674;28/08/24;00:07:54;1.014;-0.035;0.084;0.004886921960860491;-0.009773843921720982;-0.0012217304902151227
01:00:0A:00:00:00:00;1724803675;28/08/24;00:07:55;1.013;-0.037;0.084;0.0036651913542300463;-0.012217304669320583;0.0024434609804302454
01:00:0A:00:00:00:00;1724803676;28/08/24;00:07:56;1.013;-0.036;0.083;0.0036651913542300463;-0.014660765416920185;0.0036651913542300463
01:00:0A:00:00:00:00;1724803677;28/08/24;00:07:57;1.013;-0.035;0.084;0.004886921960860491;-0.014660765416920185;0.0036651913542300463
01:00:0A:00:00:00:00;1724803678;28/08/24;00:07:58;1.016;-0.036;0.085;0.004886921960860491;-0.014660765416920185;0.0024434609804302454
01:00:0A:00:00:00:00;1724803679;28/08/24;00:07:59;1.017;-0.035;0.085;0.004886921960860491;-0.014660765416920185;0.0024434609804302454
01:00:0A:00:00:00:00;1724803680;28/08/24;00:08:00;1.019;-0.035;0.086;0.006108652334660292;-0.009773843921720982;0.0036651913542300463
01:00:0A:00:00:00:00;1724803681;28/08/24;00:08:01;1.019;-0.035;0.087;0.004886921960860491;-0.009773843921720982;0.006108652334660292
01:00:0A:00:00:00:00;1724803682;28/08/24;00:08:02;1.016;-0.034;0.084;0.004886921960860491;-0.0073303827084600925;0.0073303827084600925
01:00:0A:00:00:00:00;1724803683;28/08/24;00:08:03;1.014;-0.034;0.084;0.004886921960860491;-0.0073303827084600925;0.0073303827084600925
01:00:0A:00:00:00:00;1724803684;28/08/24;00:08:04;1.009;-0.034;0.084;0.004886921960860491;-0.009773843921720982;0.0024434609804302454
01:00:0A:00:00:00:00;1724803685;28/08/24;00:08:05;1.009;-0.035;0.083;0.006108652334660292;-0.012217304669320583;0.0024434609804302454
01:00:0A:00:00:00:00;1724803686;28/08/24;00:08:06;1.013;-0.034;0.084;0.006108652334660292;-0.014660765416920185;0.0012217304902151227
01:00:0A:00:00:00:00;1724803687;28/08/24;00:08:07;1.013;-0.036;0.085;0.004886921960860491;-0.015882495790719986;0.0024434609804302454
01:00:0A:00:00:00:00;1724803688;28/08/24;00:08:08;1.015;-0.035;0.085;0.004886921960860491;-0.015882495790719986;0.0036651913542300463
01:00:0A:00:00:00:00;1724803689;28/08/24;00:08:09;1.017;-0.034;0.086;0.006108652334660292;-0.013439035043120384;0.0012217304902151227
01:00:0A:00:00:00:00;1724803690;28/08/24;00:08:10;1.019;-0.034;0.087;0.006108652334660292;-0.010995574295520782;0.0012217304902151227
01:00:0A:00:00:00:00;1724803691;28/08/24;00:08:11;1.018;-0.036;0.088;0.006108652334660292;-0.00855211354792118;0.004886921960860491
01:00:0A:00:00:00:00;1724803692;28/08/24;00:08:12;1.018;-0.036;0.086;0.006108652334660292;-0.0073303827084600925;0.0073303827084600925
01:00:0A:00:00:00:00;1724803693;28/08/24;00:08:13;1.013;-0.034;0.085;0.006108652334660292;-0.0073303827084600925;0.00855211354792118
01:00:0A:00:00:00:00;1724803694;28/08/24;00:08:14;1.012;-0.034;0.083;0.006108652334660292;-0.009773843921720982;0.0073303827084600925
01:00:0A:00:00:00:00;1724803695;28/08/24;00:08:15;1.011;-0.035;0.084;0.0073303827084600925;-0.012217304669320583;0.0024434609804302454
01:00:0A:00:00:00:00;1724803696;28/08/24;00:08:16;1.011;-0.034;0.084;0.0073303827084600925;-0.014660765416920185;0.0012217304902151227
01:00:0A:00:00:00:00;1724803697;28/08/24;00:08:17;1.016;-0.035;0.085;0.0073303827084600925;-0.013439035043120384;0.0012217304902151227
01:00:0A:00:00:00:00;1724803698;28/08/24;00:08:18;1.018;-0.036;0.085;0.0073303827084600925;-0.010995574295520782;0.004886921960860491
01:00:0A:00:00:00:00;1724803699;28/08/24;00:08:19;1.016;-0.034;0.087;0.0073303827084600925;-0.009773843921720982;0.006108652334660292
01:00:0A:00:00:00:00;1724803700;28/08/24;00:08:20;1.013;-0.027;0.088;0.024434609338641167;-0.0036651913542300463;-0.0073303827084600925
01:00:0A:00:00:00:00;1724803701;28/08/24;00:08:21;1.013;-0.033;0.088;0.07208210229873657;-0.004886921960860491;-0.0073303827084600925
01:00:0A:00:00:00:00;1724803702;28/08/24;00:08:22;1.016;-0.032;0.088;0.09285151958465576;-0.012217304669320583;0.0
01:00:0A:00:00:00:00;1724803703;28/08/24;00:08:23;1.017;-0.027;0.09;0.080634206533432;-0.009773843921720982;0.0024434609804302454
01:00:0A:00:00:00:00;1724803704;28/08/24;00:08:24;1.016;-0.036;0.086;0.06475171446800232;-0.01710422709584236;0.02321287989616394
01:00:0A:00:00:00:00;1724803705;28/08/24;00:08:25;1.016;-0.041;0.081;0.07452555745840073;-0.0073303827084600925;0.0036651913542300463
01:00:0A:00:00:00:00;1724803706;28/08/24;00:08:26;1.013;-0.026;0.087;0.07208210229873657;-0.006108652334660292;0.0036651913542300463
01:00:0A:00:00:00:00;1724803707;28/08/24;00:08:27;1.009;-0.033;0.084;0.059864792972803116;-0.018325956538319588;0.021991148591041565
01:00:0A:00:00:00:00;1724803708;28/08/24;00:08:28;1.01;-0.039;0.083;0.06719517707824707;-0.013439035043120384;-0.006108652334660292
01:00:0A:00:00:00:00;1724803709;28/08/24;00:08:29;1.014;-0.027;0.086;0.06352998316287994;-0.014660765416920185;-0.0024434609804302454
01:00:0A:00:00:00:00;1724803710;28/08/24;00:08:30;1.018;-0.037;0.086;0.05375614017248154;-0.01710422709584236;0.015882495790719986
01:00:0A:00:00:00:00;1724803711;28/08/24;00:08:31;1.018;-0.04;0.087;0.059864792972803116;-0.010995574295520782;0.0012217304902151227
01:00:0A:00:00:00:00;1724803712;28/08/24;00:08:32;1.016;-0.029;0.086;0.05497787147760391;-0.009773843921720982;0.0073303827084600925
01:00:0A:00:00:00:00;1724803713;28/08/24;00:08:33;1.014;-0.038;0.084;0.05009094998240471;-0.009773843921720982;0.018325956538319588
01:00:0A:00:00:00:00;1724803714;28/08/24;00:08:34;1.014;-0.037;0.085;0.05619959905743599;-0.012217304669320583;-0.0036651913542300463
01:00:0A:00:00:00:00;1724803715;28/08/24;00:08:35;1.016;-0.031;0.084;0.051312677562236786;-0.013439035043120384;0.004886921960860491
01:00:0A:00:00:00:00;1724803716;28/08/24;00:08:36;1.015;-0.038;0.085;0.04886921867728233;-0.009773843921720982;0.01710422709584236
01:00:0A:00:00:00:00;1724803717;28/08/24;00:08:37;1.015;-0.037;0.085;0.05253440886735916;-0.012217304669320583;-0.0012217304902151227
01:00:0A:00:00:00:00;1724803718;28/08/24;00:08:38;1.012;-0.031;0.084;0.05009094998240471;-0.012217304669320583;0.00855211354792118
01:00:0A:00:00:00:00;1724803719;28/08/24;00:08:39;1.011;-0.038;0.085;0.04886921867728233;-0.010995574295520782;0.010995574295520782
01:00:0A:00:00:00:00;1724803720;28/08/24;00:08:40;1.014;-0.036;0.085;0.05253440886735916;-0.01710422709584236;-0.006108652334660292
01:00:0A:00:00:00:00;1724803721;28/08/24;00:08:41;1.016;-0.033;0.085;0.05009094998240471;-0.014660765416920185;0.0036651913542300463
01:00:0A:00:00:00:00;1724803722;28/08/24;00:08:42;1.022;-0.04;0.088;0.05009094998240471;-0.00855211354792118;0.009773843921720982
01:00:0A:00:00:00:00;1724803723;28/08/24;00:08:43;1.022;-0.037;0.087;0.051312677562236786;-0.010995574295520782;0.0036651913542300463
01:00:0A:00:00:00:00;1724803724;28/08/24;00:08:44;1.016;-0.033;0.084;0.04886921867728233;-0.0073303827084600925;0.013439035043120384
01:00:0A:00:00:00:00;1724803725;28/08/24;00:08:45;1.01;-0.036;0.085;0.04886921867728233;-0.006108652334660292;0.013439035043120384
01:00:0A:00:00:00:00;1724803726;28/08/24;00:08:46;1.009;-0.033;0.084;0.05009094998240471;-0.015882495790719986;0.0
01:00:0A:00:00:00:00;1724803727;28/08/24;00:08:47;1.012;-0.032;0.081;0.04886921867728233;-0.015882495790719986;0.006108652334660292
01:00:0A:00:00:00:00;1724803728;28/08/24;00:08:48;1.012;-0.036;0.085;0.05009094998240471;-0.013439035043120384;0.0036651913542300463
01:00:0A:00:00:00:00;1724803729;28/08/24;00:08:49;1.016;-0.035;0.085;0.04886921867728233;-0.01710422709584236;-0.0012217304902151227
01:00:0A:00:00:00:00;1724803730;28/08/24;00:08:50;1.016;-0.034;0.085;0.04764748737215996;-0.012217304669320583;0.006108652334660292
01:00:0A:00:00:00:00;1724803731;28/08/24;00:08:51;1.016;-0.037;0.087;0.04886921867728233;-0.00855211354792118;0.0073303827084600925
01:00:0A:00:00:00:00;1724803732;28/08/24;00:08:52;1.017;-0.034;0.086;0.04764748737215996;-0.013439035043120384;0.0036651913542300463
01:00:0A:00:00:00:00;1724803733;28/08/24;00:08:53;1.016;-0.035;0.084;0.04764748737215996;-0.0073303827084600925;0.010995574295520782
01:00:0A:00:00:00:00;1724803734;28/08/24;00:08:54;1.015;-0.036;0.086;0.04886921867728233;-0.006108652334660292;0.009773843921720982
01:00:0A:00:00:00:00;1724803735;28/08/24;00:08:55;1.013;-0.034;0.084;0.04764748737215996;-0.013439035043120384;0.0073303827084600925
01:00:0A:00:00:00:00;1724803736;28/08/24;00:08:56;1.012;-0.033;0.082;0.04764748737215996;-0.009773843921720982;0.009773843921720982
01:00:0A:00:00:00:00;1724803737;28/08/24;00:08:57;1.01;-0.035;0.086;0.04764748737215996;-0.013439035043120384;0.004886921960860491
01:00:0A:00:00:00:00;1724803738;28/08/24;00:08:58;1.013;-0.034;0.084;0.04764748737215996;-0.01710422709584236;0.0
01:00:0A:00:00:00:00;1724803739;28/08/24;00:08:59;1.014;-0.034;0.084;0.04764748737215996;-0.012217304669320583;0.004886921960860491
01:00:0A:00:00:00:00;1724803740;28/08/24;00:09:00;1.018;-0.035;0.087;0.04764748737215996;-0.012217304669320583;0.0036651913542300463
01:00:0A:00:00:00:00;1724803741;28/08/24;00:09:01;1.018;-0.034;0.085;0.04642575979232788;-0.014660765416920185;0.004886921960860491
01:00:0A:00:00:00:00;1724803742;28/08/24;00:09:02;1.016;-0.035;0.085;0.04642575979232788;-0.009773843921720982;0.00855211354792118
01:00:0A:00:00:00:00;1724803743;28/08/24;00:09:03;1.013;-0.036;0.087;0.04642575979232788;-0.009773843921720982;0.006108652334660292
01:00:0A:00:00:00:00;1724803744;28/08/24;00:09:04;1.013;-0.034;0.083;0.04642575979232788;-0.012217304669320583;0.0073303827084600925
01:00:0A:00:00:00:00;1724803745;28/08/24;00:09:05;1.013;-0.033;0.085;0.04642575979232788;-0.00855211354792118;0.0073303827084600925
01:00:0A:00:00:00:00;1724803746;28/08/24;00:09:06;1.014;-0.036;0.085;0.04642575979232788;-0.012217304669320583;0.004886921960860491
01:00:0A:00:00:00:00;1724803747;28/08/24;00:09:07;1.014;-0.033;0.083;0.045204028487205505;-0.014660765416920185;0.006108652334660292
01:00:0A:00:00:00:00;1724803748;28/08/24;00:09:08;1.014;-0.035;0.084;0.04642575979232788;-0.012217304669320583;0.006108652334660292
01:00:0A:00:00:00:00;1724803749;28/08/24;00:09:09;1.016;-0.033;0.086;0.04642575979232788;-0.013439035043120384;0.0036651913542300463
01:00:0A:00:00:00:00;1724803750;28/08/24;00:09:10;1.016;-0.034;0.085;0.045204028487205505;-0.012217304669320583;0.0036651913542300463
01:00:0A:00:00:00:00;1724803751;28/08/24;00:09:11;1.016;-0.037;0.085;0.04642575979232788;-0.00855211354792118;0.0073303827084600925
01:00:0A:00:00:00:00;1724803752;28/08/24;00:09:12;1.016;-0.035;0.085;0.04398229718208313;-0.012217304669320583;0.0073303827084600925
01:00:0A:00:00:00:00;1724803753;28/08/24;00:09:13;1.015;-0.033;0.084;0.04398229718208313;-0.013439035043120384;0.0073303827084600925
01:00:0A:00:00:00:00;1724803754;28/08/24;00:09:14;1.014;-0.034;0.085;0.04398229718208313;-0.012217304669320583;0.006108652334660292
01:00:0A:00:00:00:00;1724803755;28/08/24;00:09:15;1.014;-0.034;0.086;0.042760565876960754;-0.014660765416920185;0.0036651913542300463
01:00:0A:00:00:00:00;1724803756;28/08/24;00:09:16;1.014;-0.033;0.085;0.042760565876960754;-0.010995574295520782;0.0036651913542300463
01:00:0A:00:00:00:00;1724803757;28/08/24;00:09:17;1.015;-0.036;0.085;0.042760565876960754;-0.010995574295520782;0.0024434609804302454
01:00:0A:00:00:00:00;1724803758;28/08/24;00:09:18;1.016;-0.036;0.085;0.04153883829712868;-0.014660765416920185;0.0036651913542300463
01:00:0A:00:00:00:00;1724803759;28/08/24;00:09:19;1.015;-0.035;0.084;0.039095375686883926;-0.013439035043120384;0.0073303827084600925
01:00:0A:00:00:00:00;1724803760;28/08/24;00:09:20;1.016;-0.034;0.088;0.039095375686883926;-0.012217304669320583;0.0073303827084600925
01:00:0A:00:00:00:00;1724803761;28/08/24;00:09:21;1.015;-0.034;0.087;0.03787364438176155;-0.012217304669320583;0.006108652334660292
01:00:0A:00:00:00:00;1724803762;28/08/24;00:09:22;1.015;-0.033;0.085;0.036651913076639175;-0.010995574295520782;0.006108652334660292
01:00:0A:00:00:00:00;1724803763;28/08/24;00:09:23;1.014;-0.034;0.085;0.03787364438176155;-0.00855211354792118;0.004886921960860491
01:00:0A:00:00:00:00;1724803764;28/08/24;00:09:24;1.014;-0.033;0.083;0.0354301817715168;-0.013439035043120384;0.004886921960860491
01:00:0A:00:00:00:00;1724803765;28/08/24;00:09:25;1.015;-0.035;0.083;0.03420845419168472;-0.014660765416920185;0.0073303827084600925
01:00:0A:00:00:00:00;1724803766;28/08/24;00:09:26;1.015;-0.035;0.086;0.03420845419168472;-0.013439035043120384;0.006108652334660292
01:00:0A:00:00:00:00;1724803767;28/08/24;00:09:27;1.016;-0.034;0.086;0.03420845419168472;-0.014660765416920185;0.0036651913542300463
01:00:0A:00:00:00:00;1724803768;28/08/24;00:09:28;1.015;-0.035;0.086;0.03420845419168472;-0.009773843921720982;0.004886921960860491
01:00:0A:00:00:00:00;1724803769;28/08/24;00:09:29;1.014;-0.035;0.085;0.03420845419168472;-0.009773843921720982;0.0024434609804302454
01:00:0A:00:00:00:00;1724803770;28/08/24;00:09:30;1.014;-0.036;0.085;0.03176499158143997;-0.014660765416920185;0.0036651913542300463
01:00:0A:00:00:00:00;1724803771;28/08/24;00:09:31;1.014;-0.036;0.085;0.03298672288656235;-0.012217304669320583;0.006108652334660292
01:00:0A:00:00:00:00;1724803772;28/08/24;00:09:32;1.015;-0.036;0.086;0.03176499158143997;-0.013439035043120384;0.006108652334660292
01:00:0A:00:00:00:00;1724803773;28/08/24;00:09:33;1.016;-0.033;0.085;0.03176499158143997;-0.012217304669320583;0.006108652334660292
01:00:0A:00:00:00:00;1724803774;28/08/24;00:09:34;1.014;-0.034;0.084;0.03176499158143997;-0.009773843921720982;0.0036651913542300463
01:00:0A:00:00:00:00;1724803775;28/08/24;00:09:35;1.014;-0.035;0.087;0.03176499158143997;-0.010995574295520782;0.0024434609804302454
01:00:0A:00:00:00:00;1724803776;28/08/24;00:09:36;1.014;-0.035;0.085;0.030543262138962746;-0.010995574295520782;0.0036651913542300463
01:00:0A:00:00:00:00;1724803777;28/08/24;00:09:37;1.014;-0.036;0.085;0.030543262138962746;-0.010995574295520782;0.006108652334660292
01:00:0A:00:00:00:00;1724803778;28/08/24;00:09:38;1.016;-0.035;0.086;0.02932153083384037;-0.013439035043120384;0.006108652334660292
01:00:0A:00:00:00:00;1724803779;28/08/24;00:09:39;1.016;-0.034;0.085;0.02932153083384037;-0.013439035043120384;0.004886921960860491
01:00:0A:00:00:00:00;1724803780;28/08/24;00:09:40;1.015;-0.033;0.086;0.02932153083384037;-0.00855211354792118;0.004886921960860491
01:00:0A:00:00:00:00;1724803781;28/08/24;00:09:41;1.015;-0.034;0.085;0.028099799528717995;-0.012217304669320583;0.0036651913542300463
01:00:0A:00:00:00:00;1724803782;28/08/24;00:09:42;1.014;-0.034;0.084;0.028099799528717995;-0.013439035043120384;0.0036651913542300463
01:00:0A:00:00:00:00;1724803783;28/08/24;00:09:43;1.015;-0.034;0.085;0.02687807008624077;-0.012217304669320583;0.004886921960860491
01:00:0A:00:00:00:00;1724803784;28/08/24;00:09:44;1.014;-0.035;0.086;0.02687807008624077;-0.014660765416920185;0.004886921960860491
01:00:0A:00:00:00:00;1724803785;28/08/24;00:09:45;1.015;-0.034;0.083;0.02687807008624077;-0.012217304669320583;0.004886921960860491
01:00:0A:00:00:00:00;1724803786;28/08/24;00:09:46;1.015;-0.034;0.085;0.02687807008624077;-0.010995574295520782;0.0036651913542300463
01:00:0A:00:00:00:00;1724803787;28/08/24;00:09:47;1.016;-0.035;0.086;0.025656338781118393;-0.012217304669320583;0.0036651913542300463
01:00:0A:00:00:00:00;1724803788;28/08/24;00:09:48;1.015;-0.034;0.084;0.02687807008624077;-0.010995574295520782;0.004886921960860491
01:00:0A:00:00:00:00;1724803789;28/08/24;00:09:49;1.015;-0.035;0.085;0.025656338781118393;-0.009773843921720982;0.006108652334660292
01:00:0A:00:00:00:00;1724803790;28/08/24;00:09:50;1.016;-0.033;0.085;0.025656338781118393;-0.012217304669320583;0.006108652334660292
01:00:0A:00:00:00:00;1724803791;28/08/24;00:09:51;1.016;-0.033;0.083;0.025656338781118393;-0.012217304669320583;0.006108652334660292
01:00:0A:00:00:00:00;1724803792;28/08/24;00:09:52;1.015;-0.035;0.086;0.025656338781118393;-0.00855211354792118;0.006108652334660292
01:00:0A:00:00:00:00;1724803793;28/08/24;00:09:53;1.014;-0.033;0.084;0.024434609338641167;-0.012217304669320583;0.004886921960860491
01:00:0A:00:00:00:00;1724803794;28/08/24;00:09:54;1.013;-0.035;0.082;0.024434609338641167;-0.012217304669320583;0.0036651913542300463
01:00:0A:00:00:00:00;1724803795;28/08/24;00:09:55;1.013;-0.034;0.085;0.024434609338641167;-0.012217304669320583;0.004886921960860491
01:00:0A:00:00:00:00;1724803796;28/08/24;00:09:56;1.016;-0.035;0.085;0.024434609338641167;-0.013439035043120384;0.0036651913542300463
01:00:0A:00:00:00:00;1724803797;28/08/24;00:09:57;1.016;-0.033;0.084;0.024434609338641167;-0.010995574295520782;0.0036651913542300463
01:00:0A:00:00:00:00;1724803798;28/08/24;00:09:58;1.016;-0.034;0.085;0.024434609338641167;-0.012217304669320583;0.0036651913542300463
01:00:0A:00:00:00:00;1724803799;28/08/24;00:09:59;1.016;-0.034;0.086;0.02321287989616394;-0.013439035043120384;0.0036651913542300463
01:00:0A:00:00:00:00;1724803800;28/08/24;00:10:00;1.014;-0.035;0.085;0.024434609338641167;-0.010995574295520782;0.004886921960860491
01:00:0A:00:00:00:00;1724803801;28/08/24;00:10:01;1.015;-0.035;0.086;0.024434609338641167;-0.010995574295520782;0.006108652334660292
01:00:0A:00:00:00:00;1724803802;28/08/24;00:10:02;1.016;-0.035;0.084;0.02321287989616394;-0.013439035043120384;0.004886921960860491
01:00:0A:00:00:00:00;1724803803;28/08/24;00:10:03;1.016;-0.035;0.085;0.024434609338641167;-0.009773843921720982;0.006108652334660292
01:00:0A:00:00:00:00;1724803804;28/08/24;00:10:04;1.016;-0.034;0.086;0.024434609338641167;-0.009773843921720982;0.004886921960860491
01:00:0A:00:00:00:00;1724803805;28/08/24;00:10:05;1.015;-0.033;0.085;0.024434609338641167;-0.012217304669320583;0.0036651913542300463
01:00:0A:00:00:00:00;1724803806;28/08/24;00:10:06;1.014;-0.034;0.083;0.024434609338641167;-0.010995574295520782;0.004886921960860491
01:00:0A:00:00:00:00;1724803807;28/08/24;00:10:07;1.014;-0.034;0.086;0.024434609338641167;-0.010995574295520782;0.004886921960860491
01:00:0A:00:00:00:00;1724803808;28/08/24;00:10:08;1.015;-0.035;0.085;0.024434609338641167;-0.013439035043120384;0.004886921960860491
01:00:0A:00:00:00:00;1724803809;28/08/24;00:10:09;1.016;-0.035;0.084;0.025656338781118393;-0.009773843921720982;0.006108652334660292
01:00:0A:00:00:00:00;1724803810;28/08/24;00:10:10;1.014;-0.034;0.086;0.025656338781118393;-0.012217304669320583;0.004886921960860491
01:00:0A:00:00:00:00;1724803811;28/08/24;00:10:11;1.013;-0.035;0.085;0.025656338781118393;-0.014660765416920185;0.004886921960860491
01:00:0A:00:00:00:00;1724803812;28/08/24;00:10:12;1.014;-0.035;0.084;0.02687807008624077;-0.010995574295520782;0.0036651913542300463
01:00:0A:00:00:00:00;1724803813;28/08/24;00:10:13;1.014;-0.034;0.086;0.028099799528717995;-0.013439035043120384;0.0036651913542300463
01:00:0A:00:00:00:00;1724803814;28/08/24;00:10:14;1.016;-0.035;0.085;0.028099799528717995;-0.013439035043120384;0.004886921960860491
01:00:0A:00:00:00:00;1724803815;28/08/24;00:10:15;1.016;-0.034;0.085;0.02932153083384037;-0.010995574295520782;0.006108652334660292
01:00:0A:00:00:00:00;1724803816;28/08/24;00:10:16;1.016;-0.034;0.085;0.02932153083384037;-0.009773843921720982;0.004886921960860491
01:00:0A:00:00:00:00;1724803817;28/08/24;00:10:17;1.014;-0.035;0.084;0.02932153083384037;-0.012217304669320583;0.004886921960860491
01:00:0A:00:00:00:00;1724803818;28/08/24;00:10:18;1.014;-0.035;0.084;0.030543262138962746;-0.009773843921720982;0.006108652334660292
01:00:0A:00:00:00:00;1724803819;28/08/24;00:10:19;1.014;-0.035;0.086;0.030543262138962746;-0.012217304669320583;0.004886921960860491
01:00:0A:00:00:00:00;1724803820;28/08/24;00:10:20;1.015;-0.034;0.085;0.030543262138962746;-0.013439035043120384;0.004886921960860491
01:00:0A:00:00:00:00;1724803821;28/08/24;00:10:21;1.016;-0.033;0.085;0.03176499158143997;-0.009773843921720982;0.004886921960860491
01:00:0A:00:00:00:00;1724803822;28/08/24;00:10:22;1.016;-0.034;0.085;0.03176499158143997;-0.012217304669320583;0.004886921960860491
01:00:0A:00:00:00:00;1724803823;28/08/24;00:10:23;1.014;-0.034;0.085;0.03176499158143997;-0.012217304669320583;0.004886921960860491
01:00:0A:00:00:00:00;1724803824;28/08/24;00:10:24;1.014;-0.035;0.084;0.03298672288656235;-0.009773843921720982;0.004886921960860491
01:00:0A:00:00:00:00;1724803825;28/08/24;00:10:25;1.014;-0.036;0.085;0.03176499158143997;-0.013439035043120384;0.004886921960860491
01:00:0A:00:00:00:00;1724803826;28/08/24;00:10:26;1.016;-0.035;0.084;0.03176499158143997;-0.013439035043120384;0.006108652334660292
01:00:0A:00:00:00:00;1724803827;28/08/24;00:10:27;1.016;-0.035;0.086;0.03298672288656235;-0.010995574295520782;0.006108652334660292
01:00:0A:00:00:00:00;1724803828;28/08/24;00:10:28;1.016;-0.034;0.086;0.03176499158143997;-0.010995574295520782;0.004886921960860491
01:00:0A:00:00:00:00;1724803829;28/08/24;00:10:29;1.014;-0.035;0.083;0.03176499158143997;-0.012217304669320583;0.004886921960860491
01:00:0A:00:00:00:00;1724803830;28/08/24;00:10:30;1.016;-0.035;0.085;0.03298672288656235;-0.009773843921720982;0.004886921960860491
01:00:0A:00:00:00:00;1724803831;28/08/24;00:10:31;1.014;-0.035;0.086;0.03176499158143997;-0.012217304669320583;0.006108652334660292
01:00:0A:00:00:00:00;1724803832;28/08/24;00:10:32;1.016;-0.035;0.085;0.03176499158143997;-0.012217304669320583;0.0073303827084600925
01:00:0A:00:00:00:00;1724803833;28/08/24;00:10:33;1.016;-0.035;0.084;0.03298672288656235;-0.00855211354792118;0.006108652334660292
01:00:0A:00:00:00:00;1724803834;28/08/24;00:10:34;1.016;-0.035;0.086;0.03176499158143997;-0.010995574295520782;0.0073303827084600925
01:00:0A:00:00:00:00;1724803835;28/08/24;00:10:35;1.014;-0.035;0.085;0.03176499158143997;-0.012217304669320583;0.006108652334660292
01:00:0A:00:00:00:00;1724803836;28/08/24;00:10:36;1.013;-0.035;0.084;0.03298672288656235;-0.009773843921720982;0.004886921960860491
01:00:0A:00:00:00:00;1724803837;28/08/24;00:10:37;1.014;-0.034;0.085;0.03176499158143997;-0.013439035043120384;0.004886921960860491
01:00:0A:00:00:00:00;1724803838;28/08/24;00:10:38;1.014;-0.036;0.084;0.03298672288656235;-0.012217304669320583;0.0036651913542300463
01:00:0A:00:00:00:00;1724803839;28/08/24;00:10:39;1.016;-0.035;0.085;0.03298672288656235;-0.012217304669320583;0.004886921960860491
01:00:0A:00:00:00:00;1724803840;28/08/24;00:10:40;1.016;-0.035;0.086;0.03298672288656235;-0.013439035043120384;0.004886921960860491
01:00:0A:00:00:00:00;1724803841;28/08/24;00:10:41;1.015;-0.036;0.083;0.03298672288656235;-0.012217304669320583;0.004886921960860491
01:00:0A:00:00:00:00;1724803842;28/08/24;00:10:42;1.015;-0.035;0.086;0.03298672288656235;-0.009773843921720982;0.006108652334660292
01:00:0A:00:00:00:00;1724803843;28/08/24;00:10:43;1.014;-0.036;0.086;0.03176499158143997;-0.012217304669320583;0.006108652334660292
01:00:0A:00:00:00:00;1724803844;28/08/24;00:10:44;1.015;-0.034;0.084;0.03298672288656235;-0.012217304669320583;0.006108652334660292
01:00:0A:00:00:00:00;1724803845;28/08/24;00:10:45;1.016;-0.034;0.086;0.03420845419168472;-0.010995574295520782;0.0036651913542300463
01:00:0A:00:00:00:00;1724803846;28/08/24;00:10:46;1.015;-0.035;0.085;0.03176499158143997;-0.013439035043120384;0.006108652334660292
01:00:0A:00:00:00:00;1724803847;28/08/24;00:10:47;1.014;-0.036;0.084;0.03298672288656235;-0.012217304669320583;0.004886921960860491
01:00:0A:00:00:00:00;1724803848;28/08/24;00:10:48;1.015;-0.034;0.086;0.03298672288656235;-0.010995574295520782;0.004886921960860491
01:00:0A:00:00:00:00;1724803849;28/08/24;00:10:49;1.014;-0.034;0.085;0.03176499158143997;-0.012217304669320583;0.006108652334660292
01:00:0A:00:00:00:00;1724803850;28/08/24;00:10:50;1.016;-0.035;0.084;0.03298672288656235;-0.010995574295520782;0.004886921960860491
01:00:0A:00:00:00:00;1724803851;28/08/24;00:10:51;1.015;-0.034;0.084;0.03298672288656235;-0.010995574295520782;0.006108652334660292
01:00:0A:00:00:00:00;1724803852;28/08/24;00:10:52;1.015;-0.034;0.086;0.03176499158143997;-0.012217304669320583;0.0073303827084600925
01:00:0A:00:00:00:00;1724803853;28/08/24;00:10:53;1.014;-0.035;0.084;0.03298672288656235;-0.012217304669320583;0.004886921960860491
01:00:0A:00:00:00:00;1724803854;28/08/24;00:10:54;1.013;-0.035;0.086;0.03298672288656235;-0.012217304669320583;0.004886921960860491
01:00:0A:00:00:00:00;1724803855;28/08/24;00:10:55;1.014;-0.036;0.084;0.03176499158143997;-0.013439035043120384;0.006108652334660292
01:00:0A:00:00:00:00;1724803856;28/08/24;00:10:56;1.016;-0.036;0.084;0.03298672288656235;-0.010995574295520782;0.004886921960860491
01:00:0A:00:00:00:00;1724803857;28/08/24;00:10:57;1.016;-0.035;0.085;0.03298672288656235;-0.010995574295520782;0.004886921960860491
01:00:0A:00:00:00:00;1724803858;28/08/24;00:10:58;1.016;-0.035;0.084;0.03176499158143997;-0.012217304669320583;0.0073303827084600925
01:00:0A:00:00:00:00;1724803859;28/08/24;00:10:59;1.016;-0.035;0.085;0.03176499158143997;-0.010995574295520782;0.0073303827084600925
01:00:0A:00:00:00:00;1724803860;28/08/24;00:11:00;1.014;-0.034;0.085;0.03176499158143997;-0.010995574295520782;0.006108652334660292
01:00:0A:00:00:00:00;1724803861;28/08/24;00:11:01;1.015;-0.034;0.084;0.03176499158143997;-0.010995574295520782;0.006108652334660292
01:00:0A:00:00:00:00;1724803862;28/08/24;00:11:02;1.016;-0.036;0.084;0.03298672288656235;-0.010995574295520782;0.004886921960860491
01:00:0A:00:00:00:00;1724803863;28/08/24;00:11:03;1.015;-0.035;0.086;0.03176499158143997;-0.012217304669320583;0.006108652334660292
01:00:0A:00:00:00:00;1724803864;28/08/24;00:11:04;1.014;-0.035;0.084;0.030543262138962746;-0.013439035043120384;0.006108652334660292
01:00:0A:00:00:00:00;1724803865;28/08/24;00:11:05;1.013;-0.035;0.084;0.03176499158143997;-0.012217304669320583;0.004886921960860491
01:00:0A:00:00:00:00;1724803866;28/08/24;00:11:06;1.015;-0.034;0.084;0.03176499158143997;-0.012217304669320583;0.004886921960860491
01:00:0A:00:00:00:00;1724803867;28/08/24;00:11:07;1.015;-0.034;0.085;0.030543262138962746;-0.012217304669320583;0.004886921960860491
01:00:0A:00:00:00:00;1724803868;28/08/24;00:11:08;1.015;-0.036;0.086;0.03176499158143997;-0.010995574295520782;0.004886921960860491
01:00:0A:00:00:00:00;1724803869;28/08/24;00:11:09;1.016;-0.035;0.085;0.03176499158143997;-0.012217304669320583;0.004886921960860491
01:00:0A:00:00:00:00;1724803870;28/08/24;00:11:10;1.016;-0.035;0.086;0.030543262138962746;-0.012217304669320583;0.0073303827084600925
01:00:0A:00:00:00:00;1724803871;28/08/24;00:11:11;1.014;-0.035;0.086;0.030543262138962746;-0.010995574295520782;0.004886921960860491
01:00:0A:00:00:00:00;1724803872;28/08/24;00:11:12;1.014;-0.034;0.086;0.030543262138962746;-0.010995574295520782;0.004886921960860491
01:00:0A:00:00:00:00;1724803873;28/08/24;00:11:13;1.015;-0.036;0.085;0.030543262138962746;-0.010995574295520782;0.004886921960860491
01:00:0A:00:00:00:00;1724803874;28/08/24;00:11:14;1.015;-0.035;0.086;0.030543262138962746;-0.009773843921720982;0.0036651913542300463
01:00:0A:00:00:00:00;1724803875;28/08/24;00:11:15;1.016;-0.034;0.084;0.02932153083384037;-0.010995574295520782;0.006108652334660292
01:00:0A:00:00:00:00;1724803876;28/08/24;00:11:16;1.016;-0.035;0.084;0.02932153083384037;-0.010995574295520782;0.0073303827084600925
01:00:0A:00:00:00:00;1724803877;28/08/24;00:11:17;1.014;-0.035;0.085;0.02932153083384037;-0.010995574295520782;0.004886921960860491
01:00:0A:00:00:00:00;1724803878;28/08/24;00:11:18;1.013;-0.033;0.086;0.02932153083384037;-0.012217304669320583;0.004886921960860491
01:00:0A:00:00:00:00;1724803879;28/08/24;00:11:19;1.014;-0.035;0.084;0.02932153083384037;-0.010995574295520782;0.004886921960860491
01:00:0A:00:00:00:00;1724803880;28/08/24;00:11:20;1.015;-0.035;0.084;0.02932153083384037;-0.010995574295520782;0.0036651913542300463
01:00:0A:00:00:00:00;1724803881;28/08/24;00:11:21;1.015;-0.034;0.084;0.028099799528717995;-0.012217304669320583;0.004886921960860491
01:00:0A:00:00:00:00;1724803882;28/08/24;00:11:22;1.015;-0.036;0.085;0.028099799528717995;-0.012217304669320583;0.006108652334660292
01:00:0A:00:00:00:00;1724803883;28/08/24;00:11:23;1.014;-0.036;0.086;0.028099799528717995;-0.013439035043120384;0.004886921960860491
01:00:0A:00:00:00:00;1724803884;28/08/24;00:11:24;1.013;-0.034;0.085;0.028099799528717995;-0.012217304669320583;0.004886921960860491
01:00:0A:00:00:00:00;1724803885;28/08/24;00:11:25;1.015;-0.035;0.085;0.028099799528717995;-0.009773843921720982;0.004886921960860491
01:00:0A:00:00:00:00;1724803886;28/08/24;00:11:26;1.015;-0.035;0.085;0.028099799528717995;-0.010995574295520782;0.0036651913542300463
01:00:0A:00:00:00:00;1724803887;28/08/24;00:11:27;1.016;-0.035;0.083;0.02687807008624077;-0.010995574295520782;0.006108652334660292
01:00:0A:00:00:00:00;1724803888;28/08/24;00:11:28;1.015;-0.036;0.086;0.02687807008624077;-0.012217304669320583;0.0073303827084600925
01:00:0A:00:00:00:00;1724803889;28/08/24;00:11:29;1.015;-0.035;0.086;0.02687807008624077;-0.012217304669320583;0.004886921960860491
01:00:0A:00:00:00:00;1724803890;28/08/24;00:11:30;1.015;-0.034;0.085;0.02687807008624077;-0.012217304669320583;0.006108652334660292
01:00:0A:00:00:00:00;1724803891;28/08/24;00:11:31;1.014;-0.036;0.086;0.02687807008624077;-0.009773843921720982;0.004886921960860491
01:00:0A:00:00:00:00;1724803892;28/08/24;00:11:32;1.015;-0.035;0.086;0.02687807008624077;-0.010995574295520782;0.0036651913542300463
01:00:0A:00:00:00:00;1724803893;28/08/24;00:11:33;1.014;-0.034;0.084;0.025656338781118393;-0.012217304669320583;0.004886921960860491
01:00:0A:00:00:00:00;1724803894;28/08/24;00:11:34;1.015;-0.035;0.085;0.025656338781118393;-0.012217304669320583;0.006108652334660292
01:00:0A:00:00:00:00;1724803895;28/08/24;00:11:35;1.014;-0.034;0.084;0.025656338781118393;-0.013439035043120384;0.004886921960860491
01:00:0A:00:00:00:00;1724803896;28/08/24;00:11:36;1.014;-0.034;0.086;0.025656338781118393;-0.012217304669320583;0.004886921960860491
01:00:0A:00:00:00:00;1724803897;28/08/24;00:11:37;1.015;-0.034;0.085;0.025656338781118393;-0.009773843921720982;0.004886921960860491
01:00:0A:00:00:00:00;1724803898;28/08/24;00:11:38;1.015;-0.035;0.085;0.024434609338641167;-0.012217304669320583;0.0024434609804302454
01:00:0A:00:00:00:00;1724803899;28/08/24;00:11:39;1.016;-0.035;0.085;0.024434609338641167;-0.010995574295520782;0.006108652334660292
01:00:0A:00:00:00:00;1724803900;28/08/24;00:11:40;1.016;-0.036;0.086;0.024434609338641167;-0.010995574295520782;0.006108652334660292
01:00:0A:00:00:00:00;1724803901;28/08/24;00:11:41;1.016;-0.035;0.085;0.024434609338641167;-0.012217304669320583;0.004886921960860491
01:00:0A:00:00:00:00;1724803902;28/08/24;00:11:42;1.015;-0.034;0.084;0.024434609338641167;-0.009773843921720982;0.004886921960860491
01:00:0A:00:00:00:00;1724803903;28/08/24;00:11:43;1.014;-0.034;0.086;0.024434609338641167;-0.009773843921720982;0.004886921960860491
01:00:0A:00:00:00:00;1724803904;28/08/24;00:11:44;1.015;-0.035;0.084;0.024434609338641167;-0.010995574295520782;0.0036651913542300463
01:00:0A:00:00:00:00;1724803905;28/08/24;00:11:45;1.015;-0.034;0.083;0.02321287989616394;-0.010995574295520782;0.004886921960860491
01:00:0A:00:00:00:00;1724803906;28/08/24;00:11:46;1.014;-0.036;0.085;0.02321287989616394;-0.010995574295520782;0.006108652334660292
01:00:0A:00:00:00:00;1724803907;28/08/24;00:11:47;1.015;-0.034;0.085;0.02321287989616394;-0.013439035043120384;0.0036651913542300463
01:00:0A:00:00:00:00;1724803908;28/08/24;00:11:48;1.015;-0.034;0.086;0.02321287989616394;-0.010995574295520782;0.004886921960860491
01:00:0A:00:00:00:00;1724803909;28/08/24;00:11:49;1.014;-0.035;0.085;0.02321287989616394;-0.009773843921720982;0.0036651913542300463
01:00:0A:00:00:00:00;1724803910;28/08/24;00:11:50;1.014;-0.035;0.084;0.02321287989616394;-0.012217304669320583;0.0024434609804302454
01:00:0A:00:00:00:00;1724803911;28/08/24;00:11:51;1.015;-0.034;0.086;0.02321287989616394;-0.010995574295520782;0.004886921960860491
01:00:0A:00:00:00:00;1724803912;28/08/24;00:11:52;1.015;-0.035;0.085;0.02321287989616394;-0.012217304669320583;0.004886921960860491
01:00:0A:00:00:00:00;1724803913;28/08/24;00:11:53;1.014;-0.034;0.086;0.02321287989616394;-0.013439035043120384;0.004886921960860491
01:00:0A:00:00:00:00;1724803914;28/08/24;00:11:54;1.014;-0.034;0.086;0.02321287989616394;-0.010995574295520782;0.004886921960860491
01:00:0A:00:00:00:00;1724803915;28/08/24;00:11:55;1.016;-0.034;0.085;0.02321287989616394;-0.010995574295520782;0.0036651913542300463
01:00:0A:00:00:00:00;1724803916;28/08/24;00:11:56;1.016;-0.034;0.085;0.021991148591041565;-0.012217304669320583;0.0036651913542300463
01:00:0A:00:00:00:00;1724803917;28/08/24;00:11:57;1.014;-0.035;0.085;0.02321287989616394;-0.010995574295520782;0.006108652334660292
01:00:0A:00:00:00:00;1724803918;28/08/24;00:11:58;1.016;-0.035;0.086;0.02321287989616394;-0.012217304669320583;0.006108652334660292
01:00:0A:00:00:00:00;1724803919;28/08/24;00:11:59;1.016;-0.035;0.085;0.021991148591041565;-0.013439035043120384;0.004886921960860491
01:00:0A:00:00:00:00;1724803920;28/08/24;00:12:00;1.015;-0.033;0.084;0.021991148591041565;-0.010995574295520782;0.004886921960860491
01:00:0A:00:00:00:00;1724803921;28/08/24;00:12:01;1.014;-0.034;0.086;0.02321287989616394;-0.010995574295520782;0.0036651913542300463
01:00:0A:00:00:00:00;1724803922;28/08/24;00:12:02;1.014;-0.035;0.085;0.021991148591041565;-0.012217304669320583;0.0036651913542300463
01:00:0A:00:00:00:00;1724803923;28/08/24;00:12:03;1.015;-0.036;0.084;0.021991148591041565;-0.010995574295520782;0.006108652334660292
01:00:0A:00:00:00:00;1724803924;28/08/24;00:12:04;1.015;-0.036;0.085;0.021991148591041565;-0.012217304669320583;0.004886921960860491
01:00:0A:00:00:00:00;1724803925;28/08/24;00:12:05;1.015;-0.034;0.085;0.021991148591041565;-0.013439035043120384;0.004886921960860491
01:00:0A:00:00:00:00;1724803926;28/08/24;00:12:06;1.015;-0.034;0.085;0.02321287989616394;-0.009773843921720982;0.004886921960860491
01:00:0A:00:00:00:00;1724803927;28/08/24;00:12:07;1.016;-0.035;0.085;0.021991148591041565;-0.010995574295520782;0.0036651913542300463
01:00:0A:00:00:00:00;1724803928;28/08/24;00:12:08;1.015;-0.035;0.084;0.021991148591041565;-0.010995574295520782;0.0036651913542300463
01:00:0A:00:00:00:00;1724803929;28/08/24;00:12:09;1.015;-0.034;0.084;0.021991148591041565;-0.010995574295520782;0.004886921960860491
01:00:0A:00:00:00:00;1724803930;28/08/24;00:12:10;1.015;-0.036;0.084;0.021991148591041565;-0.012217304669320583;0.004886921960860491
01:00:0A:00:00:00:00;1724803931;28/08/24;00:12:11;1.016;-0.034;0.084;0.021991148591041565;-0.012217304669320583;0.004886921960860491
01:00:0A:00:00:00:00;1724803932;28/08/24;00:12:12;1.015;-0.034;0.086;0.02321287989616394;-0.009773843921720982;0.004886921960860491
01:00:0A:00:00:00:00;1724803933;28/08/24;00:12:13;1.015;-0.034;0.084;0.021991148591041565;-0.010995574295520782;0.0036651913542300463
01:00:0A:00:00:00:00;1724803934;28/08/24;00:12:14;1.015;-0.035;0.083;0.021991148591041565;-0.012217304669320583;0.0036651913542300463
01:00:0A:00:00:00:00;1724803935;28/08/24;00:12:15;1.014;-0.036;0.085;0.021991148591041565;-0.009773843921720982;0.004886921960860491
01:00:0A:00:00:00:00;1724803936;28/08/24;00:12:16;1.015;-0.035;0.086;0.021991148591041565;-0.013439035043120384;0.004886921960860491
01:00:0A:00:00:00:00;1724803937;28/08/24;00:12:17;1.015;-0.034;0.086;0.021991148591041565;-0.012217304669320583;0.004886921960860491
01:00:0A:00:00:00:00;1724803938;28/08/24;00:12:18;1.015;-0.034;0.085;0.021991148591041565;-0.009773843921720982;0.004886921960860491
01:00:0A:00:00:00:00;1724803939;28/08/24;00:12:19;1.016;-0.035;0.085;0.021991148591041565;-0.012217304669320583;0.0036651913542300463
01:00:0A:00:00:00:00;1724803940;28/08/24;00:12:20;1.014;-0.034;0.085;0.021991148591041565;-0.010995574295520782;0.0036651913542300463
01:00:0A:00:00:00:00;1724803941;28/08/24;00:12:21;1.014;-0.035;0.085;0.021991148591041565;-0.010995574295520782;0.004886921960860491
01:00:0A:00:00:00:00;1724803942;28/08/24;00:12:22;1.015;-0.035;0.085;0.02076941914856434;-0.013439035043120384;0.004886921960860491
01:00:0A:00:00:00:00;1724803943;28/08/24;00:12:23;1.014;-0.034;0.085;0.02076941914856434;-0.012217304669320583;0.004886921960860491
01:00:0A:00:00:00:00;1724803944;28/08/24;00:12:24;1.016;-0.034;0.087;0.02076941914856434;-0.009773843921720982;0.004886921960860491
01:00:0A:00:00:00:00;1724803945;28/08/24;00:12:25;1.016;-0.034;0.085;0.02076941914856434;-0.012217304669320583;0.004886921960860491
01:00:0A:00:00:00:00;1724803946;28/08/24;00:12:26;1.014;-0.035;0.083;0.02076941914856434;-0.010995574295520782;0.004886921960860491
01:00:0A:00:00:00:00;1724803947;28/08/24;00:12:27;1.015;-0.035;0.086;0.02076941914856434;-0.009773843921720982;0.004886921960860491
01:00:0A:00:00:00:00;1724803948;28/08/24;00:12:28;1.015;-0.035;0.086;0.02076941914856434;-0.013439035043120384;0.004886921960860491
01:00:0A:00:00:00:00;1724803949;28/08/24;00:12:29;1.015;-0.035;0.084;0.02076941914856434;-0.012217304669320583;0.0036651913542300463
01:00:0A:00:00:00:00;1724803950;28/08/24;00:12:30;1.015;-0.034;0.086;0.02076941914856434;-0.009773843921720982;0.004886921960860491
01:00:0A:00:00:00:00;1724803951;28/08/24;00:12:31;1.015;-0.035;0.085;0.019547687843441963;-0.012217304669320583;0.0036651913542300463
01:00:0A:00:00:00:00;1724803952;28/08/24;00:12:32;1.014;-0.035;0.085;0.02076941914856434;-0.010995574295520782;0.0036651913542300463
01:00:0A:00:00:00:00;1724803953;28/08/24;00:12:33;1.014;-0.035;0.086;0.019547687843441963;-0.010995574295520782;0.004886921960860491
01:00:0A:00:00:00:00;1724803954;28/08/24;00:12:34;1.016;-0.035;0.086;0.019547687843441963;-0.013439035043120384;0.0036651913542300463
01:00:0A:00:00:00:00;1724803955;28/08/24;00:12:35;1.016;-0.035;0.085;0.019547687843441963;-0.010995574295520782;0.0036651913542300463
01:00:0A:00:00:00:00;1724803956;28/08/24;00:12:36;1.016;-0.034;0.086;0.019547687843441963;-0.009773843921720982;0.004886921960860491
01:00:0A:00:00:00:00;1724803957;28/08/24;00:12:37;1.015;-0.035;0.084;0.018325956538319588;-0.012217304669320583;0.004886921960860491
01:00:0A:00:00:00:00;1724803958;28/08/24;00:12:38;1.014;-0.034;0.084;0.019547687843441963;-0.010995574295520782;0.004886921960860491
01:00:0A:00:00:00:00;1724803959;28/08/24;00:12:39;1.014;-0.035;0.086;0.019547687843441963;-0.010995574295520782;0.0036651913542300463
01:00:0A:00:00:00:00;1724803960;28/08/24;00:12:40;1.016;-0.035;0.085;0.018325956538319588;-0.013439035043120384;0.0036651913542300463
01:00:0A:00:00:00:00;1724803961;28/08/24;00:12:41;1.015;-0.034;0.084;0.018325956538319588;-0.010995574295520782;0.0036651913542300463
01:00:0A:00:00:00:00;1724803962;28/08/24;00:12:42;1.015;-0.034;0.086;0.018325956538319588;-0.010995574295520782;0.004886921960860491
01:00:0A:00:00:00:00;1724803963;28/08/24;00:12:43;1.015;-0.034;0.084;0.01710422709584236;-0.012217304669320583;0.004886921960860491
01:00:0A:00:00:00:00;1724803964;28/08/24;00:12:44;1.015;-0.035;0.083;0.018325956538319588;-0.009773843921720982;0.004886921960860491
01:00:0A:00:00:00:00;1724803965;28/08/24;00:12:45;1.014;-0.034;0.086;0.018325956538319588;-0.010995574295520782;0.004886921960860491
01:00:0A:00:00:00:00;1724803966;28/08/24;00:12:46;1.014;-0.034;0.084;0.01710422709584236;-0.013439035043120384;0.0036651913542300463
01:00:0A:00:00:00:00;1724803967;28/08/24;00:12:47;1.016;-0.036;0.085;0.01710422709584236;-0.010995574295520782;0.004886921960860491
01:00:0A:00:00:00:00;1724803968;28/08/24;00:12:48;1.016;-0.036;0.086;0.018325956538319588;-0.009773843921720982;0.0012217304902151227
01:00:0A:00:00:00:00;1724803969;28/08/24;00:12:49;1.016;-0.033;0.082;0.018325956538319588;-0.0073303827084600925;0.006108652334660292
01:00:0A:00:00:00:00;1724803970;28/08/24;00:12:50;1.014;-0.038;0.079;0.019547687843441963;-0.009773843921720982;0.012217304669320583
01:00:0A:00:00:00:00;1724803971;28/08/24;00:12:51;1.011;-0.035;0.08;0.021991148591041565;-0.018325956538319588;0.013439035043120384
01:00:0A:00:00:00:00;1724803972;28/08/24;00:12:52;1.007;-0.031;0.081;0.02321287989616394;-0.025656338781118393;0.006108652334660292
01:00:0A:00:00:00:00;1724803973;28/08/24;00:12:53;1.009;-0.028;0.086;0.028099799528717995;-0.012217304669320583;-0.0024434609804302454
01:00:0A:00:00:00:00;1724803974;28/08/24;00:12:54;1.018;-0.032;0.093;0.028099799528717995;-0.012217304669320583;-0.019547687843441963
01:00:0A:00:00:00:00;1724803975;28/08/24;00:12:55;1.024;-0.04;0.087;0.02932153083384037;-0.0024434609804302454;-0.012217304669320583
01:00:0A:00:00:00:00;1724803976;28/08/24;00:12:56;1.02;-0.04;0.085;0.02687807008624077;0.014660765416920185;0.02076941914856434
01:00:0A:00:00:00:00;1724803977;28/08/24;00:12:57;1.014;-0.034;0.082;0.02076941914856434;-0.010995574295520782;0.024434609338641167
01:00:0A:00:00:00:00;1724803978;28/08/24;00:12:58;1.016;-0.027;0.075;0.025656338781118393;-0.00855211354792118;0.013439035043120384
01:00:0A:00:00:00:00;1724803979;28/08/24;00:12:59;1.013;-0.025;0.085;0.02932153083384037;-0.00855211354792118;-0.009773843921720982
01:00:0A:00:00:00:00;1724803980;28/08/24;00:13:00;1.006;-0.037;0.085;0.025656338781118393;-0.02076941914856434;-0.0073303827084600925
01:00:0A:00:00:00:00;1724803981;28/08/24;00:13:01;1.0;-0.043;0.081;0.030543262138962746;-0.012217304669320583;-0.004886921960860491
01:00:0A:00:00:00:00;1724803982;28/08/24;00:13:02;1.004;-0.044;0.087;0.025656338781118393;-0.02687807008624077;0.009773843921720982
01:00:0A:00:00:00:00;1724803983;28/08/24;00:13:03;1.022;-0.04;0.091;0.021991148591041565;-0.02321287989616394;0.028099799528717995
01:00:0A:00:00:00:00;1724803984;28/08/24;00:13:04;1.028;-0.032;0.09;0.030543262138962746;-0.0036651913542300463;0.014660765416920185
01:00:0A:00:00:00:00;1724803985;28/08/24;00:13:05;1.027;-0.027;0.092;0.03420845419168472;0.012217304669320583;-0.015882495790719986
01:00:0A:00:00:00:00;1724803986;28/08/24;00:13:06;1.016;-0.041;0.085;0.024434609338641167;-0.00855211354792118;-0.012217304669320583
01:00:0A:00:00:00:00;1724803987;28/08/24;00:13:07;1.009;-0.05;0.088;0.021991148591041565;0.0;-0.012217304669320583
01:00:0A:00:00:00:00;1724803988;28/08/24;00:13:08;0.999;-0.042;0.097;-0.004886921960860491;-0.019547687843441963;0.01710422709584236
01:00:0A:00:00:00:00;1724803989;28/08/24;00:13:09;1.0;-0.034;0.03;0.0036651913542300463;-0.10384709388017654;0.05497787147760391
01:00:0A:00:00:00:00;1724803990;28/08/24;00:13:10;1.006;-0.061;0.084;0.09040805697441101;0.13805554807186127;0.0024434609804302454
01:00:0A:00:00:00:00;1724803991;28/08/24;00:13:11;1.015;-0.071;0.096;0.036651913076639175;-0.0757472887635231;0.07819075137376785
01:00:0A:00:00:00:00;1724803992;28/08/24;00:13:12;1.035;-0.01;0.086;0.036651913076639175;-0.05009094998240471;-0.2223549485206604
01:00:0A:00:00:00:00;1724803993;28/08/24;00:13:13;1.028;0.121;-0.055;-0.11850785464048386;-0.04764748737215996;0.1368338167667389
01:00:0A:00:00:00:00;1724803994;28/08/24;00:13:14;0.998;-0.172;0.274;-0.21502456068992615;0.3677408695220947;-0.11362093687057495
01:00:0A:00:00:00:00;1724803995;28/08/24;00:13:15;1.002;0.171;0.134;-0.62796950340271;-0.445931613445282;-0.36651912331581116
01:00:0A:00:00:00:00;1724803996;28/08/24;00:13:16;0.995;-0.135;-0.117;-0.7831292152404785;-0.06475171446800232;0.47769662737846375
01:00:0A:00:00:00:00;1724803997;28/08/24;00:13:17;0.963;-0.071;0.203;-0.5314527750015259;0.5045746564865112;-0.3787364363670349
01:00:0A:00:00:00:00;1724803998;28/08/24;00:13:18;0.976;-0.001;0.133;-0.9663888216018677;-0.4960225820541382;-0.05009094998240471
01:00:0A:00:00:00:00;1724803999;28/08/24;00:13:19;0.992;-0.064;-0.096;-0.8051203489303589;0.21991148591041565;0.11362093687057495
01:00:0A:00:00:00:00;1724804000;28/08/24;00:13:20;1.013;-0.111;0.192;-0.6743952035903931;0.14905111491680145;-0.1319468915462494
01:00:0A:00:00:00:00;1724804001;28/08/24;00:13:21;1.019;-0.248;0.203;-0.6976081132888794;-0.0024434609804302454;-0.12217304855585098
01:00:0A:00:00:00:00;1724804002;28/08/24;00:13:22;1.028;0.104;0.168;-0.6914994716644287;-0.02932153083384037;-0.4349360466003418
01:00:0A:00:00:00:00;1724804003;28/08/24;00:13:23;1.004;-0.004;0.195;-0.9859364628791809;-0.17348572611808777;0.06719517707824707
01:00:0A:00:00:00:00;1724804004;28/08/24;00:13:24;0.973;0.015;0.041;-0.9138543605804443;-0.14416420459747314;-0.08429940044879913
01:00:0A:00:00:00:00;1724804005;28/08/24;00:13:25;0.98;-0.052;0.101;-0.8820894360542297;0.0012217304902151227;0.12828169763088226
01:00:0A:00:00:00:00;1724804006;28/08/24;00:13:26;1.038;-0.066;0.044;-0.6866125464439392;-0.1661553531885147;-0.31642818450927734
01:00:0A:00:00:00:00;1724804007;28/08/24;00:13:27;1.048;0.112;0.162;-0.7147123217582703;0.07941248267889023;0.09529497474431992
01:00:0A:00:00:00:00;1724804008;28/08/24;00:13:28;1.033;-0.296;0.038;-0.6646214127540588;-0.10506881773471832;0.12828169763088226
01:00:0A:00:00:00:00;1724804009;28/08/24;00:13:29;1.006;0.248;0.131;-0.513126790523529;0.07452555745840073;-0.4202752709388733
01:00:0A:00:00:00:00;1724804010;28/08/24;00:13:30;0.984;-0.092;-0.004;-0.7489207983016968;-0.2480112910270691;0.4801400899887085
01:00:0A:00:00:00:00;1724804011;28/08/24;00:13:31;0.965;0.044;0.146;-0.43249258399009705;0.4483751058578491;-0.24923302233219147
01:00:0A:00:00:00:00;1724804012;28/08/24;00:13:32;0.976;0.052;0.137;-0.6963863372802734;-0.45204028487205505;-0.03298672288656235
01:00:0A:00:00:00:00;1724804013;28/08/24;00:13:33;1.023;0.007;-0.078;-0.5534439086914062;0.2981022298336029;0.09529497474431992
01:00:0A:00:00:00:00;1724804014;28/08/24;00:13:34;1.033;-0.078;0.244;-0.5180137157440186;0.09040805697441101;-0.13561207056045532
01:00:0A:00:00:00:00;1724804015;28/08/24;00:13:35;1.024;0.154;0.016;-0.5448917746543884;-0.12950342893600464;-0.24190263450145721
01:00:0A:00:00:00:00;1724804016;28/08/24;00:13:36;0.976;-0.198;0.072;-0.5314527750015259;0.08185594528913498;0.47769662737846375
01:00:0A:00:00:00:00;1724804017;28/08/24;00:13:37;0.953;0.038;0.109;-0.27000245451927185;0.14294245839118958;-0.5436700582504272
01:00:0A:00:00:00:00;1724804018;28/08/24;00:13:38;0.968;0.032;0.01;-0.5607742667198181;-0.4813618063926697;0.3384193480014801
01:00:0A:00:00:00:00;1724804019;28/08/24;00:13:39;0.997;-0.042;-0.194;-0.17104226350784302;0.2919935882091522;0.0073303827084600925
01:00:0A:00:00:00:00;1724804020;28/08/24;00:13:40;1.06;-0.055;0.148;-0.03787364438176155;0.1466076523065567;0.025656338781118393
01:00:0A:00:00:00:00;1724804021;28/08/24;00:13:41;1.046;0.082;0.193;-0.27122414112091064;-0.06230825558304787;-0.05864306166768074
01:00:0A:00:00:00:00;1724804022;28/08/24;00:13:42;0.988;-0.09;0.002;-0.33108896017074585;-0.0659734457731247;0.11362093687057495
01:00:0A:00:00:00:00;1724804023;28/08/24;00:13:43;0.923;0.066;0.19;-0.35552355647087097;0.1918116807937622;-0.06352998316287994
01:00:0A:00:00:00:00;1724804024;28/08/24;00:13:44;0.954;-0.078;-0.025;-0.49235740303993225;-0.9382889866828918;-0.02932153083384037
01:00:0A:00:00:00:00;1724804025;28/08/24;00:13:45;0.968;0.045;0.011;0.07941248267889023;1.026253581047058;0.04886921867728233
01:00:0A:00:00:00:00;1724804026;28/08/24;00:13:46;0.908;-0.037;0.426;-0.2919935882091522;-0.3836233615875244;-0.20525071024894714
01:00:0A:00:00:00:00;1724804027;28/08/24;00:13:47;1.027;0.13;-0.014;-0.5766568183898926;-0.5803219676017761;-0.14416420459747314
01:00:0A:00:00:00:00;1724804028;28/08/24;00:13:48;1.046;0.069;-0.136;-0.5729915499687195;-0.12828169763088226;0.2028072476387024
01:00:0A:00:00:00:00;1724804029;28/08/24;00:13:49;0.964;-0.359;-0.259;-0.1722639948129654;0.2223549485206604;0.46181410551071167
01:00:0A:00:00:00:00;1724804030;28/08/24;00:13:50;0.967;0.041;0.123;-0.3127630054950714;-0.23579397797584534;-0.15271630883216858
01:00:0A:00:00:00:00;1724804031;28/08/24;00:13:51;0.975;-0.108;0.174;-0.43249258399009705;0.21868975460529327;0.04642575979232788
01:00:0A:00:00:00:00;1724804032;28/08/24;00:13:52;1.002;-0.021;0.197;-0.5998696088790894;-0.6963863372802734;-0.3591887652873993
01:00:0A:00:00:00:00;1724804033;28/08/24;00:13:53;1.009;0.265;-0.071;-0.6633996367454529;0.2773328125476837;0.22479839622974396
01:00:0A:00:00:00:00;1724804034;28/08/24;00:13:54;1.011;-0.218;0.203;-0.7318165302276611;-0.3995058536529541;0.07330382615327835
01:00:0A:00:00:00:00;1724804035;28/08/24;00:13:55;1.021;0.089;-0.014;-0.5314527750015259;-0.05864306166768074;-0.2480112910270691
01:00:0A:00:00:00:00;1724804036;28/08/24;00:13:56;1.001;-0.091;0.064;-0.5546656250953674;0.10995574295520782;0.40683624148368835
01:00:0A:00:00:00:00;1724804037;28/08/24;00:13:57;0.977;-0.091;0.039;-0.3885102868080139;0.03787364438176155;-0.14905111491680145
01:00:0A:00:00:00:00;1724804038;28/08/24;00:13:58;1.009;0.019;0.111;-0.3689626157283783;0.3042108714580536;-0.06475171446800232
01:00:0A:00:00:00:00;1724804039;28/08/24;00:13:59;1.038;0.021;-0.052;-0.5534439086914062;-0.5497786998748779;-0.2382374405860901
01:00:0A:00:00:00:00;1724804040;28/08/24;00:14:00;1.026;0.019;-0.178;-0.36163222789764404;0.18081611394882202;0.2541199326515198
01:00:0A:00:00:00:00;1724804041;28/08/24;00:14:01;0.959;-0.177;0.348;-0.38117989897727966;0.2785545289516449;0.07330382615327835
01:00:0A:00:00:00:00;1724804042;28/08/24;00:14:02;1.001;-0.112;-0.024;-0.4190535545349121;-0.47769662737846375;-0.2577851116657257
01:00:0A:00:00:00:00;1724804043;28/08/24;00:14:03;0.976;0.081;0.008;-0.26633724570274353;0.20525071024894714;0.04642575979232788
01:00:0A:00:00:00:00;1724804044;28/08/24;00:14:04;0.973;-0.081;0.079;-0.29688048362731934;-0.08918632566928864;0.08185594528913498
01:00:0A:00:00:00:00;1724804045;28/08/24;00:14:05;0.992;-0.054;-0.06;-0.08552113175392151;-0.009773843921720982;-0.03787364438176155
01:00:0A:00:00:00:00;1724804046;28/08/24;00:14:06;1.022;-0.111;0.114;0.08918632566928864;0.3933972120285034;-0.0354301817715168
01:00:0A:00:00:00:00;1724804047;28/08/24;00:14:07;0.965;-0.003;0.401;-0.19547687470912933;-0.059864792972803116;-0.19792033731937408
01:00:0A:00:00:00:00;1724804048;28/08/24;00:14:08;1.028;0.056;0.081;-0.5082398653030396;-0.3066543638706207;-0.02687807008624077
01:00:0A:00:00:00:00;1724804049;28/08/24;00:14:09;1.005;-0.008;-0.013;-0.44348815083503723;0.018325956538319588;0.09773843735456467
01:00:0A:00:00:00:00;1724804050;28/08/24;00:14:10;0.966;-0.052;0.148;-0.4043927788734436;0.1111774742603302;-0.14416420459747314
01:00:0A:00:00:00:00;1724804051;28/08/24;00:14:11;0.982;0.071;0.051;-0.5106833577156067;-0.21135938167572021;-0.24923302233219147
01:00:0A:00:00:00:00;1724804052;28/08/24;00:14:12;0.997;0.148;0.02;-0.8124507665634155;-0.3848450779914856;0.3029891550540924
01:00:0A:00:00:00:00;1724804053;28/08/24;00:14:13;0.994;0.053;-0.318;-0.6633996367454529;-0.10384709388017654;0.41661006212234497
01:00:0A:00:00:00:00;1724804054;28/08/24;00:14:14;1.015;-0.308;-0.048;-0.04642575979232788;0.48869219422340393;-0.04398229718208313
01:00:0A:00:00:00:00;1724804055;28/08/24;00:14:15;0.995;0.151;0.309;-0.1514945775270462;-0.0024434609804302454;-0.37262779474258423
01:00:0A:00:00:00:00;1724804056;28/08/24;00:14:16;0.998;-0.062;-0.145;-0.43860122561454773;-0.4996877610683441;0.4031710624694824
01:00:0A:00:00:00:00;1724804057;28/08/24;00:14:17;0.953;-0.189;0.244;-0.0757472887635231;0.5974262356758118;-0.04642575979232788
01:00:0A:00:00:00:00;1724804058;28/08/24;00:14:18;0.977;-0.07;0.071;-0.16249015927314758;-0.6035348773002625;-0.19547687470912933
01:00:0A:00:00:00:00;1724804059;28/08/24;00:14:19;0.984;0.005;-0.026;0.1062905490398407;0.44715335965156555;0.009773843921720982
01:00:0A:00:00:00:00;1724804060;28/08/24;00:14:20;0.991;-0.002;0.274;-0.05253440886735916;-0.12095131725072861;-0.10995574295520782
01:00:0A:00:00:00:00;1724804061;28/08/24;00:14:21;1.039;0.008;0.035;-0.2528982162475586;-0.2626720666885376;-0.09529497474431992
01:00:0A:00:00:00:00;1724804062;28/08/24;00:14:22;1.022;-0.114;-0.022;-0.15271630883216858;0.1014036238193512;0.08918632566928864
01:00:0A:00:00:00:00;1724804063;28/08/24;00:14:23;0.999;-0.06;0.162;-0.13561207056045532;0.04398229718208313;0.01710422709584236
01:00:0A:00:00:00:00;1724804064;28/08/24;00:14:24;0.984;0.024;0.003;-0.22113320231437683;-0.3543018400669098;-0.040317103266716
01:00:0A:00:00:00:00;1724804065;28/08/24;00:14:25;0.996;-0.018;-0.04;-0.09162978082895279;0.28099802136421204;0.27122414112091064
01:00:0A:00:00:00:00;1724804066;28/08/24;00:14:26;0.928;-0.112;0.175;-0.7831292152404785;0.5094615817070007;-0.3237585723400116
01:00:0A:00:00:00:00;1724804067;28/08/24;00:14:27;1.044;0.124;0.058;-1.1765265464782715;-0.09040805697441101;-0.15027284622192383
01:00:0A:00:00:00:00;1724804068;28/08/24;00:14:28;1.054;-0.032;0.064;-1.2107348442077637;0.05253440886735916;0.15515977144241333
01:00:0A:00:00:00:00;1724804069;28/08/24;00:14:29;0.992;-0.173;-0.111;-1.1166616678237915;0.1319468915462494;0.44715335965156555
01:00:0A:00:00:00:00;1724804070;28/08/24;00:14:30;0.713;0.31;0.753;-1.3377948999404907;0.11362093687057495;-1.6872097253799438
01:00:0A:00:00:00:00;1724804071;28/08/24;00:14:31;0.869;0.452;0.317;-2.2626447677612305;-1.803274154663086;-0.7745770812034607
01:00:0A:00:00:00:00;1724804072;28/08/24;00:14:32;1.015;-0.087;-0.019;-2.1820104122161865;0.024434609338641167;0.8381071090698242
01:00:0A:00:00:00:00;1724804073;28/08/24;00:14:33;1.058;0.155;0.069;-2.1258111000061035;-0.23090705275535583;0.05497787147760391
01:00:0A:00:00:00:00;1724804074;28/08/24;00:14:34;0.935;-0.203;-0.345;-0.22968533635139465;1.451415777206421;0.040317103266716
01:00:0A:00:00:00:00;1724804075;28/08/24;00:14:35;1.029;-0.099;-0.156;-4.184426784515381;-1.0531316995620728;0.019547687843441963
01:00:0A:00:00:00:00;1724804076;28/08/24;00:14:36;0.977;-0.325;-0.131;-3.4440581798553467;-0.13316862285137177;0.09896016865968704
01:00:0A:00:00:00:00;1724804077;28/08/24;00:14:37;0.993;-0.227;0.036;-2.5815162658691406;0.16859880089759827;0.4801400899887085
01:00:0A:00:00:00:00;1724804078;28/08/24;00:14:38;0.993;0.101;0.038;-2.046398639678955;0.513126790523529;0.0012217304902151227
01:00:0A:00:00:00:00;1724804079;28/08/24;00:14:39;0.986;-0.245;-0.006;-1.6713272333145142;-0.08918632566928864;-0.1563815027475357
01:00:0A:00:00:00:00;1724804080;28/08/24;00:14:40;1.049;0.01;0.132;-1.4550809860229492;0.05009094998240471;-0.1918116807937622
01:00:0A:00:00:00:00;1724804081;28/08/24;00:14:41;1.057;-0.074;0.214;-1.5247195959091187;-0.14782939851284027;-0.14538592100143433
01:00:0A:00:00:00:00;1724804082;28/08/24;00:14:42;1.014;0.234;0.121;-1.5393803119659424;-0.5094615817070007;-0.5302309989929199
01:00:0A:00:00:00:00;1724804083;28/08/24;00:14:43;0.959;0.252;-0.24;-1.6615535020828247;-0.8246681094169617;0.1966986060142517
01:00:0A:00:00:00:00;1724804084;28/08/24;00:14:44;0.84;-0.137;-0.385;-2.2345449924468994;0.09285151958465576;0.8503243923187256
01:00:0A:00:00:00:00;1724804085;28/08/24;00:14:45;0.918;-0.092;-0.209;-1.4465289115905762;0.8869763016700745;1.1252137422561646
01:00:0A:00:00:00:00;1724804086;28/08/24;00:14:46;0.918;-0.26;-0.088;-0.8271114826202393;0.2528982162475586;-0.4190535545349121
01:00:0A:00:00:00:00;1724804087;28/08/24;00:14:47;0.981;0.136;0.142;-0.6389650106430054;0.4153883755207062;-0.4996877610683441
01:00:0A:00:00:00:00;1724804088;28/08/24;00:14:48;0.999;0.15;0.246;-0.9382889866828918;-0.5607742667198181;0.02687807008624077
01:00:0A:00:00:00:00;1724804089;28/08/24;00:14:49;0.983;0.044;-0.164;-0.8943067193031311;-0.23579397797584534;0.18325956165790558
01:00:0A:00:00:00:00;1724804090;28/08/24;00:14:50;0.959;-0.226;0.176;-0.7538076639175415;0.3933972120285034;0.41661006212234497
01:00:0A:00:00:00:00;1724804091;28/08/24;00:14:51;0.986;-0.081;0.088;-0.5522221922874451;-0.10995574295520782;-0.626747727394104
01:00:0A:00:00:00:00;1724804092;28/08/24;00:14:52;0.957;0.206;0.123;-0.6511822938919067;-0.080634206533432;0.14416420459747314
01:00:0A:00:00:00:00;1724804093;28/08/24;00:14:53;1.019;-0.018;0.0;-0.6682865619659424;-0.3176499307155609;0.14538592100143433
01:00:0A:00:00:00:00;1724804094;28/08/24;00:14:54;1.031;-0.024;-0.056;-0.47280970215797424;0.2272418737411499;-0.05619959905743599
01:00:0A:00:00:00:00;1724804095;28/08/24;00:14:55;1.001;-0.097;0.238;-0.4899139106273651;-0.0036651913542300463;-0.013439035043120384
01:00:0A:00:00:00:00;1724804096;28/08/24;00:14:56;1.02;0.02;-0.041;-0.4752531349658966;-0.38606682419776917;-0.15393804013729095
01:00:0A:00:00:00:00;1724804097;28/08/24;00:14:57;0.997;0.078;0.037;-0.45326200127601624;0.0757472887635231;0.2015855312347412
01:00:0A:00:00:00:00;1724804098;28/08/24;00:14:58;0.972;-0.084;0.09;-0.42638394236564636;-0.1466076523065567;-0.11239919811487198
01:00:0A:00:00:00:00;1724804099;28/08/24;00:14:59;0.989;0.048;0.041;-0.3543018400669098;0.08796459436416626;-0.11728612333536148
01:00:0A:00:00:00:00;1724804100;28/08/24;00:15:00;1.042;0.062;0.1;-0.4080579876899719;-0.2932153046131134;0.14294245839118958
01:00:0A:00:00:00:00;1724804101;28/08/24;00:15:01;1.068;-0.062;-0.117;-0.1820378452539444;0.17592918872833252;-0.26511549949645996
01:00:0A:00:00:00:00;1724804102;28/08/24;00:15:02;1.031;0.065;0.371;-0.17104226350784302;0.024434609338641167;-0.08185594528913498
01:00:0A:00:00:00:00;1724804103;28/08/24;00:15:03;1.024;-0.01;-0.198;-0.22846359014511108;-0.39095374941825867;-0.08918632566928864
01:00:0A:00:00:00:00;1724804104;28/08/24;00:15:04;0.975;0.031;0.298;-0.22968533635139465;0.5558874011039734;0.09651670604944229
01:00:0A:00:00:00:00;1724804105;28/08/24;00:15:05;0.976;0.065;0.009;-0.3995058536529541;-0.6670648455619812;-0.11728612333536148
01:00:0A:00:00:00:00;1724804106;28/08/24;00:15:06;0.967;0.027;0.213;-0.4862487316131592;0.4312708377838135;0.42760565876960754
01:00:0A:00:00:00:00;1724804107;28/08/24;00:15:07;0.951;-0.212;0.176;-0.49724429845809937;-0.3494149148464203;-0.05253440886735916
01:00:0A:00:00:00:00;1724804108;28/08/24;00:15:08;0.99;0.008;0.048;-0.2724458873271942;0.27122414112091064;-0.2174680233001709
01:00:0A:00:00:00:00;1724804109;28/08/24;00:15:09;0.991;0.003;0.109;-0.34697145223617554;-0.10384709388017654;0.2541199326515198
01:00:0A:00:00:00:00;1724804110;28/08/24;00:15:10;0.999;-0.041;-0.03;-0.21380282938480377;0.0036651913542300463;-0.16982054710388184
01:00:0A:00:00:00:00;1724804111;28/08/24;00:15:11;1.024;0.03;0.079;-0.1563815027475357;0.021991148591041565;-0.0012217304902151227
01:00:0A:00:00:00:00;1724804112;28/08/24;00:15:12;1.031;-0.109;0.053;-0.08429940044879913;-0.14294245839118958;-0.1160643920302391
01:00:0A:00:00:00:00;1724804113;28/08/24;00:15:13;1.02;0.064;0.058;-0.01710422709584236;0.1466076523065567;-0.14049901068210602
01:00:0A:00:00:00:00;1724804114;28/08/24;00:15:14;1.01;-0.043;0.15;-0.10873401165008545;-0.0073303827084600925;0.2724458873271942
01:00:0A:00:00:00:00;1724804115;28/08/24;00:15:15;1.032;-0.09;0.0;-0.03420845419168472;-0.02321287989616394;-0.06108652427792549
01:00:0A:00:00:00:00;1724804116;28/08/24;00:15:16;1.041;0.095;0.05;-0.015882495790719986;0.09407324343919754;-0.06475171446800232
01:00:0A:00:00:00:00;1724804117;28/08/24;00:15:17;1.026;-0.112;0.083;-0.06719517707824707;0.00855211354792118;0.2028072476387024
01:00:0A:00:00:00:00;1724804118;28/08/24;00:15:18;0.949;0.033;0.012;-0.02687807008624077;-0.13072516024112701;-0.23335053026676178
01:00:0A:00:00:00:00;1724804119;28/08/24;00:15:19;0.926;-0.021;0.081;-0.10506881773471832;0.1820378452539444;0.4080579876899719
