Source;Epoch timestamp (UTC);Date;Time (UTC);Accel X (G);Accel Y (G);Accel Z (G);Gyro X (rad/s);Gyro Y (rad/s);Gyro Z (rad/s)
01:00:0A:00:00:00:00;1725926414;10/09/24;00:00:14;1.014;0.01;0.107;-0.04886921867728233;0.004886921960860491;0.009773843921720982
01:00:0A:00:00:00:00;1725926415;10/09/24;00:00:15;1.012;0.005;0.119;-0.036651913076639175;-0.018325956538319588;-0.0024434609804302454
01:00:0A:00:00:00:00;1725926416;10/09/24;00:00:16;1.014;0.013;0.101;-0.03176499158143997;-0.01710422709584236;-0.0073303827084600925
01:00:0A:00:00:00:00;1725926417;10/09/24;00:00:17;1.012;0.006;0.108;-0.03787364438176155;0.0036651913542300463;0.0073303827084600925
01:00:0A:00:00:00:00;1725926418;10/09/24;00:00:18;1.012;0.005;0.111;-0.025656338781118393;-0.018325956538319588;-0.004886921960860491
01:00:0A:00:00:00:00;1725926419;10/09/24;00:00:19;1.013;0.011;0.104;-0.024434609338641167;-0.02321287989616394;0.0012217304902151227
01:00:0A:00:00:00:00;1725926420;10/09/24;00:00:20;1.014;0.009;0.107;-0.02932153083384037;0.0;0.004886921960860491
01:00:0A:00:00:00:00;1725926421;10/09/24;00:00:21;1.012;0.004;0.112;-0.02076941914856434;-0.013439035043120384;-0.0024434609804302454
01:00:0A:00:00:00:00;1725926422;10/09/24;00:00:22;1.013;0.007;0.103;-0.015882495790719986;-0.019547687843441963;-0.006108652334660292
01:00:0A:00:00:00:00;1725926423;10/09/24;00:00:23;1.012;0.012;0.106;-0.024434609338641167;-0.006108652334660292;0.009773843921720982
01:00:0A:00:00:00:00;1725926424;10/09/24;00:00:24;1.013;0.005;0.111;-0.019547687843441963;-0.014660765416920185;0.0012217304902151227
01:00:0A:00:00:00:00;1725926425;10/09/24;00:00:25;1.015;-0.012;0.104;0.294437050819397;-0.0073303827084600925;0.02687807008624077
01:00:0A:00:00:00:00;1725926426;10/09/24;00:00:26;1.012;0.016;0.104;0.28099802136421204;0.0;-0.015882495790719986
01:00:0A:00:00:00:00;1725926427;10/09/24;00:00:27;1.011;0.017;0.106;0.23090705275535583;0.006108652334660292;0.05253440886735916
01:00:0A:00:00:00:00;1725926428;10/09/24;00:00:28;1.011;-0.008;0.114;0.23335053026676178;-0.010995574295520782;0.02687807008624077
01:00:0A:00:00:00:00;1725926429;10/09/24;00:00:29;1.012;0.016;0.103;0.2370157092809677;-0.021991148591041565;-0.004886921960860491
01:00:0A:00:00:00:00;1725926430;10/09/24;00:00:30;1.015;0.014;0.103;0.2015855312347412;0.015882495790719986;0.039095375686883926
01:00:0A:00:00:00:00;1725926431;10/09/24;00:00:31;1.013;0.0;0.121;0.20647244155406952;-0.0073303827084600925;0.019547687843441963
01:00:0A:00:00:00:00;1725926432;10/09/24;00:00:32;1.015;0.011;0.099;0.20647244155406952;-0.02932153083384037;0.012217304669320583
01:00:0A:00:00:00:00;1725926433;10/09/24;00:00:33;1.014;0.01;0.101;0.1869247555732727;0.018325956538319588;0.02321287989616394
01:00:0A:00:00:00:00;1725926434;10/09/24;00:00:34;1.013;0.006;0.121;0.1869247555732727;-0.0073303827084600925;0.018325956538319588
01:00:0A:00:00:00:00;1725926435;10/09/24;00:00:35;1.014;0.007;0.099;0.1869247555732727;-0.02932153083384037;0.014660765416920185
01:00:0A:00:00:00:00;1725926436;10/09/24;00:00:36;1.013;0.01;0.104;0.17348572611808777;0.013439035043120384;0.014660765416920185
01:00:0A:00:00:00:00;1725926437;10/09/24;00:00:37;1.011;0.009;0.12;0.16982054710388184;-0.009773843921720982;0.021991148591041565
01:00:0A:00:00:00:00;1725926438;10/09/24;00:00:38;1.014;0.005;0.101;0.16982054710388184;-0.024434609338641167;0.018325956538319588
01:00:0A:00:00:00:00;1725926439;10/09/24;00:00:39;1.013;0.008;0.106;0.16371189057826996;0.009773843921720982;0.009773843921720982
01:00:0A:00:00:00:00;1725926440;10/09/24;00:00:40;1.013;0.011;0.115;0.15882496535778046;-0.009773843921720982;0.018325956538319588
01:00:0A:00:00:00:00;1725926441;10/09/24;00:00:41;1.014;0.004;0.104;0.15515977144241333;-0.019547687843441963;0.02321287989616394
01:00:0A:00:00:00:00;1725926442;10/09/24;00:00:42;1.014;0.005;0.108;0.15515977144241333;0.006108652334660292;0.0073303827084600925
01:00:0A:00:00:00:00;1725926443;10/09/24;00:00:43;1.012;0.014;0.113;0.15027284622192383;-0.010995574295520782;0.01710422709584236
01:00:0A:00:00:00:00;1725926444;10/09/24;00:00:44;1.013;0.003;0.104;0.14538592100143433;-0.013439035043120384;0.024434609338641167
01:00:0A:00:00:00:00;1725926445;10/09/24;00:00:45;1.013;0.006;0.107;0.14905111491680145;-0.0012217304902151227;0.0024434609804302454
01:00:0A:00:00:00:00;1725926446;10/09/24;00:00:46;1.012;0.014;0.11;0.14049901068210602;-0.0073303827084600925;0.019547687843441963
01:00:0A:00:00:00:00;1725926447;10/09/24;00:00:47;1.012;0.003;0.107;0.13927726447582245;-0.010995574295520782;0.02076941914856434
01:00:0A:00:00:00:00;1725926448;10/09/24;00:00:48;1.013;0.006;0.106;0.14294245839118958;-0.00855211354792118;0.004886921960860491
01:00:0A:00:00:00:00;1725926449;10/09/24;00:00:49;1.015;0.012;0.108;0.13561207056045532;-0.0073303827084600925;0.015882495790719986
01:00:0A:00:00:00:00;1725926450;10/09/24;00:00:50;1.013;0.003;0.108;0.1319468915462494;-0.009773843921720982;0.021991148591041565
01:00:0A:00:00:00:00;1725926451;10/09/24;00:00:51;1.012;0.006;0.108;0.13805554807186127;-0.0073303827084600925;0.0012217304902151227
01:00:0A:00:00:00:00;1725926452;10/09/24;00:00:52;1.012;0.012;0.109;0.12828169763088226;-0.006108652334660292;0.018325956538319588
01:00:0A:00:00:00:00;1725926453;10/09/24;00:00:53;1.013;0.002;0.109;0.1270599663257599;-0.010995574295520782;0.018325956538319588
01:00:0A:00:00:00:00;1725926454;10/09/24;00:00:54;1.013;0.007;0.107;0.13072516024112701;-0.00855211354792118;0.004886921960860491
01:00:0A:00:00:00:00;1725926455;10/09/24;00:00:55;1.012;0.01;0.108;0.12461651116609573;-0.0073303827084600925;0.015882495790719986
01:00:0A:00:00:00:00;1725926456;10/09/24;00:00:56;1.011;0.004;0.109;0.12217304855585098;-0.006108652334660292;0.015882495790719986
01:00:0A:00:00:00:00;1725926457;10/09/24;00:00:57;1.012;0.008;0.108;0.12461651116609573;-0.012217304669320583;0.00855211354792118
01:00:0A:00:00:00:00;1725926458;10/09/24;00:00:58;1.013;0.009;0.106;0.11728612333536148;-0.0073303827084600925;0.015882495790719986
01:00:0A:00:00:00:00;1725926459;10/09/24;00:00:59;1.013;0.005;0.11;0.1160643920302391;-0.006108652334660292;0.013439035043120384
01:00:0A:00:00:00:00;1725926460;10/09/24;00:01:00;1.013;0.009;0.108;0.11728612333536148;-0.013439035043120384;0.0073303827084600925
01:00:0A:00:00:00:00;1725926461;10/09/24;00:01:01;1.012;0.01;0.107;0.10995574295520782;-0.004886921960860491;0.014660765416920185
01:00:0A:00:00:00:00;1725926462;10/09/24;00:01:02;1.014;0.006;0.108;0.10873401165008545;-0.00855211354792118;0.015882495790719986
01:00:0A:00:00:00:00;1725926463;10/09/24;00:01:03;1.013;0.007;0.108;0.1111774742603302;-0.010995574295520782;0.00855211354792118
01:00:0A:00:00:00:00;1725926464;10/09/24;00:01:04;1.013;0.008;0.106;0.10751228034496307;-0.0073303827084600925;0.012217304669320583
01:00:0A:00:00:00:00;1725926465;10/09/24;00:01:05;1.011;0.008;0.11;0.1062905490398407;-0.0073303827084600925;0.010995574295520782
01:00:0A:00:00:00:00;1725926466;10/09/24;00:01:06;1.012;0.008;0.107;0.10506881773471832;-0.013439035043120384;0.009773843921720982
01:00:0A:00:00:00:00;1725926467;10/09/24;00:01:07;1.013;0.009;0.106;0.1014036238193512;-0.004886921960860491;0.012217304669320583
01:00:0A:00:00:00:00;1725926468;10/09/24;00:01:08;1.012;0.007;0.11;0.1014036238193512;-0.00855211354792118;0.010995574295520782
01:00:0A:00:00:00:00;1725926469;10/09/24;00:01:09;1.012;0.008;0.108;0.10018189996480942;-0.012217304669320583;0.009773843921720982
01:00:0A:00:00:00:00;1725926470;10/09/24;00:01:10;1.012;0.01;0.108;0.09651670604944229;-0.00855211354792118;0.010995574295520782
01:00:0A:00:00:00:00;1725926471;10/09/24;00:01:11;1.013;0.007;0.109;0.09529497474431992;-0.0073303827084600925;0.010995574295520782
01:00:0A:00:00:00:00;1725926472;10/09/24;00:01:12;1.013;0.007;0.108;0.09407324343919754;-0.012217304669320583;0.010995574295520782
01:00:0A:00:00:00:00;1725926473;10/09/24;00:01:13;1.013;0.006;0.107;0.09285151958465576;-0.0073303827084600925;0.00855211354792118
01:00:0A:00:00:00:00;1725926474;10/09/24;00:01:14;1.013;0.009;0.11;0.09040805697441101;-0.00855211354792118;0.009773843921720982
01:00:0A:00:00:00:00;1725926475;10/09/24;00:01:15;1.013;0.007;0.108;0.08918632566928864;-0.012217304669320583;0.009773843921720982
01:00:0A:00:00:00:00;1725926476;10/09/24;00:01:16;1.013;0.008;0.108;0.08674286305904388;-0.006108652334660292;0.00855211354792118
01:00:0A:00:00:00:00;1725926477;10/09/24;00:01:17;1.012;0.007;0.11;0.08552113175392151;-0.009773843921720982;0.009773843921720982
01:00:0A:00:00:00:00;1725926478;10/09/24;00:01:18;1.012;0.007;0.108;0.08429940044879913;-0.010995574295520782;0.00855211354792118
01:00:0A:00:00:00:00;1725926479;10/09/24;00:01:19;1.013;0.008;0.106;0.08185594528913498;-0.00855211354792118;0.009773843921720982
01:00:0A:00:00:00:00;1725926480;10/09/24;00:01:20;1.013;0.009;0.109;0.080634206533432;-0.00855211354792118;0.0073303827084600925
01:00:0A:00:00:00:00;1725926481;10/09/24;00:01:21;1.013;0.007;0.108;0.07819075137376785;-0.009773843921720982;0.010995574295520782
01:00:0A:00:00:00:00;1725926482;10/09/24;00:01:22;1.013;0.007;0.108;0.07696902006864548;-0.009773843921720982;0.0073303827084600925
01:00:0A:00:00:00:00;1725926483;10/09/24;00:01:23;1.013;0.008;0.108;0.07452555745840073;-0.00855211354792118;0.009773843921720982
01:00:0A:00:00:00:00;1725926484;10/09/24;00:01:24;1.012;0.008;0.106;0.07330382615327835;-0.010995574295520782;0.00855211354792118
01:00:0A:00:00:00:00;1725926485;10/09/24;00:01:25;1.013;0.008;0.108;0.07208210229873657;-0.0073303827084600925;0.0073303827084600925
01:00:0A:00:00:00:00;1725926486;10/09/24;00:01:26;1.012;0.008;0.109;0.0708603635430336;-0.009773843921720982;0.0073303827084600925
01:00:0A:00:00:00:00;1725926487;10/09/24;00:01:27;1.013;0.007;0.108;0.06841690838336945;-0.012217304669320583;0.010995574295520782
01:00:0A:00:00:00:00;1725926488;10/09/24;00:01:28;1.013;0.008;0.108;0.06841690838336945;-0.00855211354792118;0.0073303827084600925
01:00:0A:00:00:00:00;1725926489;10/09/24;00:01:29;1.014;0.009;0.109;0.0659734457731247;-0.009773843921720982;0.00855211354792118
01:00:0A:00:00:00:00;1725926490;10/09/24;00:01:30;1.012;0.008;0.109;0.0659734457731247;-0.009773843921720982;0.0073303827084600925
01:00:0A:00:00:00:00;1725926491;10/09/24;00:01:31;1.012;0.008;0.107;0.06475171446800232;-0.009773843921720982;0.0073303827084600925
01:00:0A:00:00:00:00;1725926492;10/09/24;00:01:32;1.012;0.008;0.109;0.06230825558304787;-0.009773843921720982;0.00855211354792118
01:00:0A:00:00:00:00;1725926493;10/09/24;00:01:33;1.013;0.008;0.106;0.06108652427792549;-0.010995574295520782;0.00855211354792118
01:00:0A:00:00:00:00;1725926494;10/09/24;00:01:34;1.014;0.008;0.107;0.06108652427792549;-0.00855211354792118;0.006108652334660292
01:00:0A:00:00:00:00;1725926495;10/09/24;00:01:35;1.012;0.009;0.108;0.059864792972803116;-0.010995574295520782;0.0073303827084600925
01:00:0A:00:00:00:00;1725926496;10/09/24;00:01:36;1.012;0.008;0.107;0.05864306166768074;-0.010995574295520782;0.00855211354792118
01:00:0A:00:00:00:00;1725926497;10/09/24;00:01:37;1.012;0.007;0.107;0.05742133408784866;-0.009773843921720982;0.0073303827084600925
01:00:0A:00:00:00:00;1725926498;10/09/24;00:01:38;1.012;0.008;0.107;0.05619959905743599;-0.009773843921720982;0.0073303827084600925
01:00:0A:00:00:00:00;1725926499;10/09/24;00:01:39;1.013;0.008;0.108;0.05497787147760391;-0.010995574295520782;0.006108652334660292
01:00:0A:00:00:00:00;1725926500;10/09/24;00:01:40;1.012;0.009;0.107;0.05375614017248154;-0.009773843921720982;0.006108652334660292
01:00:0A:00:00:00:00;1725926501;10/09/24;00:01:41;1.013;0.007;0.108;0.051312677562236786;-0.010995574295520782;0.00855211354792118
01:00:0A:00:00:00:00;1725926502;10/09/24;00:01:42;1.012;0.009;0.107;0.05009094998240471;-0.009773843921720982;0.00855211354792118
01:00:0A:00:00:00:00;1725926503;10/09/24;00:01:43;1.013;0.007;0.108;0.051312677562236786;-0.010995574295520782;0.006108652334660292
01:00:0A:00:00:00:00;1725926504;10/09/24;00:01:44;1.013;0.008;0.107;0.05009094998240471;-0.00855211354792118;0.004886921960860491
01:00:0A:00:00:00:00;1725926505;10/09/24;00:01:45;1.013;0.007;0.108;0.04764748737215996;-0.012217304669320583;0.00855211354792118
01:00:0A:00:00:00:00;1725926506;10/09/24;00:01:46;1.013;0.007;0.107;0.04764748737215996;-0.009773843921720982;0.006108652334660292
01:00:0A:00:00:00:00;1725926507;10/09/24;00:01:47;1.013;0.008;0.108;0.04642575979232788;-0.009773843921720982;0.0073303827084600925
01:00:0A:00:00:00:00;1725926508;10/09/24;00:01:48;1.013;0.007;0.106;0.04764748737215996;-0.010995574295520782;0.006108652334660292
01:00:0A:00:00:00:00;1725926509;10/09/24;00:01:49;1.014;0.008;0.107;0.04642575979232788;-0.009773843921720982;0.004886921960860491
01:00:0A:00:00:00:00;1725926510;10/09/24;00:01:50;1.012;0.008;0.108;0.045204028487205505;-0.010995574295520782;0.00855211354792118
01:00:0A:00:00:00:00;1725926511;10/09/24;00:01:51;1.013;0.008;0.107;0.045204028487205505;-0.009773843921720982;0.006108652334660292
01:00:0A:00:00:00:00;1725926512;10/09/24;00:01:52;1.013;0.007;0.108;0.045204028487205505;-0.009773843921720982;0.0073303827084600925
01:00:0A:00:00:00:00;1725926513;10/09/24;00:01:53;1.012;0.007;0.108;0.04642575979232788;-0.009773843921720982;0.004886921960860491
01:00:0A:00:00:00:00;1725926514;10/09/24;00:01:54;1.012;0.008;0.108;0.045204028487205505;-0.012217304669320583;0.006108652334660292
01:00:0A:00:00:00:00;1725926515;10/09/24;00:01:55;1.013;0.007;0.108;0.04398229718208313;-0.009773843921720982;0.0073303827084600925
01:00:0A:00:00:00:00;1725926516;10/09/24;00:01:56;1.014;0.007;0.108;0.045204028487205505;-0.010995574295520782;0.006108652334660292
01:00:0A:00:00:00:00;1725926517;10/09/24;00:01:57;1.014;0.007;0.108;0.04398229718208313;-0.00855211354792118;0.0073303827084600925
01:00:0A:00:00:00:00;1725926518;10/09/24;00:01:58;1.013;0.007;0.107;0.04642575979232788;-0.012217304669320583;0.0036651913542300463
01:00:0A:00:00:00:00;1725926519;10/09/24;00:01:59;1.012;0.008;0.107;0.04398229718208313;-0.009773843921720982;0.0073303827084600925
01:00:0A:00:00:00:00;1725926520;10/09/24;00:02:00;1.013;0.007;0.108;0.04398229718208313;-0.010995574295520782;0.00855211354792118
01:00:0A:00:00:00:00;1725926521;10/09/24;00:02:01;1.014;0.008;0.108;0.045204028487205505;-0.009773843921720982;0.0036651913542300463
01:00:0A:00:00:00:00;1725926522;10/09/24;00:02:02;1.013;0.007;0.108;0.04398229718208313;-0.009773843921720982;0.006108652334660292
01:00:0A:00:00:00:00;1725926523;10/09/24;00:02:03;1.012;0.006;0.108;0.045204028487205505;-0.010995574295520782;0.0036651913542300463
01:00:0A:00:00:00:00;1725926524;10/09/24;00:02:04;1.012;0.008;0.107;0.042760565876960754;-0.010995574295520782;0.00855211354792118
01:00:0A:00:00:00:00;1725926525;10/09/24;00:02:05;1.014;0.005;0.108;0.042760565876960754;-0.010995574295520782;0.006108652334660292
01:00:0A:00:00:00:00;1725926526;10/09/24;00:02:06;1.014;0.008;0.108;0.042760565876960754;-0.009773843921720982;0.004886921960860491
01:00:0A:00:00:00:00;1725926527;10/09/24;00:02:07;1.012;0.007;0.107;0.042760565876960754;-0.009773843921720982;0.006108652334660292
01:00:0A:00:00:00:00;1725926528;10/09/24;00:02:08;1.013;0.008;0.108;0.042760565876960754;-0.012217304669320583;0.004886921960860491
01:00:0A:00:00:00:00;1725926529;10/09/24;00:02:09;1.014;0.007;0.106;0.040317103266716;-0.009773843921720982;0.00855211354792118
01:00:0A:00:00:00:00;1725926530;10/09/24;00:02:10;1.013;0.008;0.109;0.040317103266716;-0.010995574295520782;0.004886921960860491
01:00:0A:00:00:00:00;1725926531;10/09/24;00:02:11;1.012;0.008;0.107;0.040317103266716;-0.009773843921720982;0.004886921960860491
01:00:0A:00:00:00:00;1725926532;10/09/24;00:02:12;1.013;0.007;0.107;0.039095375686883926;-0.009773843921720982;0.004886921960860491
01:00:0A:00:00:00:00;1725926533;10/09/24;00:02:13;1.012;0.008;0.106;0.039095375686883926;-0.012217304669320583;0.006108652334660292
01:00:0A:00:00:00:00;1725926534;10/09/24;00:02:14;1.013;0.008;0.107;0.036651913076639175;-0.009773843921720982;0.0073303827084600925
01:00:0A:00:00:00:00;1725926535;10/09/24;00:02:15;1.013;0.007;0.109;0.036651913076639175;-0.010995574295520782;0.004886921960860491
01:00:0A:00:00:00:00;1725926536;10/09/24;00:02:16;1.012;0.008;0.107;0.036651913076639175;-0.009773843921720982;0.004886921960860491
01:00:0A:00:00:00:00;1725926537;10/09/24;00:02:17;1.012;0.007;0.108;0.0354301817715168;-0.010995574295520782;0.006108652334660292
01:00:0A:00:00:00:00;1725926538;10/09/24;00:02:18;1.013;0.007;0.106;0.0354301817715168;-0.010995574295520782;0.006108652334660292
01:00:0A:00:00:00:00;1725926539;10/09/24;00:02:19;1.014;0.007;0.108;0.03420845419168472;-0.009773843921720982;0.0073303827084600925
01:00:0A:00:00:00:00;1725926540;10/09/24;00:02:20;1.013;0.005;0.109;0.0354301817715168;-0.010995574295520782;0.0036651913542300463
01:00:0A:00:00:00:00;1725926541;10/09/24;00:02:21;1.013;0.008;0.107;0.0354301817715168;-0.009773843921720982;0.004886921960860491
01:00:0A:00:00:00:00;1725926542;10/09/24;00:02:22;1.013;0.005;0.109;0.0354301817715168;-0.010995574295520782;0.004886921960860491
01:00:0A:00:00:00:00;1725926543;10/09/24;00:02:23;1.012;0.008;0.107;0.0354301817715168;-0.010995574295520782;0.006108652334660292
01:00:0A:00:00:00:00;1725926544;10/09/24;00:02:24;1.012;-0.011;0.123;0.05253440886735916;0.045204028487205505;0.07941248267889023
01:00:0A:00:00:00:00;1725926545;10/09/24;00:02:25;1.011;-0.016;0.13;0.12339477241039276;-0.03420845419168472;-0.006108652334660292
01:00:0A:00:00:00:00;1725926546;10/09/24;00:02:26;1.013;0.017;0.087;0.1258382350206375;-0.03298672288656235;-0.009773843921720982
01:00:0A:00:00:00:00;1725926547;10/09/24;00:02:27;1.013;0.008;0.109;0.09162978082895279;0.03420845419168472;0.036651913076639175
01:00:0A:00:00:00:00;1725926548;10/09/24;00:02:28;1.012;-0.003;0.125;0.11239919811487198;-0.028099799528717995;0.00855211354792118
01:00:0A:00:00:00:00;1725926549;10/09/24;00:02:29;1.015;0.013;0.09;0.11362093687057495;-0.02687807008624077;0.0
01:00:0A:00:00:00:00;1725926550;10/09/24;00:02:30;1.013;0.008;0.108;0.09285151958465576;0.030543262138962746;0.021991148591041565
01:00:0A:00:00:00:00;1725926551;10/09/24;00:02:31;1.011;0.001;0.122;0.10751228034496307;-0.02932153083384037;0.0073303827084600925
01:00:0A:00:00:00:00;1725926552;10/09/24;00:02:32;1.015;0.009;0.093;0.10506881773471832;-0.02687807008624077;0.0073303827084600925
01:00:0A:00:00:00:00;1725926553;10/09/24;00:02:33;1.013;0.007;0.107;0.09162978082895279;0.024434609338641167;0.012217304669320583
01:00:0A:00:00:00:00;1725926554;10/09/24;00:02:34;1.012;0.007;0.122;0.09773843735456467;-0.025656338781118393;0.012217304669320583
01:00:0A:00:00:00:00;1725926555;10/09/24;00:02:35;1.013;0.005;0.094;0.09651670604944229;-0.02687807008624077;0.009773843921720982
01:00:0A:00:00:00:00;1725926556;10/09/24;00:02:36;1.012;0.008;0.11;0.08796459436416626;0.019547687843441963;0.006108652334660292
01:00:0A:00:00:00:00;1725926557;10/09/24;00:02:37;1.012;0.008;0.121;0.08918632566928864;-0.021991148591041565;0.014660765416920185
01:00:0A:00:00:00:00;1725926558;10/09/24;00:02:38;1.014;0.003;0.095;0.08796459436416626;-0.018325956538319588;0.010995574295520782
01:00:0A:00:00:00:00;1725926559;10/09/24;00:02:39;1.013;0.009;0.111;0.08307767659425735;0.012217304669320583;0.0024434609804302454
01:00:0A:00:00:00:00;1725926560;10/09/24;00:02:40;1.012;0.01;0.116;0.08185594528913498;-0.021991148591041565;0.015882495790719986
01:00:0A:00:00:00:00;1725926561;10/09/24;00:02:41;1.013;0.003;0.099;0.08185594528913498;-0.01710422709584236;0.010995574295520782
01:00:0A:00:00:00:00;1725926562;10/09/24;00:02:42;1.012;0.008;0.108;0.07941248267889023;0.00855211354792118;0.0012217304902151227
01:00:0A:00:00:00:00;1725926563;10/09/24;00:02:43;1.013;0.01;0.114;0.0757472887635231;-0.018325956538319588;0.014660765416920185
01:00:0A:00:00:00:00;1725926564;10/09/24;00:02:44;1.013;0.003;0.1;0.0757472887635231;-0.01710422709584236;0.012217304669320583
01:00:0A:00:00:00:00;1725926565;10/09/24;00:02:45;1.013;0.008;0.111;0.0757472887635231;0.0036651913542300463;0.0
01:00:0A:00:00:00:00;1725926566;10/09/24;00:02:46;1.012;0.011;0.113;0.07208210229873657;-0.015882495790719986;0.014660765416920185
01:00:0A:00:00:00:00;1725926567;10/09/24;00:02:47;1.014;0.002;0.103;0.07208210229873657;-0.012217304669320583;0.010995574295520782
01:00:0A:00:00:00:00;1725926568;10/09/24;00:02:48;1.013;0.008;0.108;0.07330382615327835;-0.0012217304902151227;-0.0012217304902151227
01:00:0A:00:00:00:00;1725926569;10/09/24;00:02:49;1.013;0.011;0.113;0.06841690838336945;-0.013439035043120384;0.014660765416920185
01:00:0A:00:00:00:00;1725926570;10/09/24;00:02:50;1.014;0.003;0.105;0.06963863223791122;-0.013439035043120384;0.010995574295520782
01:00:0A:00:00:00:00;1725926571;10/09/24;00:02:51;1.013;0.009;0.108;0.0708603635430336;-0.0024434609804302454;-0.0012217304902151227
01:00:0A:00:00:00:00;1725926572;10/09/24;00:02:52;1.013;0.009;0.111;0.0659734457731247;-0.013439035043120384;0.014660765416920185
01:00:0A:00:00:00:00;1725926573;10/09/24;00:02:53;1.012;0.003;0.106;0.06719517707824707;-0.012217304669320583;0.009773843921720982
01:00:0A:00:00:00:00;1725926574;10/09/24;00:02:54;1.014;0.008;0.109;0.06841690838336945;-0.0036651913542300463;0.0012217304902151227
01:00:0A:00:00:00:00;1725926575;10/09/24;00:02:55;1.012;0.01;0.111;0.06475171446800232;-0.013439035043120384;0.012217304669320583
01:00:0A:00:00:00:00;1725926576;10/09/24;00:02:56;1.012;0.004;0.107;0.0659734457731247;-0.010995574295520782;0.00855211354792118
01:00:0A:00:00:00:00;1725926577;10/09/24;00:02:57;1.013;0.007;0.109;0.0659734457731247;-0.006108652334660292;0.0012217304902151227
01:00:0A:00:00:00:00;1725926578;10/09/24;00:02:58;1.013;0.008;0.109;0.06230825558304787;-0.012217304669320583;0.012217304669320583
01:00:0A:00:00:00:00;1725926579;10/09/24;00:02:59;1.014;0.003;0.107;0.06230825558304787;-0.010995574295520782;0.009773843921720982
01:00:0A:00:00:00:00;1725926580;10/09/24;00:03:00;1.012;0.007;0.109;0.06475171446800232;-0.00855211354792118;0.0012217304902151227
01:00:0A:00:00:00:00;1725926581;10/09/24;00:03:01;1.013;0.008;0.108;0.059864792972803116;-0.010995574295520782;0.012217304669320583
01:00:0A:00:00:00:00;1725926582;10/09/24;00:03:02;1.013;0.003;0.108;0.06108652427792549;-0.009773843921720982;0.00855211354792118
01:00:0A:00:00:00:00;1725926583;10/09/24;00:03:03;1.014;0.008;0.108;0.06230825558304787;-0.009773843921720982;0.0024434609804302454
01:00:0A:00:00:00:00;1725926584;10/09/24;00:03:04;1.012;0.009;0.109;0.05742133408784866;-0.009773843921720982;0.012217304669320583
01:00:0A:00:00:00:00;1725926585;10/09/24;00:03:05;1.014;0.005;0.108;0.05864306166768074;-0.012217304669320583;0.00855211354792118
01:00:0A:00:00:00:00;1725926586;10/09/24;00:03:06;1.012;0.008;0.108;0.05864306166768074;-0.00855211354792118;0.0024434609804302454
01:00:0A:00:00:00:00;1725926587;10/09/24;00:03:07;1.013;0.007;0.109;0.05497787147760391;-0.009773843921720982;0.012217304669320583
01:00:0A:00:00:00:00;1725926588;10/09/24;00:03:08;1.013;0.005;0.107;0.05619959905743599;-0.009773843921720982;0.006108652334660292
01:00:0A:00:00:00:00;1725926589;10/09/24;00:03:09;1.012;0.008;0.109;0.05619959905743599;-0.009773843921720982;0.0036651913542300463
01:00:0A:00:00:00:00;1725926590;10/09/24;00:03:10;1.013;0.008;0.109;0.05253440886735916;-0.010995574295520782;0.009773843921720982
01:00:0A:00:00:00:00;1725926591;10/09/24;00:03:11;1.014;0.007;0.107;0.05375614017248154;-0.009773843921720982;0.006108652334660292
01:00:0A:00:00:00:00;1725926592;10/09/24;00:03:12;1.013;0.008;0.109;0.05375614017248154;-0.009773843921720982;0.0036651913542300463
01:00:0A:00:00:00:00;1725926593;10/09/24;00:03:13;1.013;0.008;0.108;0.05009094998240471;-0.009773843921720982;0.009773843921720982
01:00:0A:00:00:00:00;1725926594;10/09/24;00:03:14;1.013;0.007;0.109;0.051312677562236786;-0.009773843921720982;0.006108652334660292
01:00:0A:00:00:00:00;1725926595;10/09/24;00:03:15;1.011;0.009;0.107;0.051312677562236786;-0.010995574295520782;0.004886921960860491
01:00:0A:00:00:00:00;1725926596;10/09/24;00:03:16;1.013;0.007;0.108;0.04764748737215996;-0.00855211354792118;0.00855211354792118
01:00:0A:00:00:00:00;1725926597;10/09/24;00:03:17;1.014;0.006;0.109;0.04886921867728233;-0.010995574295520782;0.006108652334660292
01:00:0A:00:00:00:00;1725926598;10/09/24;00:03:18;1.012;0.007;0.108;0.04764748737215996;-0.009773843921720982;0.006108652334660292
01:00:0A:00:00:00:00;1725926599;10/09/24;00:03:19;1.013;0.008;0.11;0.04642575979232788;-0.009773843921720982;0.00855211354792118
01:00:0A:00:00:00:00;1725926600;10/09/24;00:03:20;1.011;0.006;0.108;0.04642575979232788;-0.010995574295520782;0.006108652334660292
01:00:0A:00:00:00:00;1725926601;10/09/24;00:03:21;1.014;0.008;0.108;0.04642575979232788;-0.009773843921720982;0.0036651913542300463
01:00:0A:00:00:00:00;1725926602;10/09/24;00:03:22;1.013;0.007;0.108;0.042760565876960754;-0.009773843921720982;0.00855211354792118
01:00:0A:00:00:00:00;1725926603;10/09/24;00:03:23;1.012;0.006;0.109;0.04398229718208313;-0.010995574295520782;0.004886921960860491
01:00:0A:00:00:00:00;1725926604;10/09/24;00:03:24;1.013;0.009;0.108;0.042760565876960754;-0.010995574295520782;0.006108652334660292
01:00:0A:00:00:00:00;1725926605;10/09/24;00:03:25;1.013;0.007;0.108;0.040317103266716;-0.009773843921720982;0.0073303827084600925
01:00:0A:00:00:00:00;1725926606;10/09/24;00:03:26;1.013;0.006;0.108;0.04153883829712868;-0.009773843921720982;0.004886921960860491
01:00:0A:00:00:00:00;1725926607;10/09/24;00:03:27;1.014;0.008;0.109;0.040317103266716;-0.010995574295520782;0.004886921960860491
01:00:0A:00:00:00:00;1725926608;10/09/24;00:03:28;1.012;0.007;0.108;0.03787364438176155;-0.009773843921720982;0.006108652334660292
01:00:0A:00:00:00:00;1725926609;10/09/24;00:03:29;1.013;0.006;0.109;0.03787364438176155;-0.010995574295520782;0.006108652334660292
01:00:0A:00:00:00:00;1725926610;10/09/24;00:03:30;1.013;0.008;0.106;0.036651913076639175;-0.010995574295520782;0.004886921960860491
01:00:0A:00:00:00:00;1725926611;10/09/24;00:03:31;1.013;0.007;0.109;0.0354301817715168;-0.009773843921720982;0.006108652334660292
01:00:0A:00:00:00:00;1725926612;10/09/24;00:03:32;1.013;0.007;0.108;0.0354301817715168;-0.010995574295520782;0.004886921960860491
01:00:0A:00:00:00:00;1725926613;10/09/24;00:03:33;1.013;0.007;0.107;0.03420845419168472;-0.010995574295520782;0.004886921960860491
01:00:0A:00:00:00:00;1725926614;10/09/24;00:03:34;1.013;0.007;0.108;0.03298672288656235;-0.010995574295520782;0.006108652334660292
01:00:0A:00:00:00:00;1725926615;10/09/24;00:03:35;1.013;0.007;0.108;0.03176499158143997;-0.010995574295520782;0.004886921960860491
01:00:0A:00:00:00:00;1725926616;10/09/24;00:03:36;1.014;0.009;0.109;0.03176499158143997;-0.010995574295520782;0.0036651913542300463
01:00:0A:00:00:00:00;1725926617;10/09/24;00:03:37;1.013;0.008;0.108;0.02932153083384037;-0.010995574295520782;0.006108652334660292
01:00:0A:00:00:00:00;1725926618;10/09/24;00:03:38;1.013;0.007;0.108;0.030543262138962746;-0.010995574295520782;0.0036651913542300463
01:00:0A:00:00:00:00;1725926619;10/09/24;00:03:39;1.012;0.009;0.108;0.028099799528717995;-0.010995574295520782;0.006108652334660292
01:00:0A:00:00:00:00;1725926620;10/09/24;00:03:40;1.013;0.007;0.108;0.028099799528717995;-0.009773843921720982;0.0036651913542300463
01:00:0A:00:00:00:00;1725926621;10/09/24;00:03:41;1.013;0.009;0.108;0.02687807008624077;-0.010995574295520782;0.004886921960860491
01:00:0A:00:00:00:00;1725926622;10/09/24;00:03:42;1.012;0.007;0.108;0.02687807008624077;-0.010995574295520782;0.004886921960860491
01:00:0A:00:00:00:00;1725926623;10/09/24;00:03:43;1.012;0.007;0.108;0.025656338781118393;-0.009773843921720982;0.004886921960860491
01:00:0A:00:00:00:00;1725926624;10/09/24;00:03:44;1.012;0.005;0.108;0.025656338781118393;-0.012217304669320583;0.004886921960860491
01:00:0A:00:00:00:00;1725926625;10/09/24;00:03:45;1.013;0.007;0.108;0.024434609338641167;-0.009773843921720982;0.0036651913542300463
01:00:0A:00:00:00:00;1725926626;10/09/24;00:03:46;1.012;0.007;0.109;0.02321287989616394;-0.010995574295520782;0.004886921960860491
01:00:0A:00:00:00:00;1725926627;10/09/24;00:03:47;1.013;0.006;0.108;0.02321287989616394;-0.010995574295520782;0.0036651913542300463
01:00:0A:00:00:00:00;1725926628;10/09/24;00:03:48;1.012;0.006;0.108;0.02321287989616394;-0.010995574295520782;0.0036651913542300463
01:00:0A:00:00:00:00;1725926629;10/09/24;00:03:49;1.012;0.006;0.108;0.021991148591041565;-0.010995574295520782;0.004886921960860491
01:00:0A:00:00:00:00;1725926630;10/09/24;00:03:50;1.013;0.007;0.109;0.021991148591041565;-0.010995574295520782;0.0036651913542300463
01:00:0A:00:00:00:00;1725926631;10/09/24;00:03:51;1.013;0.007;0.107;0.02076941914856434;-0.012217304669320583;0.004886921960860491
01:00:0A:00:00:00:00;1725926632;10/09/24;00:03:52;1.013;0.007;0.108;0.02076941914856434;-0.009773843921720982;0.004886921960860491
01:00:0A:00:00:00:00;1725926633;10/09/24;00:03:53;1.013;0.007;0.107;0.02076941914856434;-0.010995574295520782;0.0036651913542300463
01:00:0A:00:00:00:00;1725926634;10/09/24;00:03:54;1.014;0.007;0.107;0.019547687843441963;-0.010995574295520782;0.004886921960860491
01:00:0A:00:00:00:00;1725926635;10/09/24;00:03:55;1.013;0.007;0.108;0.019547687843441963;-0.010995574295520782;0.0036651913542300463
01:00:0A:00:00:00:00;1725926636;10/09/24;00:03:56;1.013;0.007;0.107;0.019547687843441963;-0.010995574295520782;0.004886921960860491
01:00:0A:00:00:00:00;1725926637;10/09/24;00:03:57;1.013;0.007;0.108;0.019547687843441963;-0.010995574295520782;0.0036651913542300463
01:00:0A:00:00:00:00;1725926638;10/09/24;00:03:58;1.013;0.008;0.108;0.018325956538319588;-0.010995574295520782;0.004886921960860491
01:00:0A:00:00:00:00;1725926639;10/09/24;00:03:59;1.012;0.008;0.108;0.018325956538319588;-0.012217304669320583;0.0036651913542300463
01:00:0A:00:00:00:00;1725926640;10/09/24;00:04:00;1.014;0.007;0.108;0.018325956538319588;-0.010995574295520782;0.0036651913542300463
01:00:0A:00:00:00:00;1725926641;10/09/24;00:04:01;1.013;0.006;0.107;0.018325956538319588;-0.012217304669320583;0.004886921960860491
01:00:0A:00:00:00:00;1725926642;10/09/24;00:04:02;1.012;0.007;0.108;0.018325956538319588;-0.010995574295520782;0.0036651913542300463
01:00:0A:00:00:00:00;1725926643;10/09/24;00:04:03;1.013;0.007;0.107;0.018325956538319588;-0.010995574295520782;0.0036651913542300463
01:00:0A:00:00:00:00;1725926644;10/09/24;00:04:04;1.014;0.007;0.108;0.01710422709584236;-0.010995574295520782;0.0036651913542300463
01:00:0A:00:00:00:00;1725926645;10/09/24;00:04:05;1.014;0.006;0.108;0.01710422709584236;-0.010995574295520782;0.0036651913542300463
01:00:0A:00:00:00:00;1725926646;10/09/24;00:04:06;1.012;0.007;0.109;0.01710422709584236;-0.010995574295520782;0.0036651913542300463
01:00:0A:00:00:00:00;1725926647;10/09/24;00:04:07;1.013;0.007;0.107;0.01710422709584236;-0.010995574295520782;0.0036651913542300463
01:00:0A:00:00:00:00;1725926648;10/09/24;00:04:08;1.013;0.007;0.109;0.01710422709584236;-0.012217304669320583;0.0036651913542300463
01:00:0A:00:00:00:00;1725926649;10/09/24;00:04:09;1.013;0.007;0.108;0.01710422709584236;-0.010995574295520782;0.0036651913542300463
01:00:0A:00:00:00:00;1725926650;10/09/24;00:04:10;1.013;0.007;0.108;0.01710422709584236;-0.010995574295520782;0.0036651913542300463
01:00:0A:00:00:00:00;1725926651;10/09/24;00:04:11;1.013;0.007;0.108;0.01710422709584236;-0.010995574295520782;0.0036651913542300463
01:00:0A:00:00:00:00;1725926652;10/09/24;00:04:12;1.012;0.007;0.108;0.01710422709584236;-0.010995574295520782;0.0024434609804302454
01:00:0A:00:00:00:00;1725926653;10/09/24;00:04:13;1.012;0.006;0.107;0.01710422709584236;-0.010995574295520782;0.004886921960860491
01:00:0A:00:00:00:00;1725926654;10/09/24;00:04:14;1.014;0.007;0.109;0.01710422709584236;-0.010995574295520782;0.0036651913542300463
01:00:0A:00:00:00:00;1725926655;10/09/24;00:04:15;1.013;0.007;0.108;0.01710422709584236;-0.010995574295520782;0.004886921960860491
01:00:0A:00:00:00:00;1725926656;10/09/24;00:04:16;1.013;0.007;0.108;0.01710422709584236;-0.010995574295520782;0.0036651913542300463
01:00:0A:00:00:00:00;1725926657;10/09/24;00:04:17;1.013;0.006;0.107;0.01710422709584236;-0.010995574295520782;0.0024434609804302454
01:00:0A:00:00:00:00;1725926658;10/09/24;00:04:18;1.014;0.007;0.109;0.01710422709584236;-0.010995574295520782;0.004886921960860491
01:00:0A:00:00:00:00;1725926659;10/09/24;00:04:19;1.012;0.006;0.107;0.01710422709584236;-0.010995574295520782;0.0036651913542300463
01:00:0A:00:00:00:00;1725926660;10/09/24;00:04:20;1.014;0.007;0.108;0.01710422709584236;-0.010995574295520782;0.0036651913542300463
01:00:0A:00:00:00:00;1725926661;10/09/24;00:04:21;1.012;0.006;0.108;0.01710422709584236;-0.010995574295520782;0.0036651913542300463
01:00:0A:00:00:00:00;1725926662;10/09/24;00:04:22;1.012;0.007;0.108;0.01710422709584236;-0.010995574295520782;0.0036651913542300463
01:00:0A:00:00:00:00;1725926663;10/09/24;00:04:23;1.012;0.007;0.107;0.01710422709584236;-0.012217304669320583;0.004886921960860491
01:00:0A:00:00:00:00;1725926664;10/09/24;00:04:24;1.012;0.006;0.108;0.01710422709584236;-0.010995574295520782;0.0036651913542300463
01:00:0A:00:00:00:00;1725926665;10/09/24;00:04:25;1.014;0.008;0.108;0.01710422709584236;-0.010995574295520782;0.004886921960860491
01:00:0A:00:00:00:00;1725926666;10/09/24;00:04:26;1.013;0.006;0.107;0.01710422709584236;-0.010995574295520782;0.0036651913542300463
01:00:0A:00:00:00:00;1725926667;10/09/24;00:04:27;1.011;0.007;0.108;0.01710422709584236;-0.010995574295520782;0.0036651913542300463
01:00:0A:00:00:00:00;1725926668;10/09/24;00:04:28;1.014;0.007;0.108;0.01710422709584236;-0.010995574295520782;0.004886921960860491
01:00:0A:00:00:00:00;1725926669;10/09/24;00:04:29;1.012;0.007;0.107;0.01710422709584236;-0.010995574295520782;0.0036651913542300463
01:00:0A:00:00:00:00;1725926670;10/09/24;00:04:30;1.013;0.007;0.108;0.01710422709584236;-0.010995574295520782;0.004886921960860491
01:00:0A:00:00:00:00;1725926671;10/09/24;00:04:31;1.012;0.005;0.107;0.018325956538319588;-0.010995574295520782;0.0036651913542300463
01:00:0A:00:00:00:00;1725926672;10/09/24;00:04:32;1.014;0.007;0.107;0.01710422709584236;-0.010995574295520782;0.0036651913542300463
01:00:0A:00:00:00:00;1725926673;10/09/24;00:04:33;1.013;0.007;0.108;0.01710422709584236;-0.010995574295520782;0.004886921960860491
01:00:0A:00:00:00:00;1725926674;10/09/24;00:04:34;1.013;0.007;0.108;0.018325956538319588;-0.010995574295520782;0.0036651913542300463
01:00:0A:00:00:00:00;1725926675;10/09/24;00:04:35;1.012;0.007;0.108;0.018325956538319588;-0.010995574295520782;0.004886921960860491
01:00:0A:00:00:00:00;1725926676;10/09/24;00:04:36;1.012;0.007;0.107;0.018325956538319588;-0.010995574295520782;0.0036651913542300463
01:00:0A:00:00:00:00;1725926677;10/09/24;00:04:37;1.012;0.008;0.108;0.018325956538319588;-0.010995574295520782;0.004886921960860491
01:00:0A:00:00:00:00;1725926678;10/09/24;00:04:38;1.012;0.006;0.108;0.018325956538319588;-0.010995574295520782;0.004886921960860491
01:00:0A:00:00:00:00;1725926679;10/09/24;00:04:39;1.013;0.007;0.108;0.018325956538319588;-0.010995574295520782;0.0036651913542300463
01:00:0A:00:00:00:00;1725926680;10/09/24;00:04:40;1.012;0.007;0.108;0.018325956538319588;-0.010995574295520782;0.004886921960860491
01:00:0A:00:00:00:00;1725926681;10/09/24;00:04:41;1.012;0.006;0.108;0.018325956538319588;-0.010995574295520782;0.0036651913542300463
01:00:0A:00:00:00:00;1725926682;10/09/24;00:04:42;1.014;0.007;0.108;0.018325956538319588;-0.010995574295520782;0.004886921960860491
01:00:0A:00:00:00:00;1725926683;10/09/24;00:04:43;1.013;0.006;0.107;0.019547687843441963;-0.010995574295520782;0.0036651913542300463
01:00:0A:00:00:00:00;1725926684;10/09/24;00:04:44;1.013;0.007;0.107;0.019547687843441963;-0.010995574295520782;0.0036651913542300463
01:00:0A:00:00:00:00;1725926685;10/09/24;00:04:45;1.014;0.007;0.108;0.019547687843441963;-0.010995574295520782;0.004886921960860491
01:00:0A:00:00:00:00;1725926686;10/09/24;00:04:46;1.014;0.006;0.107;0.019547687843441963;-0.010995574295520782;0.0036651913542300463
01:00:0A:00:00:00:00;1725926687;10/09/24;00:04:47;1.012;0.007;0.107;0.019547687843441963;-0.010995574295520782;0.004886921960860491
01:00:0A:00:00:00:00;1725926688;10/09/24;00:04:48;1.013;0.006;0.108;0.02076941914856434;-0.010995574295520782;0.004886921960860491
01:00:0A:00:00:00:00;1725926689;10/09/24;00:04:49;1.013;0.008;0.107;0.02076941914856434;-0.010995574295520782;0.0036651913542300463
01:00:0A:00:00:00:00;1725926690;10/09/24;00:04:50;1.013;0.007;0.108;0.02076941914856434;-0.010995574295520782;0.004886921960860491
01:00:0A:00:00:00:00;1725926691;10/09/24;00:04:51;1.013;0.007;0.108;0.02076941914856434;-0.010995574295520782;0.0036651913542300463
01:00:0A:00:00:00:00;1725926692;10/09/24;00:04:52;1.013;0.006;0.108;0.02076941914856434;-0.010995574295520782;0.004886921960860491
01:00:0A:00:00:00:00;1725926693;10/09/24;00:04:53;1.013;0.007;0.108;0.021991148591041565;-0.010995574295520782;0.0036651913542300463
01:00:0A:00:00:00:00;1725926694;10/09/24;00:04:54;1.013;0.006;0.108;0.021991148591041565;-0.010995574295520782;0.0036651913542300463
01:00:0A:00:00:00:00;1725926695;10/09/24;00:04:55;1.013;0.007;0.108;0.02076941914856434;-0.010995574295520782;0.004886921960860491
01:00:0A:00:00:00:00;1725926696;10/09/24;00:04:56;1.013;0.006;0.108;0.021991148591041565;-0.010995574295520782;0.004886921960860491
01:00:0A:00:00:00:00;1725926697;10/09/24;00:04:57;1.014;0.005;0.108;0.021991148591041565;-0.010995574295520782;0.004886921960860491
01:00:0A:00:00:00:00;1725926698;10/09/24;00:04:58;1.013;0.007;0.108;0.021991148591041565;-0.010995574295520782;0.0036651913542300463
01:00:0A:00:00:00:00;1725926699;10/09/24;00:04:59;1.012;0.006;0.107;0.021991148591041565;-0.010995574295520782;0.004886921960860491
01:00:0A:00:00:00:00;1725926700;10/09/24;00:05:00;1.012;0.007;0.109;0.021991148591041565;-0.010995574295520782;0.004886921960860491
01:00:0A:00:00:00:00;1725926701;10/09/24;00:05:01;1.013;0.007;0.108;0.021991148591041565;-0.010995574295520782;0.004886921960860491
01:00:0A:00:00:00:00;1725926702;10/09/24;00:05:02;1.014;0.007;0.107;0.021991148591041565;-0.010995574295520782;0.004886921960860491
01:00:0A:00:00:00:00;1725926703;10/09/24;00:05:03;1.012;0.007;0.108;0.02321287989616394;-0.010995574295520782;0.0036651913542300463
01:00:0A:00:00:00:00;1725926704;10/09/24;00:05:04;1.013;0.007;0.108;0.021991148591041565;-0.010995574295520782;0.004886921960860491
01:00:0A:00:00:00:00;1725926705;10/09/24;00:05:05;1.014;0.006;0.107;0.02321287989616394;-0.010995574295520782;0.004886921960860491
01:00:0A:00:00:00:00;1725926706;10/09/24;00:05:06;1.013;0.006;0.108;0.021991148591041565;-0.010995574295520782;0.004886921960860491
01:00:0A:00:00:00:00;1725926707;10/09/24;00:05:07;1.012;0.006;0.109;0.021991148591041565;-0.010995574295520782;0.004886921960860491
01:00:0A:00:00:00:00;1725926708;10/09/24;00:05:08;1.012;0.006;0.107;0.02321287989616394;-0.010995574295520782;0.0036651913542300463
01:00:0A:00:00:00:00;1725926709;10/09/24;00:05:09;1.013;0.006;0.108;0.02321287989616394;-0.010995574295520782;0.004886921960860491
01:00:0A:00:00:00:00;1725926710;10/09/24;00:05:10;1.012;0.007;0.108;0.02321287989616394;-0.010995574295520782;0.004886921960860491
01:00:0A:00:00:00:00;1725926711;10/09/24;00:05:11;1.012;0.007;0.107;0.021991148591041565;-0.010995574295520782;0.004886921960860491
01:00:0A:00:00:00:00;1725926712;10/09/24;00:05:12;1.013;0.007;0.107;0.02321287989616394;-0.010995574295520782;0.004886921960860491
01:00:0A:00:00:00:00;1725926713;10/09/24;00:05:13;1.013;0.007;0.11;0.02321287989616394;-0.010995574295520782;0.004886921960860491
01:00:0A:00:00:00:00;1725926714;10/09/24;00:05:14;1.012;0.007;0.108;0.021991148591041565;-0.010995574295520782;0.004886921960860491
01:00:0A:00:00:00:00;1725926715;10/09/24;00:05:15;1.012;0.006;0.107;0.02321287989616394;-0.010995574295520782;0.0036651913542300463
01:00:0A:00:00:00:00;1725926716;10/09/24;00:05:16;1.013;0.007;0.108;0.02321287989616394;-0.010995574295520782;0.004886921960860491
01:00:0A:00:00:00:00;1725926717;10/09/24;00:05:17;1.013;0.006;0.107;0.02321287989616394;-0.009773843921720982;0.0036651913542300463
01:00:0A:00:00:00:00;1725926718;10/09/24;00:05:18;1.013;0.006;0.109;0.02321287989616394;-0.010995574295520782;0.004886921960860491
01:00:0A:00:00:00:00;1725926719;10/09/24;00:05:19;1.013;0.007;0.108;0.02321287989616394;-0.009773843921720982;0.004886921960860491
01:00:0A:00:00:00:00;1725926720;10/09/24;00:05:20;1.013;0.007;0.108;0.02321287989616394;-0.010995574295520782;0.004886921960860491
01:00:0A:00:00:00:00;1725926721;10/09/24;00:05:21;1.014;0.007;0.107;0.02321287989616394;-0.010995574295520782;0.004886921960860491
01:00:0A:00:00:00:00;1725926722;10/09/24;00:05:22;1.012;0.006;0.108;0.02321287989616394;-0.010995574295520782;0.0036651913542300463
01:00:0A:00:00:00:00;1725926723;10/09/24;00:05:23;1.013;0.007;0.108;0.02321287989616394;-0.010995574295520782;0.004886921960860491
01:00:0A:00:00:00:00;1725926724;10/09/24;00:05:24;1.012;0.006;0.108;0.02321287989616394;-0.010995574295520782;0.004886921960860491
01:00:0A:00:00:00:00;1725926725;10/09/24;00:05:25;1.012;0.007;0.108;0.024434609338641167;-0.010995574295520782;0.0036651913542300463
01:00:0A:00:00:00:00;1725926726;10/09/24;00:05:26;1.013;0.006;0.108;0.02321287989616394;-0.010995574295520782;0.004886921960860491
01:00:0A:00:00:00:00;1725926727;10/09/24;00:05:27;1.012;0.008;0.107;0.024434609338641167;-0.010995574295520782;0.0036651913542300463
01:00:0A:00:00:00:00;1725926728;10/09/24;00:05:28;1.013;0.007;0.108;0.02321287989616394;-0.010995574295520782;0.004886921960860491
01:00:0A:00:00:00:00;1725926729;10/09/24;00:05:29;1.013;0.007;0.108;0.02321287989616394;-0.010995574295520782;0.004886921960860491
01:00:0A:00:00:00:00;1725926730;10/09/24;00:05:30;1.013;0.007;0.109;0.024434609338641167;-0.010995574295520782;0.0036651913542300463
01:00:0A:00:00:00:00;1725926731;10/09/24;00:05:31;1.012;0.007;0.109;0.02321287989616394;-0.010995574295520782;0.004886921960860491
01:00:0A:00:00:00:00;1725926732;10/09/24;00:05:32;1.014;0.007;0.108;0.024434609338641167;-0.010995574295520782;0.0036651913542300463
01:00:0A:00:00:00:00;1725926733;10/09/24;00:05:33;1.012;0.006;0.107;0.02321287989616394;-0.010995574295520782;0.006108652334660292
01:00:0A:00:00:00:00;1725926734;10/09/24;00:05:34;1.014;0.007;0.109;0.02321287989616394;-0.010995574295520782;0.0036651913542300463
01:00:0A:00:00:00:00;1725926735;10/09/24;00:05:35;1.012;0.006;0.108;0.024434609338641167;-0.010995574295520782;0.004886921960860491
01:00:0A:00:00:00:00;1725926736;10/09/24;00:05:36;1.014;0.006;0.109;0.024434609338641167;-0.010995574295520782;0.004886921960860491
01:00:0A:00:00:00:00;1725926737;10/09/24;00:05:37;1.012;0.007;0.108;0.024434609338641167;-0.010995574295520782;0.004886921960860491
01:00:0A:00:00:00:00;1725926738;10/09/24;00:05:38;1.012;0.007;0.109;0.02321287989616394;-0.009773843921720982;0.004886921960860491
01:00:0A:00:00:00:00;1725926739;10/09/24;00:05:39;1.012;0.006;0.107;0.024434609338641167;-0.010995574295520782;0.004886921960860491
01:00:0A:00:00:00:00;1725926740;10/09/24;00:05:40;1.013;0.007;0.107;0.024434609338641167;-0.010995574295520782;0.0036651913542300463
01:00:0A:00:00:00:00;1725926741;10/09/24;00:05:41;1.013;0.007;0.108;0.024434609338641167;-0.010995574295520782;0.004886921960860491
01:00:0A:00:00:00:00;1725926742;10/09/24;00:05:42;1.012;0.008;0.108;0.02321287989616394;-0.010995574295520782;0.004886921960860491
01:00:0A:00:00:00:00;1725926743;10/09/24;00:05:43;1.013;0.006;0.108;0.02321287989616394;-0.009773843921720982;0.004886921960860491
01:00:0A:00:00:00:00;1725926744;10/09/24;00:05:44;1.012;0.006;0.109;0.02321287989616394;-0.010995574295520782;0.004886921960860491
01:00:0A:00:00:00:00;1725926745;10/09/24;00:05:45;1.013;0.007;0.108;0.02321287989616394;-0.010995574295520782;0.004886921960860491
01:00:0A:00:00:00:00;1725926746;10/09/24;00:05:46;1.013;0.006;0.109;0.02321287989616394;-0.010995574295520782;0.004886921960860491
01:00:0A:00:00:00:00;1725926747;10/09/24;00:05:47;1.012;0.007;0.107;0.02321287989616394;-0.010995574295520782;0.004886921960860491
01:00:0A:00:00:00:00;1725926748;10/09/24;00:05:48;1.014;0.007;0.109;0.024434609338641167;-0.010995574295520782;0.004886921960860491
01:00:0A:00:00:00:00;1725926749;10/09/24;00:05:49;1.013;0.006;0.109;0.024434609338641167;-0.010995574295520782;0.0036651913542300463
01:00:0A:00:00:00:00;1725926750;10/09/24;00:05:50;1.013;0.007;0.108;0.024434609338641167;-0.010995574295520782;0.004886921960860491
01:00:0A:00:00:00:00;1725926751;10/09/24;00:05:51;1.013;0.006;0.108;0.024434609338641167;-0.010995574295520782;0.004886921960860491
01:00:0A:00:00:00:00;1725926752;10/09/24;00:05:52;1.012;0.006;0.108;0.024434609338641167;-0.010995574295520782;0.004886921960860491
01:00:0A:00:00:00:00;1725926753;10/09/24;00:05:53;1.014;0.005;0.109;0.024434609338641167;-0.010995574295520782;0.004886921960860491
01:00:0A:00:00:00:00;1725926754;10/09/24;00:05:54;1.013;0.006;0.108;0.024434609338641167;-0.010995574295520782;0.004886921960860491
01:00:0A:00:00:00:00;1725926755;10/09/24;00:05:55;1.012;0.007;0.109;0.024434609338641167;-0.010995574295520782;0.004886921960860491
01:00:0A:00:00:00:00;1725926756;10/09/24;00:05:56;1.013;0.006;0.108;0.02321287989616394;-0.010995574295520782;0.004886921960860491
01:00:0A:00:00:00:00;1725926757;10/09/24;00:05:57;1.012;0.007;0.108;0.02321287989616394;-0.009773843921720982;0.004886921960860491
01:00:0A:00:00:00:00;1725926758;10/09/24;00:05:58;1.012;0.007;0.109;0.024434609338641167;-0.010995574295520782;0.004886921960860491
01:00:0A:00:00:00:00;1725926759;10/09/24;00:05:59;1.013;0.008;0.108;0.024434609338641167;-0.010995574295520782;0.0036651913542300463
01:00:0A:00:00:00:00;1725926760;10/09/24;00:06:00;1.014;0.006;0.109;0.02321287989616394;-0.010995574295520782;0.004886921960860491
01:00:0A:00:00:00:00;1725926761;10/09/24;00:06:01;1.012;0.007;0.109;0.02321287989616394;-0.010995574295520782;0.004886921960860491
01:00:0A:00:00:00:00;1725926762;10/09/24;00:06:02;1.013;0.007;0.109;0.02321287989616394;-0.010995574295520782;0.004886921960860491
01:00:0A:00:00:00:00;1725926763;10/09/24;00:06:03;1.014;0.006;0.109;0.02321287989616394;-0.010995574295520782;0.004886921960860491
01:00:0A:00:00:00:00;1725926764;10/09/24;00:06:04;1.012;0.007;0.109;0.02321287989616394;-0.010995574295520782;0.0036651913542300463
01:00:0A:00:00:00:00;1725926765;10/09/24;00:06:05;1.013;0.007;0.108;0.02321287989616394;-0.009773843921720982;0.004886921960860491
01:00:0A:00:00:00:00;1725926766;10/09/24;00:06:06;1.013;0.006;0.109;0.02321287989616394;-0.010995574295520782;0.0036651913542300463
01:00:0A:00:00:00:00;1725926767;10/09/24;00:06:07;1.013;0.006;0.108;0.02321287989616394;-0.010995574295520782;0.004886921960860491
01:00:0A:00:00:00:00;1725926768;10/09/24;00:06:08;1.013;0.007;0.109;0.021991148591041565;-0.010995574295520782;0.0036651913542300463
01:00:0A:00:00:00:00;1725926769;10/09/24;00:06:09;1.013;0.006;0.108;0.021991148591041565;-0.010995574295520782;0.004886921960860491
01:00:0A:00:00:00:00;1725926770;10/09/24;00:06:10;1.012;0.006;0.109;0.021991148591041565;-0.010995574295520782;0.004886921960860491
01:00:0A:00:00:00:00;1725926771;10/09/24;00:06:11;1.012;0.007;0.108;0.021991148591041565;-0.010995574295520782;0.004886921960860491
01:00:0A:00:00:00:00;1725926772;10/09/24;00:06:12;1.013;0.007;0.11;0.021991148591041565;-0.010995574295520782;0.004886921960860491
01:00:0A:00:00:00:00;1725926773;10/09/24;00:06:13;1.012;0.008;0.109;0.021991148591041565;-0.010995574295520782;0.0036651913542300463
01:00:0A:00:00:00:00;1725926774;10/09/24;00:06:14;1.013;0.007;0.108;0.021991148591041565;-0.010995574295520782;0.0036651913542300463
01:00:0A:00:00:00:00;1725926775;10/09/24;00:06:15;1.013;0.007;0.109;0.02076941914856434;-0.009773843921720982;0.004886921960860491
01:00:0A:00:00:00:00;1725926776;10/09/24;00:06:16;1.012;0.009;0.108;0.02076941914856434;-0.010995574295520782;0.0036651913542300463
01:00:0A:00:00:00:00;1725926777;10/09/24;00:06:17;1.013;0.007;0.108;0.02076941914856434;-0.010995574295520782;0.004886921960860491
01:00:0A:00:00:00:00;1725926778;10/09/24;00:06:18;1.013;0.007;0.109;0.02076941914856434;-0.010995574295520782;0.0036651913542300463
01:00:0A:00:00:00:00;1725926779;10/09/24;00:06:19;1.013;0.007;0.108;0.02076941914856434;-0.010995574295520782;0.0036651913542300463
01:00:0A:00:00:00:00;1725926780;10/09/24;00:06:20;1.013;0.008;0.109;0.02076941914856434;-0.010995574295520782;0.0036651913542300463
01:00:0A:00:00:00:00;1725926781;10/09/24;00:06:21;1.013;0.007;0.109;0.019547687843441963;-0.010995574295520782;0.0036651913542300463
01:00:0A:00:00:00:00;1725926782;10/09/24;00:06:22;1.012;0.007;0.108;0.019547687843441963;-0.010995574295520782;0.0036651913542300463
01:00:0A:00:00:00:00;1725926783;10/09/24;00:06:23;1.012;0.008;0.108;0.02076941914856434;-0.010995574295520782;0.0036651913542300463
01:00:0A:00:00:00:00;1725926784;10/09/24;00:06:24;1.011;0.006;0.109;0.019547687843441963;-0.009773843921720982;0.0036651913542300463
01:00:0A:00:00:00:00;1725926785;10/09/24;00:06:25;1.012;0.007;0.108;0.019547687843441963;-0.010995574295520782;0.0036651913542300463
01:00:0A:00:00:00:00;1725926786;10/09/24;00:06:26;1.011;0.007;0.108;0.019547687843441963;-0.010995574295520782;0.0036651913542300463
01:00:0A:00:00:00:00;1725926787;10/09/24;00:06:27;1.013;0.007;0.109;0.019547687843441963;-0.010995574295520782;0.0036651913542300463
01:00:0A:00:00:00:00;1725926788;10/09/24;00:06:28;1.013;0.007;0.108;0.019547687843441963;-0.010995574295520782;0.0036651913542300463
01:00:0A:00:00:00:00;1725926789;10/09/24;00:06:29;1.013;0.007;0.108;0.019547687843441963;-0.010995574295520782;0.0036651913542300463
01:00:0A:00:00:00:00;1725926790;10/09/24;00:06:30;1.013;0.007;0.109;0.019547687843441963;-0.010995574295520782;0.0036651913542300463
01:00:0A:00:00:00:00;1725926791;10/09/24;00:06:31;1.013;0.006;0.108;0.019547687843441963;-0.010995574295520782;0.0036651913542300463
01:00:0A:00:00:00:00;1725926792;10/09/24;00:06:32;1.013;0.007;0.108;0.019547687843441963;-0.010995574295520782;0.0036651913542300463
01:00:0A:00:00:00:00;1725926793;10/09/24;00:06:33;1.012;0.007;0.109;0.019547687843441963;-0.010995574295520782;0.0036651913542300463
01:00:0A:00:00:00:00;1725926794;10/09/24;00:06:34;1.011;0.005;0.109;0.019547687843441963;-0.010995574295520782;0.0036651913542300463
01:00:0A:00:00:00:00;1725926795;10/09/24;00:06:35;1.014;0.007;0.109;0.019547687843441963;-0.010995574295520782;0.0036651913542300463
01:00:0A:00:00:00:00;1725926796;10/09/24;00:06:36;1.013;0.006;0.109;0.019547687843441963;-0.010995574295520782;0.0036651913542300463
01:00:0A:00:00:00:00;1725926797;10/09/24;00:06:37;1.012;0.005;0.108;0.019547687843441963;-0.010995574295520782;0.0036651913542300463
01:00:0A:00:00:00:00;1725926798;10/09/24;00:06:38;1.013;0.007;0.109;0.019547687843441963;-0.010995574295520782;0.0036651913542300463
01:00:0A:00:00:00:00;1725926799;10/09/24;00:06:39;1.012;0.007;0.109;0.018325956538319588;-0.010995574295520782;0.0036651913542300463
01:00:0A:00:00:00:00;1725926800;10/09/24;00:06:40;1.012;0.007;0.108;0.018325956538319588;-0.010995574295520782;0.0036651913542300463
01:00:0A:00:00:00:00;1725926801;10/09/24;00:06:41;1.014;0.007;0.109;0.019547687843441963;-0.010995574295520782;0.0036651913542300463
01:00:0A:00:00:00:00;1725926802;10/09/24;00:06:42;1.013;0.007;0.108;0.018325956538319588;-0.010995574295520782;0.0036651913542300463
01:00:0A:00:00:00:00;1725926803;10/09/24;00:06:43;1.012;0.007;0.108;0.018325956538319588;-0.010995574295520782;0.0036651913542300463
01:00:0A:00:00:00:00;1725926804;10/09/24;00:06:44;1.013;0.007;0.109;0.018325956538319588;-0.010995574295520782;0.0036651913542300463
01:00:0A:00:00:00:00;1725926805;10/09/24;00:06:45;1.013;0.006;0.108;0.018325956538319588;-0.010995574295520782;0.0036651913542300463
01:00:0A:00:00:00:00;1725926806;10/09/24;00:06:46;1.013;0.007;0.109;0.018325956538319588;-0.010995574295520782;0.0036651913542300463
01:00:0A:00:00:00:00;1725926807;10/09/24;00:06:47;1.013;0.007;0.108;0.018325956538319588;-0.010995574295520782;0.0036651913542300463
01:00:0A:00:00:00:00;1725926808;10/09/24;00:06:48;1.013;0.007;0.108;0.01710422709584236;-0.010995574295520782;0.0036651913542300463
01:00:0A:00:00:00:00;1725926809;10/09/24;00:06:49;1.013;0.007;0.109;0.01710422709584236;-0.010995574295520782;0.004886921960860491
01:00:0A:00:00:00:00;1725926810;10/09/24;00:06:50;1.012;0.007;0.109;0.01710422709584236;-0.012217304669320583;0.0036651913542300463
01:00:0A:00:00:00:00;1725926811;10/09/24;00:06:51;1.013;0.007;0.108;0.01710422709584236;-0.010995574295520782;0.0036651913542300463
01:00:0A:00:00:00:00;1725926812;10/09/24;00:06:52;1.013;0.006;0.107;0.01710422709584236;-0.010995574295520782;0.0036651913542300463
01:00:0A:00:00:00:00;1725926813;10/09/24;00:06:53;1.013;0.008;0.109;0.01710422709584236;-0.010995574295520782;0.0036651913542300463
01:00:0A:00:00:00:00;1725926814;10/09/24;00:06:54;1.013;0.007;0.109;0.015882495790719986;-0.010995574295520782;0.0036651913542300463
01:00:0A:00:00:00:00;1725926815;10/09/24;00:06:55;1.012;0.007;0.109;0.015882495790719986;-0.010995574295520782;0.004886921960860491
01:00:0A:00:00:00:00;1725926816;10/09/24;00:06:56;1.012;0.008;0.109;0.015882495790719986;-0.010995574295520782;0.0036651913542300463
01:00:0A:00:00:00:00;1725926817;10/09/24;00:06:57;1.014;0.007;0.109;0.015882495790719986;-0.010995574295520782;0.0036651913542300463
01:00:0A:00:00:00:00;1725926818;10/09/24;00:06:58;1.012;0.007;0.109;0.015882495790719986;-0.010995574295520782;0.0036651913542300463
01:00:0A:00:00:00:00;1725926819;10/09/24;00:06:59;1.014;0.006;0.108;0.015882495790719986;-0.010995574295520782;0.0036651913542300463
01:00:0A:00:00:00:00;1725926820;10/09/24;00:07:00;1.012;0.006;0.109;0.014660765416920185;-0.010995574295520782;0.0036651913542300463
01:00:0A:00:00:00:00;1725926821;10/09/24;00:07:01;1.014;0.007;0.109;0.014660765416920185;-0.010995574295520782;0.0036651913542300463
01:00:0A:00:00:00:00;1725926822;10/09/24;00:07:02;1.013;0.006;0.109;0.014660765416920185;-0.010995574295520782;0.0036651913542300463
01:00:0A:00:00:00:00;1725926823;10/09/24;00:07:03;1.013;0.008;0.108;0.014660765416920185;-0.010995574295520782;0.0036651913542300463
01:00:0A:00:00:00:00;1725926824;10/09/24;00:07:04;1.013;0.007;0.109;0.014660765416920185;-0.010995574295520782;0.0036651913542300463
01:00:0A:00:00:00:00;1725926825;10/09/24;00:07:05;1.012;0.006;0.108;0.014660765416920185;-0.010995574295520782;0.0036651913542300463
01:00:0A:00:00:00:00;1725926826;10/09/24;00:07:06;1.012;0.007;0.108;0.014660765416920185;-0.010995574295520782;0.0036651913542300463
01:00:0A:00:00:00:00;1725926827;10/09/24;00:07:07;1.013;0.006;0.108;0.013439035043120384;-0.010995574295520782;0.0036651913542300463
01:00:0A:00:00:00:00;1725926828;10/09/24;00:07:08;1.013;0.006;0.108;0.013439035043120384;-0.010995574295520782;0.0036651913542300463
01:00:0A:00:00:00:00;1725926829;10/09/24;00:07:09;1.013;0.007;0.108;0.013439035043120384;-0.010995574295520782;0.0036651913542300463
01:00:0A:00:00:00:00;1725926830;10/09/24;00:07:10;1.012;0.006;0.109;0.013439035043120384;-0.010995574295520782;0.0036651913542300463
01:00:0A:00:00:00:00;1725926831;10/09/24;00:07:11;1.013;0.006;0.109;0.013439035043120384;-0.010995574295520782;0.0036651913542300463
01:00:0A:00:00:00:00;1725926832;10/09/24;00:07:12;1.012;0.008;0.109;0.013439035043120384;-0.010995574295520782;0.0036651913542300463
01:00:0A:00:00:00:00;1725926833;10/09/24;00:07:13;1.013;0.007;0.108;0.013439035043120384;-0.010995574295520782;0.0036651913542300463
01:00:0A:00:00:00:00;1725926834;10/09/24;00:07:14;1.013;0.006;0.108;0.013439035043120384;-0.010995574295520782;0.0036651913542300463
01:00:0A:00:00:00:00;1725926835;10/09/24;00:07:15;1.013;0.006;0.108;0.012217304669320583;-0.010995574295520782;0.0036651913542300463
01:00:0A:00:00:00:00;1725926836;10/09/24;00:07:16;1.011;0.008;0.108;0.012217304669320583;-0.010995574295520782;0.0036651913542300463
01:00:0A:00:00:00:00;1725926837;10/09/24;00:07:17;1.013;0.007;0.109;0.012217304669320583;-0.010995574295520782;0.0036651913542300463
01:00:0A:00:00:00:00;1725926838;10/09/24;00:07:18;1.012;0.007;0.108;0.012217304669320583;-0.010995574295520782;0.0036651913542300463
01:00:0A:00:00:00:00;1725926839;10/09/24;00:07:19;1.013;0.006;0.108;0.012217304669320583;-0.010995574295520782;0.0036651913542300463
01:00:0A:00:00:00:00;1725926840;10/09/24;00:07:20;1.013;0.007;0.108;0.012217304669320583;-0.010995574295520782;0.0036651913542300463
01:00:0A:00:00:00:00;1725926841;10/09/24;00:07:21;1.013;0.008;0.108;0.012217304669320583;-0.010995574295520782;0.0036651913542300463
01:00:0A:00:00:00:00;1725926842;10/09/24;00:07:22;1.012;0.008;0.109;0.012217304669320583;-0.010995574295520782;0.0036651913542300463
01:00:0A:00:00:00:00;1725926843;10/09/24;00:07:23;1.013;0.006;0.108;0.012217304669320583;-0.010995574295520782;0.0036651913542300463
01:00:0A:00:00:00:00;1725926844;10/09/24;00:07:24;1.012;0.007;0.109;0.012217304669320583;-0.010995574295520782;0.0036651913542300463
01:00:0A:00:00:00:00;1725926845;10/09/24;00:07:25;1.012;0.008;0.108;0.012217304669320583;-0.010995574295520782;0.0036651913542300463
01:00:0A:00:00:00:00;1725926846;10/09/24;00:07:26;1.011;0.006;0.108;0.012217304669320583;-0.010995574295520782;0.0036651913542300463
01:00:0A:00:00:00:00;1725926847;10/09/24;00:07:27;1.013;0.007;0.108;0.012217304669320583;-0.010995574295520782;0.0036651913542300463
01:00:0A:00:00:00:00;1725926848;10/09/24;00:07:28;1.013;0.007;0.107;0.012217304669320583;-0.010995574295520782;0.0036651913542300463
01:00:0A:00:00:00:00;1725926849;10/09/24;00:07:29;1.012;0.008;0.108;0.012217304669320583;-0.010995574295520782;0.0036651913542300463
01:00:0A:00:00:00:00;1725926850;10/09/24;00:07:30;1.013;0.007;0.107;0.012217304669320583;-0.010995574295520782;0.0036651913542300463
01:00:0A:00:00:00:00;1725926851;10/09/24;00:07:31;1.013;0.006;0.108;0.012217304669320583;-0.010995574295520782;0.0036651913542300463
01:00:0A:00:00:00:00;1725926852;10/09/24;00:07:32;1.012;0.007;0.108;0.012217304669320583;-0.010995574295520782;0.0036651913542300463
01:00:0A:00:00:00:00;1725926853;10/09/24;00:07:33;1.013;0.007;0.108;0.012217304669320583;-0.010995574295520782;0.0036651913542300463
01:00:0A:00:00:00:00;1725926854;10/09/24;00:07:34;1.012;0.007;0.108;0.012217304669320583;-0.010995574295520782;0.0036651913542300463
01:00:0A:00:00:00:00;1725926855;10/09/24;00:07:35;1.013;0.007;0.109;0.012217304669320583;-0.010995574295520782;0.0036651913542300463
01:00:0A:00:00:00:00;1725926856;10/09/24;00:07:36;1.013;0.007;0.108;0.012217304669320583;-0.010995574295520782;0.0036651913542300463
01:00:0A:00:00:00:00;1725926857;10/09/24;00:07:37;1.012;0.007;0.109;0.012217304669320583;-0.010995574295520782;0.0036651913542300463
01:00:0A:00:00:00:00;1725926858;10/09/24;00:07:38;1.011;0.007;0.108;0.012217304669320583;-0.010995574295520782;0.0036651913542300463
01:00:0A:00:00:00:00;1725926859;10/09/24;00:07:39;1.013;0.006;0.108;0.012217304669320583;-0.010995574295520782;0.0036651913542300463
01:00:0A:00:00:00:00;1725926860;10/09/24;00:07:40;1.012;0.007;0.108;0.012217304669320583;-0.010995574295520782;0.0036651913542300463
01:00:0A:00:00:00:00;1725926861;10/09/24;00:07:41;1.014;0.008;0.108;0.012217304669320583;-0.010995574295520782;0.0036651913542300463
01:00:0A:00:00:00:00;1725926862;10/09/24;00:07:42;1.013;0.008;0.107;0.012217304669320583;-0.010995574295520782;0.0036651913542300463
01:00:0A:00:00:00:00;1725926863;10/09/24;00:07:43;1.013;0.006;0.108;0.012217304669320583;-0.010995574295520782;0.0036651913542300463
01:00:0A:00:00:00:00;1725926864;10/09/24;00:07:44;1.012;0.007;0.109;0.012217304669320583;-0.010995574295520782;0.0036651913542300463
01:00:0A:00:00:00:00;1725926865;10/09/24;00:07:45;1.013;0.007;0.108;0.012217304669320583;-0.010995574295520782;0.0036651913542300463
01:00:0A:00:00:00:00;1725926866;10/09/24;00:07:46;1.012;0.006;0.108;0.012217304669320583;-0.010995574295520782;0.0036651913542300463
01:00:0A:00:00:00:00;1725926867;10/09/24;00:07:47;1.012;0.007;0.107;0.012217304669320583;-0.010995574295520782;0.0036651913542300463
01:00:0A:00:00:00:00;1725926868;10/09/24;00:07:48;1.013;0.007;0.108;0.012217304669320583;-0.010995574295520782;0.0036651913542300463
01:00:0A:00:00:00:00;1725926869;10/09/24;00:07:49;1.013;0.007;0.108;0.012217304669320583;-0.010995574295520782;0.0036651913542300463
01:00:0A:00:00:00:00;1725926870;10/09/24;00:07:50;1.012;0.006;0.108;0.012217304669320583;-0.010995574295520782;0.0036651913542300463
01:00:0A:00:00:00:00;1725926871;10/09/24;00:07:51;1.013;0.008;0.108;0.012217304669320583;-0.010995574295520782;0.0036651913542300463
01:00:0A:00:00:00:00;1725926872;10/09/24;00:07:52;1.013;0.006;0.108;0.012217304669320583;-0.010995574295520782;0.0036651913542300463
01:00:0A:00:00:00:00;1725926873;10/09/24;00:07:53;1.013;0.007;0.108;0.012217304669320583;-0.010995574295520782;0.0036651913542300463
01:00:0A:00:00:00:00;1725926874;10/09/24;00:07:54;1.012;0.007;0.108;0.012217304669320583;-0.010995574295520782;0.0036651913542300463
01:00:0A:00:00:00:00;1725926875;10/09/24;00:07:55;1.013;0.007;0.108;0.012217304669320583;-0.010995574295520782;0.0036651913542300463
01:00:0A:00:00:00:00;1725926876;10/09/24;00:07:56;1.014;0.007;0.108;0.012217304669320583;-0.010995574295520782;0.0036651913542300463
01:00:0A:00:00:00:00;1725926877;10/09/24;00:07:57;1.012;0.006;0.109;0.012217304669320583;-0.010995574295520782;0.0036651913542300463
01:00:0A:00:00:00:00;1725926878;10/09/24;00:07:58;1.013;0.006;0.108;0.012217304669320583;-0.010995574295520782;0.0036651913542300463
01:00:0A:00:00:00:00;1725926879;10/09/24;00:07:59;1.013;0.007;0.108;0.012217304669320583;-0.010995574295520782;0.0036651913542300463
01:00:0A:00:00:00:00;1725926880;10/09/24;00:08:00;1.011;0.006;0.109;0.012217304669320583;-0.010995574295520782;0.0036651913542300463
01:00:0A:00:00:00:00;1725926881;10/09/24;00:08:01;1.012;0.007;0.108;0.012217304669320583;-0.010995574295520782;0.0036651913542300463
01:00:0A:00:00:00:00;1725926882;10/09/24;00:08:02;1.012;0.007;0.109;0.012217304669320583;-0.010995574295520782;0.0036651913542300463
01:00:0A:00:00:00:00;1725926883;10/09/24;00:08:03;1.012;0.007;0.108;0.012217304669320583;-0.010995574295520782;0.0036651913542300463
01:00:0A:00:00:00:00;1725926884;10/09/24;00:08:04;1.013;0.007;0.109;0.012217304669320583;-0.010995574295520782;0.0036651913542300463
01:00:0A:00:00:00:00;1725926885;10/09/24;00:08:05;1.013;0.007;0.107;0.012217304669320583;-0.010995574295520782;0.0036651913542300463
01:00:0A:00:00:00:00;1725926886;10/09/24;00:08:06;1.013;0.006;0.108;0.012217304669320583;-0.010995574295520782;0.0036651913542300463
01:00:0A:00:00:00:00;1725926887;10/09/24;00:08:07;1.013;0.007;0.108;0.012217304669320583;-0.010995574295520782;0.0036651913542300463
01:00:0A:00:00:00:00;1725926888;10/09/24;00:08:08;1.013;0.006;0.108;0.012217304669320583;-0.010995574295520782;0.0036651913542300463
01:00:0A:00:00:00:00;1725926889;10/09/24;00:08:09;1.013;0.006;0.108;0.012217304669320583;-0.010995574295520782;0.0036651913542300463
01:00:0A:00:00:00:00;1725926890;10/09/24;00:08:10;1.012;0.006;0.107;0.012217304669320583;-0.010995574295520782;0.0036651913542300463
01:00:0A:00:00:00:00;1725926891;10/09/24;00:08:11;1.012;0.007;0.108;0.012217304669320583;-0.010995574295520782;0.0036651913542300463
01:00:0A:00:00:00:00;1725926892;10/09/24;00:08:12;1.013;0.007;0.107;0.012217304669320583;-0.010995574295520782;0.0036651913542300463
01:00:0A:00:00:00:00;1725926893;10/09/24;00:08:13;1.012;0.008;0.108;0.012217304669320583;-0.010995574295520782;0.0036651913542300463
01:00:0A:00:00:00:00;1725926894;10/09/24;00:08:14;1.012;0.008;0.108;0.012217304669320583;-0.010995574295520782;0.0036651913542300463
01:00:0A:00:00:00:00;1725926895;10/09/24;00:08:15;1.013;0.007;0.108;0.012217304669320583;-0.010995574295520782;0.0036651913542300463
01:00:0A:00:00:00:00;1725926896;10/09/24;00:08:16;1.012;0.005;0.108;0.012217304669320583;-0.010995574295520782;0.0036651913542300463
01:00:0A:00:00:00:00;1725926897;10/09/24;00:08:17;1.012;0.007;0.108;0.012217304669320583;-0.010995574295520782;0.0036651913542300463
01:00:0A:00:00:00:00;1725926898;10/09/24;00:08:18;1.013;0.007;0.108;0.012217304669320583;-0.010995574295520782;0.0036651913542300463
01:00:0A:00:00:00:00;1725926899;10/09/24;00:08:19;1.013;0.007;0.108;0.012217304669320583;-0.010995574295520782;0.0036651913542300463
01:00:0A:00:00:00:00;1725926900;10/09/24;00:08:20;1.012;0.007;0.108;0.012217304669320583;-0.010995574295520782;0.0036651913542300463
01:00:0A:00:00:00:00;1725926901;10/09/24;00:08:21;1.012;0.008;0.108;0.013439035043120384;-0.010995574295520782;0.0036651913542300463
01:00:0A:00:00:00:00;1725926902;10/09/24;00:08:22;1.013;0.007;0.109;0.013439035043120384;-0.010995574295520782;0.0036651913542300463
01:00:0A:00:00:00:00;1725926903;10/09/24;00:08:23;1.012;0.007;0.108;0.012217304669320583;-0.010995574295520782;0.0036651913542300463
01:00:0A:00:00:00:00;1725926904;10/09/24;00:08:24;1.013;0.006;0.107;0.013439035043120384;-0.010995574295520782;0.0036651913542300463
01:00:0A:00:00:00:00;1725926905;10/09/24;00:08:25;1.013;0.007;0.108;0.013439035043120384;-0.010995574295520782;0.0036651913542300463
01:00:0A:00:00:00:00;1725926906;10/09/24;00:08:26;1.014;0.008;0.108;0.013439035043120384;-0.010995574295520782;0.0036651913542300463
01:00:0A:00:00:00:00;1725926907;10/09/24;00:08:27;1.012;0.007;0.108;0.013439035043120384;-0.010995574295520782;0.0036651913542300463
01:00:0A:00:00:00:00;1725926908;10/09/24;00:08:28;1.013;0.006;0.108;0.013439035043120384;-0.010995574295520782;0.0036651913542300463
01:00:0A:00:00:00:00;1725926909;10/09/24;00:08:29;1.012;0.007;0.109;0.013439035043120384;-0.010995574295520782;0.0036651913542300463
01:00:0A:00:00:00:00;1725926910;10/09/24;00:08:30;1.013;0.007;0.108;0.013439035043120384;-0.010995574295520782;0.0036651913542300463
01:00:0A:00:00:00:00;1725926911;10/09/24;00:08:31;1.013;0.007;0.108;0.013439035043120384;-0.010995574295520782;0.0036651913542300463
01:00:0A:00:00:00:00;1725926912;10/09/24;00:08:32;1.012;0.007;0.109;0.013439035043120384;-0.010995574295520782;0.0036651913542300463
01:00:0A:00:00:00:00;1725926913;10/09/24;00:08:33;1.013;0.007;0.108;0.013439035043120384;-0.010995574295520782;0.0036651913542300463
01:00:0A:00:00:00:00;1725926914;10/09/24;00:08:34;1.013;0.005;0.108;0.013439035043120384;-0.010995574295520782;0.0036651913542300463
01:00:0A:00:00:00:00;1725926915;10/09/24;00:08:35;1.013;0.006;0.108;0.013439035043120384;-0.010995574295520782;0.0036651913542300463
01:00:0A:00:00:00:00;1725926916;10/09/24;00:08:36;1.013;0.006;0.108;0.013439035043120384;-0.010995574295520782;0.0036651913542300463
01:00:0A:00:00:00:00;1725926917;10/09/24;00:08:37;1.012;0.007;0.108;0.013439035043120384;-0.010995574295520782;0.0036651913542300463
01:00:0A:00:00:00:00;1725926918;10/09/24;00:08:38;1.012;0.008;0.108;0.013439035043120384;-0.010995574295520782;0.0036651913542300463
01:00:0A:00:00:00:00;1725926919;10/09/24;00:08:39;1.013;0.008;0.109;0.013439035043120384;-0.010995574295520782;0.0036651913542300463
01:00:0A:00:00:00:00;1725926920;10/09/24;00:08:40;1.013;0.008;0.107;0.013439035043120384;-0.010995574295520782;0.0036651913542300463
01:00:0A:00:00:00:00;1725926921;10/09/24;00:08:41;1.013;0.007;0.106;0.013439035043120384;-0.010995574295520782;0.0036651913542300463
01:00:0A:00:00:00:00;1725926922;10/09/24;00:08:42;1.012;0.006;0.107;0.013439035043120384;-0.010995574295520782;0.0036651913542300463
01:00:0A:00:00:00:00;1725926923;10/09/24;00:08:43;1.012;0.006;0.107;0.014660765416920185;-0.010995574295520782;0.0036651913542300463
01:00:0A:00:00:00:00;1725926924;10/09/24;00:08:44;1.014;0.008;0.107;0.013439035043120384;-0.010995574295520782;0.0036651913542300463
01:00:0A:00:00:00:00;1725926925;10/09/24;00:08:45;1.014;0.007;0.108;0.013439035043120384;-0.010995574295520782;0.0036651913542300463
01:00:0A:00:00:00:00;1725926926;10/09/24;00:08:46;1.013;0.008;0.107;0.014660765416920185;-0.010995574295520782;0.0036651913542300463
01:00:0A:00:00:00:00;1725926927;10/09/24;00:08:47;1.012;0.006;0.108;0.014660765416920185;-0.010995574295520782;0.0036651913542300463
01:00:0A:00:00:00:00;1725926928;10/09/24;00:08:48;1.013;0.006;0.108;0.014660765416920185;-0.010995574295520782;0.0036651913542300463
01:00:0A:00:00:00:00;1725926929;10/09/24;00:08:49;1.013;0.007;0.108;0.014660765416920185;-0.010995574295520782;0.0036651913542300463
01:00:0A:00:00:00:00;1725926930;10/09/24;00:08:50;1.011;0.007;0.109;0.014660765416920185;-0.010995574295520782;0.0036651913542300463
01:00:0A:00:00:00:00;1725926931;10/09/24;00:08:51;1.012;0.006;0.107;0.014660765416920185;-0.010995574295520782;0.0036651913542300463
01:00:0A:00:00:00:00;1725926932;10/09/24;00:08:52;1.013;0.008;0.109;0.014660765416920185;-0.010995574295520782;0.0036651913542300463
01:00:0A:00:00:00:00;1725926933;10/09/24;00:08:53;1.013;0.007;0.108;0.014660765416920185;-0.010995574295520782;0.0036651913542300463
01:00:0A:00:00:00:00;1725926934;10/09/24;00:08:54;1.013;0.007;0.108;0.014660765416920185;-0.010995574295520782;0.0036651913542300463
01:00:0A:00:00:00:00;1725926935;10/09/24;00:08:55;1.013;0.007;0.108;0.014660765416920185;-0.010995574295520782;0.0036651913542300463
01:00:0A:00:00:00:00;1725926936;10/09/24;00:08:56;1.013;0.006;0.108;0.015882495790719986;-0.010995574295520782;0.0036651913542300463
01:00:0A:00:00:00:00;1725926937;10/09/24;00:08:57;1.012;0.007;0.107;0.014660765416920185;-0.010995574295520782;0.0036651913542300463
01:00:0A:00:00:00:00;1725926938;10/09/24;00:08:58;1.013;0.007;0.107;0.015882495790719986;-0.010995574295520782;0.0036651913542300463
01:00:0A:00:00:00:00;1725926939;10/09/24;00:08:59;1.012;0.007;0.107;0.015882495790719986;-0.010995574295520782;0.0036651913542300463
01:00:0A:00:00:00:00;1725926940;10/09/24;00:09:00;1.014;0.007;0.109;0.015882495790719986;-0.010995574295520782;0.0036651913542300463
01:00:0A:00:00:00:00;1725926941;10/09/24;00:09:01;1.014;0.007;0.108;0.015882495790719986;-0.010995574295520782;0.0036651913542300463
01:00:0A:00:00:00:00;1725926942;10/09/24;00:09:02;1.013;0.007;0.108;0.015882495790719986;-0.010995574295520782;0.0036651913542300463
01:00:0A:00:00:00:00;1725926943;10/09/24;00:09:03;1.012;0.007;0.108;0.015882495790719986;-0.010995574295520782;0.0036651913542300463
01:00:0A:00:00:00:00;1725926944;10/09/24;00:09:04;1.013;0.007;0.108;0.015882495790719986;-0.010995574295520782;0.0036651913542300463
01:00:0A:00:00:00:00;1725926945;10/09/24;00:09:05;1.013;0.008;0.108;0.015882495790719986;-0.010995574295520782;0.0036651913542300463
01:00:0A:00:00:00:00;1725926946;10/09/24;00:09:06;1.013;0.007;0.108;0.015882495790719986;-0.010995574295520782;0.0036651913542300463
01:00:0A:00:00:00:00;1725926947;10/09/24;00:09:07;1.012;0.007;0.108;0.015882495790719986;-0.010995574295520782;0.0036651913542300463
01:00:0A:00:00:00:00;1725926948;10/09/24;00:09:08;1.013;0.006;0.108;0.015882495790719986;-0.010995574295520782;0.0036651913542300463
01:00:0A:00:00:00:00;1725926949;10/09/24;00:09:09;1.013;0.007;0.108;0.015882495790719986;-0.010995574295520782;0.0036651913542300463
01:00:0A:00:00:00:00;1725926950;10/09/24;00:09:10;1.013;0.007;0.107;0.015882495790719986;-0.010995574295520782;0.0036651913542300463
01:00:0A:00:00:00:00;1725926951;10/09/24;00:09:11;1.012;0.007;0.108;0.015882495790719986;-0.010995574295520782;0.0036651913542300463
01:00:0A:00:00:00:00;1725926952;10/09/24;00:09:12;1.014;0.007;0.109;0.015882495790719986;-0.010995574295520782;0.0036651913542300463
01:00:0A:00:00:00:00;1725926953;10/09/24;00:09:13;1.013;0.006;0.108;0.015882495790719986;-0.010995574295520782;0.0036651913542300463
01:00:0A:00:00:00:00;1725926954;10/09/24;00:09:14;1.012;0.007;0.108;0.015882495790719986;-0.010995574295520782;0.0036651913542300463
01:00:0A:00:00:00:00;1725926955;10/09/24;00:09:15;1.013;0.008;0.107;0.015882495790719986;-0.010995574295520782;0.0036651913542300463
01:00:0A:00:00:00:00;1725926956;10/09/24;00:09:16;1.013;0.007;0.108;0.015882495790719986;-0.010995574295520782;0.0036651913542300463
01:00:0A:00:00:00:00;1725926957;10/09/24;00:09:17;1.013;0.006;0.108;0.015882495790719986;-0.010995574295520782;0.0036651913542300463
01:00:0A:00:00:00:00;1725926958;10/09/24;00:09:18;1.012;0.007;0.109;0.015882495790719986;-0.010995574295520782;0.0036651913542300463
01:00:0A:00:00:00:00;1725926959;10/09/24;00:09:19;1.013;0.006;0.108;0.015882495790719986;-0.010995574295520782;0.0036651913542300463
01:00:0A:00:00:00:00;1725926960;10/09/24;00:09:20;1.013;0.007;0.107;0.015882495790719986;-0.010995574295520782;0.0036651913542300463
01:00:0A:00:00:00:00;1725926961;10/09/24;00:09:21;1.013;0.007;0.108;0.015882495790719986;-0.010995574295520782;0.0036651913542300463
01:00:0A:00:00:00:00;1725926962;10/09/24;00:09:22;1.013;0.006;0.108;0.015882495790719986;-0.010995574295520782;0.0036651913542300463
01:00:0A:00:00:00:00;1725926963;10/09/24;00:09:23;1.012;0.006;0.108;0.015882495790719986;-0.010995574295520782;0.0036651913542300463
01:00:0A:00:00:00:00;1725926964;10/09/24;00:09:24;1.013;0.006;0.108;0.015882495790719986;-0.010995574295520782;0.0036651913542300463
01:00:0A:00:00:00:00;1725926965;10/09/24;00:09:25;1.013;0.008;0.109;0.01710422709584236;-0.010995574295520782;0.0036651913542300463
01:00:0A:00:00:00:00;1725926966;10/09/24;00:09:26;1.012;0.007;0.108;0.01710422709584236;-0.010995574295520782;0.0036651913542300463
01:00:0A:00:00:00:00;1725926967;10/09/24;00:09:27;1.013;0.007;0.107;0.01710422709584236;-0.010995574295520782;0.004886921960860491
01:00:0A:00:00:00:00;1725926968;10/09/24;00:09:28;1.012;0.008;0.109;0.01710422709584236;-0.010995574295520782;0.004886921960860491
01:00:0A:00:00:00:00;1725926969;10/09/24;00:09:29;1.013;0.007;0.108;0.01710422709584236;-0.010995574295520782;0.0036651913542300463
01:00:0A:00:00:00:00;1725926970;10/09/24;00:09:30;1.012;0.006;0.107;0.01710422709584236;-0.010995574295520782;0.0036651913542300463
01:00:0A:00:00:00:00;1725926971;10/09/24;00:09:31;1.013;0.007;0.109;0.01710422709584236;-0.010995574295520782;0.004886921960860491
01:00:0A:00:00:00:00;1725926972;10/09/24;00:09:32;1.013;0.006;0.108;0.01710422709584236;-0.010995574295520782;0.0036651913542300463
01:00:0A:00:00:00:00;1725926973;10/09/24;00:09:33;1.013;0.006;0.108;0.01710422709584236;-0.010995574295520782;0.0036651913542300463
01:00:0A:00:00:00:00;1725926974;10/09/24;00:09:34;1.013;0.007;0.108;0.01710422709584236;-0.010995574295520782;0.0036651913542300463
01:00:0A:00:00:00:00;1725926975;10/09/24;00:09:35;1.012;0.006;0.108;0.01710422709584236;-0.010995574295520782;0.0036651913542300463
01:00:0A:00:00:00:00;1725926976;10/09/24;00:09:36;1.013;0.007;0.109;0.01710422709584236;-0.010995574295520782;0.0036651913542300463
01:00:0A:00:00:00:00;1725926977;10/09/24;00:09:37;1.013;0.006;0.108;0.01710422709584236;-0.010995574295520782;0.004886921960860491
01:00:0A:00:00:00:00;1725926978;10/09/24;00:09:38;1.012;0.006;0.108;0.01710422709584236;-0.010995574295520782;0.0036651913542300463
01:00:0A:00:00:00:00;1725926979;10/09/24;00:09:39;1.014;0.006;0.107;0.018325956538319588;-0.010995574295520782;0.0036651913542300463
01:00:0A:00:00:00:00;1725926980;10/09/24;00:09:40;1.013;0.006;0.108;0.018325956538319588;-0.010995574295520782;0.0036651913542300463
01:00:0A:00:00:00:00;1725926981;10/09/24;00:09:41;1.013;0.007;0.107;0.01710422709584236;-0.010995574295520782;0.0036651913542300463
01:00:0A:00:00:00:00;1725926982;10/09/24;00:09:42;1.012;0.007;0.109;0.018325956538319588;-0.010995574295520782;0.004886921960860491
01:00:0A:00:00:00:00;1725926983;10/09/24;00:09:43;1.012;0.008;0.109;0.018325956538319588;-0.010995574295520782;0.0036651913542300463
01:00:0A:00:00:00:00;1725926984;10/09/24;00:09:44;1.013;0.007;0.108;0.018325956538319588;-0.010995574295520782;0.0036651913542300463
01:00:0A:00:00:00:00;1725926985;10/09/24;00:09:45;1.014;0.008;0.108;0.01710422709584236;-0.010995574295520782;0.0036651913542300463
01:00:0A:00:00:00:00;1725926986;10/09/24;00:09:46;1.012;0.007;0.108;0.01710422709584236;-0.010995574295520782;0.0036651913542300463
01:00:0A:00:00:00:00;1725926987;10/09/24;00:09:47;1.014;0.006;0.108;0.018325956538319588;-0.010995574295520782;0.0036651913542300463
01:00:0A:00:00:00:00;1725926988;10/09/24;00:09:48;1.013;0.006;0.109;0.01710422709584236;-0.010995574295520782;0.0036651913542300463
01:00:0A:00:00:00:00;1725926989;10/09/24;00:09:49;1.012;0.008;0.109;0.01710422709584236;-0.010995574295520782;0.0036651913542300463
01:00:0A:00:00:00:00;1725926990;10/09/24;00:09:50;1.014;0.007;0.108;0.01710422709584236;-0.010995574295520782;0.0036651913542300463
01:00:0A:00:00:00:00;1725926991;10/09/24;00:09:51;1.014;0.006;0.108;0.01710422709584236;-0.010995574295520782;0.0036651913542300463
01:00:0A:00:00:00:00;1725926992;10/09/24;00:09:52;1.013;0.008;0.107;0.01710422709584236;-0.010995574295520782;0.0036651913542300463
01:00:0A:00:00:00:00;1725926993;10/09/24;00:09:53;1.013;0.007;0.108;0.01710422709584236;-0.010995574295520782;0.0036651913542300463
01:00:0A:00:00:00:00;1725926994;10/09/24;00:09:54;1.014;0.007;0.109;0.01710422709584236;-0.010995574295520782;0.0036651913542300463
01:00:0A:00:00:00:00;1725926995;10/09/24;00:09:55;1.013;0.007;0.109;0.01710422709584236;-0.010995574295520782;0.0036651913542300463
01:00:0A:00:00:00:00;1725926996;10/09/24;00:09:56;1.012;0.007;0.108;0.01710422709584236;-0.010995574295520782;0.0036651913542300463
01:00:0A:00:00:00:00;1725926997;10/09/24;00:09:57;1.013;0.007;0.109;0.01710422709584236;-0.010995574295520782;0.004886921960860491
01:00:0A:00:00:00:00;1725926998;10/09/24;00:09:58;1.013;0.007;0.109;0.01710422709584236;-0.010995574295520782;0.0036651913542300463
01:00:0A:00:00:00:00;1725926999;10/09/24;00:09:59;0.997;0.026;0.09;0.014660765416920185;-0.039095375686883926;-0.05253440886735916
01:00:0A:00:00:00:00;1725927000;10/09/24;00:10:00;0.954;0.077;0.076;-0.02932153083384037;-0.251676470041275;-0.0757472887635231
01:00:0A:00:00:00:00;1725927001;10/09/24;00:10:01;0.93;-0.279;0.21;-0.03787364438176155;0.3885102868080139;0.48380526900291443
01:00:0A:00:00:00:00;1725927002;10/09/24;00:10:02;0.776;-0.175;0.491;0.6902776956558228;-0.8100073337554932;-0.6499606370925903
01:00:0A:00:00:00:00;1725927003;10/09/24;00:10:03;0.778;0.777;-0.045;0.36163222789764404;0.2382374405860901;-0.7110471129417419
01:00:0A:00:00:00:00;1725927004;10/09/24;00:10:04;0.909;-0.096;0.403;-0.45326200127601624;0.5387831330299377;1.0763444900512695
01:00:0A:00:00:00:00;1725927005;10/09/24;00:10:05;0.986;0.03;0.102;0.22846359014511108;-0.7550294399261475;-0.3384193480014801
01:00:0A:00:00:00:00;1725927006;10/09/24;00:10:06;0.976;-0.106;0.292;0.010995574295520782;0.0708603635430336;0.40683624148368835
01:00:0A:00:00:00:00;1725927007;10/09/24;00:10:07;0.813;-0.497;-0.29;-0.009773843921720982;-0.6377432942390442;0.018325956538319588
01:00:0A:00:00:00:00;1725927008;10/09/24;00:10:08;0.715;0.507;0.274;-2.8075366020202637;-0.20647244155406952;-0.0036651913542300463
01:00:0A:00:00:00:00;1725927009;10/09/24;00:10:09;0.838;-0.36;-0.294;-1.5845844745635986;-1.310916781425476;-0.4960225820541382
01:00:0A:00:00:00:00;1725927010;10/09/24;00:10:10;0.925;0.314;0.006;-1.7324137687683105;0.3628539443016052;0.46303585171699524
01:00:0A:00:00:00:00;1725927011;10/09/24;00:10:11;0.988;0.09;-0.147;-1.379333734512329;-0.2822197377681732;-0.17959438264369965
01:00:0A:00:00:00:00;1725927012;10/09/24;00:10:12;1.094;-0.081;-0.098;-1.441641926765442;-0.24190263450145721;0.8136724829673767
01:00:0A:00:00:00:00;1725927013;10/09/24;00:10:13;1.007;-0.26;-0.119;-1.0225883722305298;-0.10018189996480942;-0.0659734457731247
01:00:0A:00:00:00:00;1725927014;10/09/24;00:10:14;0.468;-0.453;0.976;-1.166752576828003;1.3096951246261597;0.7696901559829712
01:00:0A:00:00:00:00;1725927015;10/09/24;00:10:15;0.655;-0.161;0.779;0.13072516024112701;0.04764748737215996;-0.36163222789764404
01:00:0A:00:00:00:00;1725927016;10/09/24;00:10:16;0.816;-0.283;0.494;0.7330382466316223;-1.1227703094482422;0.39706242084503174
01:00:0A:00:00:00:00;1725927017;10/09/24;00:10:17;0.978;-0.152;0.0;1.3023645877838135;-0.5082398653030396;-0.31154125928878784
01:00:0A:00:00:00:00;1725927018;10/09/24;00:10:18;1.014;-0.079;0.298;1.350012183189392;-0.19914205372333527;0.06352998316287994
01:00:0A:00:00:00:00;1725927019;10/09/24;00:10:19;0.957;-0.297;0.263;1.5027284622192383;-0.44226640462875366;0.46792274713516235
01:00:0A:00:00:00:00;1725927020;10/09/24;00:10:20;0.495;-0.976;-0.425;0.10751228034496307;-1.969429612159729;0.9663888216018677
01:00:0A:00:00:00:00;1725927021;10/09/24;00:10:21;0.79;-0.461;0.492;1.5870277881622314;0.20647244155406952;-1.3158037662506104
01:00:0A:00:00:00:00;1725927022;10/09/24;00:10:22;0.905;0.473;-0.029;0.9040805697441101;-0.4202752709388733;0.46181410551071167
01:00:0A:00:00:00:00;1725927023;10/09/24;00:10:23;1.006;-0.319;0.149;0.5497786998748779;0.45326200127601624;-0.1417207270860672
01:00:0A:00:00:00:00;1725927024;10/09/24;00:10:24;1.01;0.285;0.239;0.5143485069274902;-0.3787364363670349;-0.036651913076639175
01:00:0A:00:00:00:00;1725927025;10/09/24;00:10:25;1.02;-0.183;-0.216;0.34208452701568604;0.08552113175392151;0.19792033731937408
01:00:0A:00:00:00:00;1725927026;10/09/24;00:10:26;0.939;0.18;0.355;0.436157763004303;0.45814892649650574;-0.45204028487205505
01:00:0A:00:00:00:00;1725927027;10/09/24;00:10:27;0.912;-0.272;0.391;0.2993239760398865;-0.009773843921720982;0.7550294399261475
01:00:0A:00:00:00:00;1725927028;10/09/24;00:10:28;0.912;-0.424;0.339;0.862541675567627;-0.16982054710388184;-0.3066543638706207
01:00:0A:00:00:00:00;1725927029;10/09/24;00:10:29;0.935;-0.263;0.445;1.5320500135421753;0.2223549485206604;0.20525071024894714
01:00:0A:00:00:00:00;1725927030;10/09/24;00:10:30;0.99;0.077;0.135;1.6481143236160278;-0.23457224667072296;0.25534167885780334
01:00:0A:00:00:00:00;1725927031;10/09/24;00:10:31;1.0;-0.154;0.17;1.3072515726089478;0.2076941877603531;0.2785545289516449
01:00:0A:00:00:00:00;1725927032;10/09/24;00:10:32;0.958;0.149;0.199;1.0299187898635864;-0.039095375686883926;0.34208452701568604
01:00:0A:00:00:00:00;1725927033;10/09/24;00:10:33;0.982;-0.15;0.2;0.7452555894851685;0.161268413066864;0.6108652353286743
01:00:0A:00:00:00:00;1725927034;10/09/24;00:10:34;1.001;0.096;-0.146;0.7183775305747986;-0.43249258399009705;-0.24434609711170197
01:00:0A:00:00:00:00;1725927035;10/09/24;00:10:35;0.953;0.041;0.112;0.36529743671417236;0.7342600226402283;-0.10506881773471832
01:00:0A:00:00:00:00;1725927036;10/09/24;00:10:36;0.845;-0.082;0.269;0.2590068578720093;0.11728612333536148;0.1111774742603302
01:00:0A:00:00:00:00;1725927037;10/09/24;00:10:37;0.928;-0.162;0.087;0.2919935882091522;0.12095131725072861;0.024434609338641167
01:00:0A:00:00:00:00;1725927038;10/09/24;00:10:38;0.923;0.356;-0.011;0.10873401165008545;-0.587652325630188;-0.6902776956558228
01:00:0A:00:00:00:00;1725927039;10/09/24;00:10:39;0.817;0.569;-0.14;-0.6609562039375305;-0.3286454975605011;-0.22357667982578278
01:00:0A:00:00:00:00;1725927040;10/09/24;00:10:40;1.024;-0.096;-0.096;-0.8833111524581909;-0.21502456068992615;0.6291911602020264
01:00:0A:00:00:00:00;1725927041;10/09/24;00:10:41;0.958;-0.207;0.199;-0.4483751058578491;0.33719760179519653;-0.19425514340400696
01:00:0A:00:00:00:00;1725927042;10/09/24;00:10:42;0.943;0.122;0.222;-0.35552355647087097;-0.08185594528913498;-0.018325956538319588
01:00:0A:00:00:00:00;1725927043;10/09/24;00:10:43;0.823;0.023;-0.576;0.1673770695924759;-2.0989327430725098;-0.4948008358478546
01:00:0A:00:00:00:00;1725927044;10/09/24;00:10:44;0.776;0.037;-0.309;0.4960225820541382;0.2382374405860901;0.0012217304902151227
01:00:0A:00:00:00:00;1725927045;10/09/24;00:10:45;0.905;-0.185;-0.084;-0.6316346526145935;-0.8881980776786804;0.009773843921720982
01:00:0A:00:00:00:00;1725927046;10/09/24;00:10:46;0.97;-0.032;0.045;-1.225395679473877;1.0286970138549805;0.45692718029022217
01:00:0A:00:00:00:00;1725927047;10/09/24;00:10:47;1.029;-0.044;-0.238;-1.0848965644836426;0.5925393104553223;1.3939944505691528
01:00:0A:00:00:00:00;1725927048;10/09/24;00:10:48;0.885;0.299;0.092;-0.5974262356758118;-2.2369885444641113;-0.8063421249389648
01:00:0A:00:00:00:00;1725927049;10/09/24;00:10:49;0.834;0.254;-0.612;-1.4868459701538086;-0.6084217429161072;1.1301007270812988
01:00:0A:00:00:00:00;1725927050;10/09/24;00:10:50;0.98;0.081;-0.199;-2.669481039047241;0.5192354917526245;0.807563841342926
01:00:0A:00:00:00:00;1725927051;10/09/24;00:10:51;0.987;0.138;-0.158;-2.6792547702789307;0.4141666293144226;-0.41783180832862854
01:00:0A:00:00:00:00;1725927052;10/09/24;00:10:52;0.787;-0.568;0.378;-1.7153096199035645;-0.2626720666885376;0.03787364438176155
01:00:0A:00:00:00:00;1725927053;10/09/24;00:10:53;0.975;0.345;-0.106;-1.3390165567398071;0.11850785464048386;-0.46547931432724
01:00:0A:00:00:00:00;1725927054;10/09/24;00:10:54;1.03;-0.052;0.001;-1.3316861391067505;-0.49724429845809937;0.322536826133728
01:00:0A:00:00:00:00;1725927055;10/09/24;00:10:55;0.997;0.14;-0.194;-1.3646730184555054;0.0708603635430336;0.014660765416920185
01:00:0A:00:00:00:00;1725927056;10/09/24;00:10:56;0.976;-0.014;0.025;-0.5070181488990784;-0.45814892649650574;-1.3158037662506104
01:00:0A:00:00:00:00;1725927057;10/09/24;00:10:57;0.873;0.194;0.467;-1.1117748022079468;-0.5009095072746277;0.6768386960029602
01:00:0A:00:00:00:00;1725927058;10/09/24;00:10:58;1.053;-0.201;-0.094;-0.7428121566772461;0.08552113175392151;-0.2626720666885376
01:00:0A:00:00:00:00;1725927059;10/09/24;00:10:59;0.924;-0.052;0.021;-0.6352998614311218;-0.978606104850769;1.1032226085662842
01:00:0A:00:00:00:00;1725927060;10/09/24;00:11:00;0.963;0.039;0.254;-0.7550294399261475;0.8234463334083557;-1.53693687915802
01:00:0A:00:00:00:00;1725927061;10/09/24;00:11:01;0.938;0.182;0.385;-0.8234463334083557;-0.07208210229873657;0.03176499158143997
01:00:0A:00:00:00:00;1725927062;10/09/24;00:11:02;0.937;-0.053;0.09;-0.4202752709388733;-1.1472049951553345;-1.6114624738693237
01:00:0A:00:00:00:00;1725927063;10/09/24;00:11:03;0.972;0.235;0.258;-1.056796908378601;0.1466076523065567;1.1814132928848267
01:00:0A:00:00:00:00;1725927064;10/09/24;00:11:04;0.903;-0.215;-0.225;-0.862541675567627;0.06475171446800232;-0.5155702233314514
01:00:0A:00:00:00:00;1725927065;10/09/24;00:11:05;0.96;0.065;0.393;-1.0726792812347412;0.322536826133728;0.04153883829712868
01:00:0A:00:00:00:00;1725927066;10/09/24;00:11:06;1.019;-0.107;0.341;-0.5668829083442688;-0.6768386960029602;-0.1514945775270462
01:00:0A:00:00:00:00;1725927067;10/09/24;00:11:07;1.017;0.036;-0.136;-0.2174680233001709;-0.019547687843441963;-0.4288274049758911
01:00:0A:00:00:00:00;1725927068;10/09/24;00:11:08;0.709;0.608;-0.04;0.010995574295520782;0.1417207270860672;-0.1514945775270462
01:00:0A:00:00:00:00;1725927069;10/09/24;00:11:09;0.922;-0.611;0.021;-0.38728854060173035;-0.5693264007568359;1.2009611129760742
01:00:0A:00:00:00:00;1725927070;10/09/24;00:11:10;1.007;0.462;0.076;0.07330382615327835;0.436157763004303;-0.5412266254425049
01:00:0A:00:00:00:00;1725927071;10/09/24;00:11:11;1.03;-0.282;-0.114;0.5632177591323853;0.9773843884468079;1.0934487581253052
01:00:0A:00:00:00:00;1725927072;10/09/24;00:11:12;1.021;0.007;0.362;0.9749408960342407;-0.251676470041275;-0.004886921960860491
01:00:0A:00:00:00:00;1725927073;10/09/24;00:11:13;0.544;0.422;-0.582;-0.19303341209888458;0.5204571485519409;0.8772024512290955
01:00:0A:00:00:00:00;1725927074;10/09/24;00:11:14;1.0;-0.165;0.08;-1.2388347387313843;0.30543261766433716;1.6982053518295288
01:00:0A:00:00:00:00;1725927075;10/09/24;00:11:15;0.956;-0.325;0.005;-0.39828410744667053;0.3066543638706207;-0.5607742667198181
01:00:0A:00:00:00:00;1725927076;10/09/24;00:11:16;0.887;0.284;0.364;-0.22602014243602753;0.08552113175392151;0.019547687843441963
01:00:0A:00:00:00:00;1725927077;10/09/24;00:11:17;0.761;0.667;-0.071;0.3298672139644623;-1.1899654865264893;-1.3854423761367798
01:00:0A:00:00:00:00;1725927078;10/09/24;00:11:18;0.935;-0.478;0.003;-0.3836233615875244;0.5412266254425049;0.8881980776786804
01:00:0A:00:00:00:00;1725927079;10/09/24;00:11:19;0.95;0.514;0.152;-0.2541199326515198;0.10506881773471832;-0.2687807083129883
01:00:0A:00:00:00:00;1725927080;10/09/24;00:11:20;0.612;-0.838;0.284;-0.6230825185775757;-0.9810495376586914;-1.2962559461593628
01:00:0A:00:00:00:00;1725927081;10/09/24;00:11:21;0.842;0.325;-0.348;-0.6426302194595337;0.3274237811565399;-0.2773328125476837
01:00:0A:00:00:00:00;1725927082;10/09/24;00:11:22;0.953;0.067;0.142;-1.0714576244354248;-0.5143485069274902;1.1899654865264893
01:00:0A:00:00:00:00;1725927083;10/09/24;00:11:23;0.876;-0.108;-0.334;-0.7941248416900635;0.9126326441764832;-0.40683624148368835
01:00:0A:00:00:00:00;1725927084;10/09/24;00:11:24;0.959;0.102;0.306;-0.9517280459403992;-0.1722639948129654;0.27488934993743896
01:00:0A:00:00:00:00;1725927085;10/09/24;00:11:25;1.02;-0.039;0.062;-0.44348815083503723;-0.19058994948863983;-0.5351179242134094
01:00:0A:00:00:00:00;1725927086;10/09/24;00:11:26;0.987;0.182;0.219;-0.5900958180427551;-0.21135938167572021;0.31642818450927734
01:00:0A:00:00:00:00;1725927087;10/09/24;00:11:27;1.052;-0.072;-0.036;-0.6145303845405579;0.21991148591041565;0.051312677562236786
01:00:0A:00:00:00:00;1725927088;10/09/24;00:11:28;1.005;-0.152;0.321;-0.18325956165790558;-0.12950342893600464;-0.33108896017074585
01:00:0A:00:00:00:00;1725927089;10/09/24;00:11:29;1.043;0.214;0.04;-0.27122414112091064;-0.22357667982578278;0.294437050819397
01:00:0A:00:00:00:00;1725927090;10/09/24;00:11:30;0.979;-0.171;-0.075;-0.21624629199504852;-0.2015855312347412;-0.14416420459747314
01:00:0A:00:00:00:00;1725927091;10/09/24;00:11:31;0.914;-0.134;-0.009;-1.7556266784667969;-0.6365215182304382;0.9101892113685608
01:00:0A:00:00:00:00;1725927092;10/09/24;00:11:32;1.003;0.267;0.021;-1.0873401165008545;0.4447098970413208;-0.5742133259773254
01:00:0A:00:00:00:00;1725927093;10/09/24;00:11:33;1.023;-0.203;0.03;-0.7305948734283447;-0.5461135506629944;0.1869247555732727
01:00:0A:00:00:00:00;1725927094;10/09/24;00:11:34;1.0;0.026;0.194;-0.3347541391849518;0.2174680233001709;-0.21624629199504852
01:00:0A:00:00:00:00;1725927095;10/09/24;00:11:35;0.93;-0.296;-0.171;0.04153883829712868;-0.19303341209888458;-1.7348573207855225
01:00:0A:00:00:00:00;1725927096;10/09/24;00:11:36;0.864;0.474;0.274;-0.12950342893600464;0.7367035150527954;0.4153883755207062
01:00:0A:00:00:00:00;1725927097;10/09/24;00:11:37;0.464;0.802;0.169;1.1227703094482422;-0.27122414112091064;0.8307767510414124
01:00:0A:00:00:00:00;1725927098;10/09/24;00:11:38;1.025;0.016;0.028;-0.21991148591041565;-0.8014551997184753;1.1044443845748901
01:00:0A:00:00:00:00;1725927099;10/09/24;00:11:39;0.766;-0.157;-0.516;0.080634206533432;0.8002334833145142;-0.21991148591041565
01:00:0A:00:00:00:00;1725927100;10/09/24;00:11:40;1.034;0.039;0.048;-0.08674286305904388;0.436157763004303;-0.0354301817715168
01:00:0A:00:00:00:00;1725927101;10/09/24;00:11:41;0.946;0.298;0.183;-0.375071257352829;0.0073303827084600925;-0.46792274713516235
01:00:0A:00:00:00:00;1725927102;10/09/24;00:11:42;0.98;-0.041;0.228;-0.42760565876960754;-0.27977627515792847;0.5583308339118958
01:00:0A:00:00:00:00;1725927103;10/09/24;00:11:43;0.887;-0.6;0.158;-0.04886921867728233;-0.06841690838336945;-0.8344419002532959
01:00:0A:00:00:00:00;1725927104;10/09/24;00:11:44;0.912;0.415;0.13;-0.16249015927314758;-0.019547687843441963;0.4312708377838135
01:00:0A:00:00:00:00;1725927105;10/09/24;00:11:45;0.904;-0.166;-0.149;0.6548475623130798;-0.8881980776786804;-1.794722080230713
01:00:0A:00:00:00:00;1725927106;10/09/24;00:11:46;0.956;-0.035;0.322;-0.4813618063926697;0.3298672139644623;1.3842206001281738
01:00:0A:00:00:00:00;1725927107;10/09/24;00:11:47;0.81;-0.582;0.075;0.48258352279663086;0.06841690838336945;-0.11728612333536148
01:00:0A:00:00:00:00;1725927108;10/09/24;00:11:48;0.814;0.575;-0.146;0.38117989897727966;0.10995574295520782;-0.7428121566772461
01:00:0A:00:00:00:00;1725927109;10/09/24;00:11:49;1.098;0.206;0.162;-0.6084217429161072;-0.042760565876960754;0.44348815083503723
01:00:0A:00:00:00:00;1725927110;10/09/24;00:11:50;0.998;0.015;0.015;-0.93095862865448;-0.6365215182304382;0.5632177591323853
01:00:0A:00:00:00:00;1725927111;10/09/24;00:11:51;0.86;0.295;0.415;-0.8038986325263977;1.1899654865264893;-0.7147123217582703
01:00:0A:00:00:00:00;1725927112;10/09/24;00:11:52;0.587;-0.2;0.788;-0.3090977966785431;-0.28466320037841797;0.7049384713172913
01:00:0A:00:00:00:00;1725927113;10/09/24;00:11:53;0.849;-0.148;0.617;1.2473868131637573;-0.2528982162475586;-0.04153883829712868
01:00:0A:00:00:00:00;1725927114;10/09/24;00:11:54;1.008;0.086;-0.073;1.0348056554794312;-0.4300491213798523;0.34574973583221436
01:00:0A:00:00:00:00;1725927115;10/09/24;00:11:55;0.948;-0.166;0.224;1.0580185651779175;0.5229006409645081;-0.2577851116657257
01:00:0A:00:00:00:00;1725927116;10/09/24;00:11:56;0.95;0.198;0.026;0.836885392665863;-0.2272418737411499;-0.07696902006864548
01:00:0A:00:00:00:00;1725927117;10/09/24;00:11:57;1.016;0.194;0.005;-0.1270599663257599;0.4312708377838135;0.5412266254425049
01:00:0A:00:00:00:00;1725927118;10/09/24;00:11:58;0.955;-0.21;0.304;0.3738495111465454;0.08552113175392151;-0.33719760179519653
01:00:0A:00:00:00:00;1725927119;10/09/24;00:11:59;0.934;0.249;-0.243;-0.0659734457731247;-0.3176499307155609;0.22113320231437683
01:00:0A:00:00:00:00;1725927120;10/09/24;00:12:00;1.014;0.039;-0.122;-0.7293730974197388;0.626747727394104;0.5925393104553223
01:00:0A:00:00:00:00;1725927121;10/09/24;00:12:01;0.891;-0.2;0.517;-0.2431243658065796;0.23090705275535583;-0.38240164518356323
01:00:0A:00:00:00:00;1725927122;10/09/24;00:12:02;0.985;0.281;-0.003;-0.2590068578720093;-0.6756169199943542;-0.12828169763088226
01:00:0A:00:00:00:00;1725927123;10/09/24;00:12:03;1.004;-0.024;-0.086;-0.8845328092575073;0.13561207056045532;0.5998696088790894
01:00:0A:00:00:00:00;1725927124;10/09/24;00:12:04;1.017;0.088;-0.096;-0.8246681094169617;0.3066543638706207;-0.19914205372333527
01:00:0A:00:00:00:00;1725927125;10/09/24;00:12:05;0.982;0.135;0.255;-0.8344419002532959;0.02321287989616394;-0.02321287989616394
01:00:0A:00:00:00:00;1725927126;10/09/24;00:12:06;0.971;0.002;0.353;-0.6487389206886292;-0.14905111491680145;-0.15393804013729095
01:00:0A:00:00:00:00;1725927127;10/09/24;00:12:07;0.97;-0.045;0.259;-0.34697145223617554;-0.12339477241039276;-0.06963863223791122
01:00:0A:00:00:00:00;1725927128;10/09/24;00:12:08;1.012;0.003;0.087;0.7367035150527954;-0.21135938167572021;0.11239919811487198
01:00:0A:00:00:00:00;1725927129;10/09/24;00:12:09;1.012;-0.05;0.08;0.6695082783699036;0.20402899384498596;-0.018325956538319588
01:00:0A:00:00:00:00;1725927130;10/09/24;00:12:10;0.994;0.123;0.18;0.5778785347938538;-0.04153883829712868;0.04886921867728233
01:00:0A:00:00:00:00;1725927131;10/09/24;00:12:11;1.02;-0.031;0.096;0.4031710624694824;0.045204028487205505;0.17837265133857727
01:00:0A:00:00:00:00;1725927132;10/09/24;00:12:12;1.008;0.001;0.122;0.45692718029022217;0.015882495790719986;-0.1368338167667389
01:00:0A:00:00:00:00;1725927133;10/09/24;00:12:13;0.998;0.083;0.032;0.16371189057826996;-0.0659734457731247;0.09285151958465576
01:00:0A:00:00:00:00;1725927134;10/09/24;00:12:14;1.009;-0.028;0.109;-0.03176499158143997;0.06719517707824707;0.13561207056045532
01:00:0A:00:00:00:00;1725927135;10/09/24;00:12:15;1.012;-0.014;0.16;0.024434609338641167;-0.21624629199504852;-0.06352998316287994
01:00:0A:00:00:00:00;1725927136;10/09/24;00:12:16;1.032;0.064;0.055;-0.15515977144241333;0.010995574295520782;0.02321287989616394
01:00:0A:00:00:00:00;1725927137;10/09/24;00:12:17;1.013;-0.024;0.218;-0.22602014243602753;0.07452555745840073;-0.014660765416920185
01:00:0A:00:00:00:00;1725927138;10/09/24;00:12:18;1.011;0.036;0.163;-0.16004669666290283;-0.12950342893600464;-0.10995574295520782
01:00:0A:00:00:00:00;1725927139;10/09/24;00:12:19;1.029;0.03;0.074;-0.31154125928878784;0.0024434609804302454;0.11728612333536148
01:00:0A:00:00:00:00;1725927140;10/09/24;00:12:20;1.024;-0.041;0.175;-0.24556782841682434;0.039095375686883926;0.021991148591041565
01:00:0A:00:00:00:00;1725927141;10/09/24;00:12:21;1.02;0.019;0.084;-0.15271630883216858;-0.09529497474431992;-0.08185594528913498
01:00:0A:00:00:00:00;1725927142;10/09/24;00:12:22;1.006;-0.02;0.063;-0.2272418737411499;0.06475171446800232;-0.0036651913542300463
01:00:0A:00:00:00:00;1725927143;10/09/24;00:12:23;0.991;0.001;0.122;-0.1869247555732727;0.0073303827084600925;-0.12339477241039276
01:00:0A:00:00:00:00;1725927144;10/09/24;00:12:24;1.006;0.096;0.1;-0.27000245451927185;-0.16371189057826996;-0.00855211354792118
01:00:0A:00:00:00:00;1725927145;10/09/24;00:12:25;1.04;0.034;0.073;-0.3799581527709961;-0.01710422709584236;0.0
01:00:0A:00:00:00:00;1725927146;10/09/24;00:12:26;1.007;0.013;0.167;-0.23335053026676178;0.006108652334660292;-0.13072516024112701
01:00:0A:00:00:00:00;1725927147;10/09/24;00:12:27;0.986;0.042;0.095;-0.30543261766433716;-0.05864306166768074;-0.019547687843441963
01:00:0A:00:00:00:00;1725927148;10/09/24;00:12:28;0.973;-0.017;0.142;-0.3384193480014801;0.00855211354792118;0.09407324343919754
01:00:0A:00:00:00:00;1725927149;10/09/24;00:12:29;0.986;-0.015;0.157;-0.1576032191514969;-0.18081611394882202;-0.15882496535778046
01:00:0A:00:00:00:00;1725927150;10/09/24;00:12:30;1.019;0.053;0.1;-0.27977627515792847;-0.040317103266716;0.08796459436416626
01:00:0A:00:00:00:00;1725927151;10/09/24;00:12:31;1.022;-0.046;0.142;-0.26633724570274353;0.015882495790719986;0.0024434609804302454
01:00:0A:00:00:00:00;1725927152;10/09/24;00:12:32;1.032;0.028;0.132;-0.21868975460529327;-0.015882495790719986;-0.06963863223791122
01:00:0A:00:00:00:00;1725927153;10/09/24;00:12:33;1.034;0.033;0.107;-0.3090977966785431;-0.0024434609804302454;0.0024434609804302454
01:00:0A:00:00:00:00;1725927154;10/09/24;00:12:34;1.031;-0.013;0.119;-0.3066543638706207;0.030543262138962746;-0.05375614017248154
01:00:0A:00:00:00:00;1725927155;10/09/24;00:12:35;1.008;0.052;0.123;-0.31642818450927734;-0.018325956538319588;-0.13561207056045532
01:00:0A:00:00:00:00;1725927156;10/09/24;00:12:36;0.99;0.031;0.117;-0.44348815083503723;-0.04886921867728233;0.015882495790719986
01:00:0A:00:00:00:00;1725927157;10/09/24;00:12:37;0.976;0.017;0.099;-0.46303585171699524;-0.06475171446800232;0.018325956538319588
01:00:0A:00:00:00:00;1725927158;10/09/24;00:12:38;0.978;0.029;0.112;-0.4300491213798523;-0.036651913076639175;-0.05619959905743599
01:00:0A:00:00:00:00;1725927159;10/09/24;00:12:39;1.01;0.017;0.119;-0.41783180832862854;-0.080634206533432;0.05375614017248154
01:00:0A:00:00:00:00;1725927160;10/09/24;00:12:40;1.018;-0.018;0.086;-0.32620203495025635;-0.02932153083384037;-0.04764748737215996
01:00:0A:00:00:00:00;1725927161;10/09/24;00:12:41;1.026;0.042;0.129;-0.29565879702568054;-0.02932153083384037;-0.0354301817715168
01:00:0A:00:00:00:00;1725927162;10/09/24;00:12:42;1.035;0.034;0.109;-0.29565879702568054;-0.030543262138962746;-0.00855211354792118
01:00:0A:00:00:00:00;1725927163;10/09/24;00:12:43;1.04;0.024;0.087;-0.2895500957965851;0.025656338781118393;-0.042760565876960754
01:00:0A:00:00:00:00;1725927164;10/09/24;00:12:44;1.019;0.02;0.138;-0.2724458873271942;0.04398229718208313;-0.05619959905743599
01:00:0A:00:00:00:00;1725927165;10/09/24;00:12:45;1.002;0.034;0.104;-0.25534167885780334;-0.04764748737215996;-0.06230825558304787
01:00:0A:00:00:00:00;1725927166;10/09/24;00:12:46;0.983;0.009;0.106;-0.27977627515792847;0.006108652334660292;0.0024434609804302454
01:00:0A:00:00:00:00;1725927167;10/09/24;00:12:47;0.983;0.0;0.137;-0.2223549485206604;-0.05742133408784866;-0.04153883829712868
01:00:0A:00:00:00:00;1725927168;10/09/24;00:12:48;1.011;0.028;0.138;-0.21868975460529327;-0.07941248267889023;0.012217304669320583
01:00:0A:00:00:00:00;1725927169;10/09/24;00:12:49;1.026;0.006;0.129;-0.20402899384498596;-0.024434609338641167;-0.0024434609804302454
01:00:0A:00:00:00:00;1725927170;10/09/24;00:12:50;1.026;0.015;0.15;-0.18081611394882202;0.0;-0.013439035043120384
01:00:0A:00:00:00:00;1725927171;10/09/24;00:12:51;1.022;0.027;0.132;-0.17470745742321014;0.0073303827084600925;-0.021991148591041565
01:00:0A:00:00:00:00;1725927172;10/09/24;00:12:52;1.019;0.014;0.133;-0.18570303916931152;0.009773843921720982;-0.009773843921720982
01:00:0A:00:00:00:00;1725927173;10/09/24;00:12:53;1.019;0.018;0.127;-0.18936821818351746;0.0012217304902151227;-0.036651913076639175
01:00:0A:00:00:00:00;1725927174;10/09/24;00:12:54;1.016;0.03;0.105;-0.21624629199504852;-0.030543262138962746;-0.03298672288656235
01:00:0A:00:00:00:00;1725927175;10/09/24;00:12:55;0.996;0.016;0.113;-0.25534167885780334;0.0036651913542300463;-0.01710422709584236
01:00:0A:00:00:00:00;1725927176;10/09/24;00:12:56;0.992;0.033;0.109;-0.26145032048225403;-0.02076941914856434;-0.05009094998240471
01:00:0A:00:00:00:00;1725927177;10/09/24;00:12:57;1.0;0.037;0.117;-0.2981022298336029;-0.045204028487205505;-0.01710422709584236
01:00:0A:00:00:00:00;1725927178;10/09/24;00:12:58;1.009;0.017;0.13;-0.30543261766433716;-0.039095375686883926;-0.02076941914856434
01:00:0A:00:00:00:00;1725927179;10/09/24;00:12:59;1.016;0.02;0.123;-0.294437050819397;-0.02076941914856434;-0.0354301817715168
01:00:0A:00:00:00:00;1725927180;10/09/24;00:13:00;1.01;0.017;0.136;-0.2822197377681732;-0.03420845419168472;-0.0073303827084600925
01:00:0A:00:00:00:00;1725927181;10/09/24;00:13:01;1.002;0.012;0.123;-0.2528982162475586;-0.02687807008624077;-0.006108652334660292
01:00:0A:00:00:00:00;1725927182;10/09/24;00:13:02;1.009;0.008;0.124;-0.21991148591041565;-0.03298672288656235;-0.015882495790719986
01:00:0A:00:00:00:00;1725927183;10/09/24;00:13:03;1.012;0.015;0.136;-0.19425514340400696;-0.04398229718208313;0.0036651913542300463
01:00:0A:00:00:00:00;1725927184;10/09/24;00:13:04;1.018;0.008;0.127;-0.17104226350784302;-0.018325956538319588;-0.014660765416920185
01:00:0A:00:00:00:00;1725927185;10/09/24;00:13:05;1.017;0.017;0.119;-0.16859880089759827;-0.025656338781118393;-0.00855211354792118
01:00:0A:00:00:00:00;1725927186;10/09/24;00:13:06;1.016;0.014;0.119;-0.1673770695924759;-0.010995574295520782;-0.0024434609804302454
01:00:0A:00:00:00:00;1725927187;10/09/24;00:13:07;1.02;0.016;0.108;-0.1576032191514969;-0.025656338781118393;-0.012217304669320583
01:00:0A:00:00:00:00;1725927188;10/09/24;00:13:08;1.019;0.023;0.117;-0.1722639948129654;0.0012217304902151227;-0.009773843921720982
01:00:0A:00:00:00:00;1725927189;10/09/24;00:13:09;1.015;0.034;0.115;-0.18325956165790558;0.0036651913542300463;-0.03176499158143997
01:00:0A:00:00:00:00;1725927190;10/09/24;00:13:10;1.0;0.025;0.112;-0.19303341209888458;-0.0036651913542300463;-0.04153883829712868
01:00:0A:00:00:00:00;1725927191;10/09/24;00:13:11;0.995;0.025;0.122;-0.21991148591041565;-0.012217304669320583;0.00855211354792118
01:00:0A:00:00:00:00;1725927192;10/09/24;00:13:12;1.0;0.026;0.119;-0.2015855312347412;-0.05742133408784866;-0.010995574295520782
01:00:0A:00:00:00:00;1725927193;10/09/24;00:13:13;1.014;0.022;0.127;-0.2028072476387024;-0.036651913076639175;0.010995574295520782
01:00:0A:00:00:00:00;1725927194;10/09/24;00:13:14;1.017;0.021;0.128;-0.18325956165790558;-0.015882495790719986;-0.010995574295520782
01:00:0A:00:00:00:00;1725927195;10/09/24;00:13:15;1.016;0.022;0.12;-0.17959438264369965;-0.028099799528717995;-0.012217304669320583
01:00:0A:00:00:00:00;1725927196;10/09/24;00:13:16;1.011;0.03;0.122;-0.1869247555732727;-0.024434609338641167;0.010995574295520782
01:00:0A:00:00:00:00;1725927197;10/09/24;00:13:17;1.015;0.019;0.127;-0.1722639948129654;-0.012217304669320583;-0.02321287989616394
01:00:0A:00:00:00:00;1725927198;10/09/24;00:13:18;1.018;0.023;0.132;-0.1563815027475357;-0.02687807008624077;-0.021991148591041565
01:00:0A:00:00:00:00;1725927199;10/09/24;00:13:19;1.017;0.023;0.126;-0.1514945775270462;0.0;-0.018325956538319588
01:00:0A:00:00:00:00;1725927200;10/09/24;00:13:20;1.014;0.019;0.123;-0.13927726447582245;-0.00855211354792118;-0.015882495790719986
01:00:0A:00:00:00:00;1725927201;10/09/24;00:13:21;1.013;0.016;0.129;-0.12828169763088226;-0.012217304669320583;-0.024434609338641167
01:00:0A:00:00:00:00;1725927202;10/09/24;00:13:22;1.014;0.014;0.125;-0.1258382350206375;-0.01710422709584236;-0.009773843921720982
01:00:0A:00:00:00:00;1725927203;10/09/24;00:13:23;1.009;0.011;0.115;-0.11850785464048386;-0.0012217304902151227;-0.018325956538319588
01:00:0A:00:00:00:00;1725927204;10/09/24;00:13:24;0.999;0.01;0.121;-0.11239919811487198;0.0012217304902151227;-0.0024434609804302454
01:00:0A:00:00:00:00;1725927205;10/09/24;00:13:25;0.996;0.015;0.12;-0.09407324343919754;-0.04398229718208313;-0.0073303827084600925
01:00:0A:00:00:00:00;1725927206;10/09/24;00:13:26;1.005;0.015;0.117;-0.10018189996480942;-0.04398229718208313;0.009773843921720982
01:00:0A:00:00:00:00;1725927207;10/09/24;00:13:27;1.016;0.019;0.124;-0.09407324343919754;-0.03787364438176155;-0.015882495790719986
01:00:0A:00:00:00:00;1725927208;10/09/24;00:13:28;1.025;0.029;0.13;-0.1062905490398407;-0.02321287989616394;-0.0073303827084600925
01:00:0A:00:00:00:00;1725927209;10/09/24;00:13:29;1.021;0.017;0.122;-0.12217304855585098;-0.00855211354792118;0.0012217304902151227
01:00:0A:00:00:00:00;1725927210;10/09/24;00:13:30;0.984;0.128;0.233;-0.09773843735456467;0.028099799528717995;-0.059864792972803116
01:00:0A:00:00:00:00;1725927211;10/09/24;00:13:31;0.989;0.101;0.234;-0.34574973583221436;-0.13072516024112701;-0.0024434609804302454
01:00:0A:00:00:00:00;1725927212;10/09/24;00:13:32;1.017;0.017;0.059;-0.47280970215797424;-0.19792033731937408;0.014660765416920185
01:00:0A:00:00:00:00;1725927213;10/09/24;00:13:33;1.006;0.005;0.07;-0.5143485069274902;0.1270599663257599;0.0012217304902151227
01:00:0A:00:00:00:00;1725927214;10/09/24;00:13:34;0.988;-0.012;0.18;-0.38728854060173035;-0.0036651913542300463;-0.06719517707824707
01:00:0A:00:00:00:00;1725927215;10/09/24;00:13:35;1.001;0.052;0.109;-0.3188716471195221;-0.15515977144241333;-0.08429940044879913
01:00:0A:00:00:00:00;1725927216;10/09/24;00:13:36;1.013;0.05;0.094;-0.4508185386657715;0.02321287989616394;0.08674286305904388
01:00:0A:00:00:00:00;1725927217;10/09/24;00:13:37;1.018;-0.046;0.159;-0.34208452701568604;0.004886921960860491;-0.051312677562236786
01:00:0A:00:00:00:00;1725927218;10/09/24;00:13:38;1.016;0.055;0.134;-0.2528982162475586;-0.05009094998240471;-0.13561207056045532
01:00:0A:00:00:00:00;1725927219;10/09/24;00:13:39;1.015;0.049;0.124;-0.3445279896259308;-0.03176499158143997;0.04764748737215996
01:00:0A:00:00:00:00;1725927220;10/09/24;00:13:40;1.01;-0.032;0.108;-0.2883284091949463;0.0012217304902151227;-0.009773843921720982
01:00:0A:00:00:00:00;1725927221;10/09/24;00:13:41;1.007;0.04;0.139;-0.21135938167572021;0.019547687843441963;-0.1062905490398407
01:00:0A:00:00:00:00;1725927222;10/09/24;00:13:42;1.003;0.038;0.128;-0.24434609711170197;-0.0659734457731247;0.039095375686883926
01:00:0A:00:00:00:00;1725927223;10/09/24;00:13:43;1.003;-0.009;0.095;-0.20891590416431427;-0.02687807008624077;-0.02321287989616394
01:00:0A:00:00:00:00;1725927224;10/09/24;00:13:44;1.001;0.021;0.134;-0.17959438264369965;0.013439035043120384;-0.05742133408784866
01:00:0A:00:00:00:00;1725927225;10/09/24;00:13:45;1.006;0.025;0.143;-0.18081611394882202;-0.08552113175392151;0.03298672288656235
01:00:0A:00:00:00:00;1725927226;10/09/24;00:13:46;1.022;0.006;0.099;-0.17348572611808777;-0.013439035043120384;-0.0024434609804302454
01:00:0A:00:00:00:00;1725927227;10/09/24;00:13:47;1.016;0.026;0.143;-0.161268413066864;0.03420845419168472;-0.040317103266716
01:00:0A:00:00:00:00;1725927228;10/09/24;00:13:48;1.015;0.024;0.132;-0.14782939851284027;-0.042760565876960754;-0.00855211354792118
01:00:0A:00:00:00:00;1725927229;10/09/24;00:13:49;1.016;0.011;0.098;-0.14905111491680145;-0.02687807008624077;-0.00855211354792118
01:00:0A:00:00:00:00;1725927230;10/09/24;00:13:50;1.013;0.02;0.13;-0.15271630883216858;0.021991148591041565;-0.012217304669320583
01:00:0A:00:00:00:00;1725927231;10/09/24;00:13:51;1.01;0.025;0.127;-0.13439035415649414;-0.04886921867728233;-0.01710422709584236
01:00:0A:00:00:00:00;1725927232;10/09/24;00:13:52;1.008;0.015;0.103;-0.15027284622192383;-0.00855211354792118;-0.00855211354792118
01:00:0A:00:00:00:00;1725927233;10/09/24;00:13:53;1.004;0.02;0.12;-0.15515977144241333;0.015882495790719986;-0.010995574295520782
01:00:0A:00:00:00:00;1725927234;10/09/24;00:13:54;1.005;0.018;0.124;-0.1319468915462494;-0.05864306166768074;-0.021991148591041565
01:00:0A:00:00:00:00;1725927235;10/09/24;00:13:55;1.015;0.026;0.108;-0.15882496535778046;-0.02076941914856434;0.012217304669320583
01:00:0A:00:00:00:00;1725927236;10/09/24;00:13:56;1.019;0.015;0.132;-0.15393804013729095;0.0073303827084600925;-0.00855211354792118
01:00:0A:00:00:00:00;1725927237;10/09/24;00:13:57;1.016;0.024;0.125;-0.13316862285137177;-0.025656338781118393;-0.021991148591041565
01:00:0A:00:00:00:00;1725927238;10/09/24;00:13:58;1.011;0.028;0.113;-0.1466076523065567;-0.015882495790719986;-0.0036651913542300463
01:00:0A:00:00:00:00;1725927239;10/09/24;00:13:59;1.01;0.011;0.123;-0.1417207270860672;0.0;-0.004886921960860491
01:00:0A:00:00:00:00;1725927239;10/09/24;00:13:59;1.01;0.026;0.129;-0.11972958594560623;-0.025656338781118393;-0.018325956538319588
01:00:0A:00:00:00:00;1725927240;10/09/24;00:14:00;1.011;0.024;0.118;-0.1258382350206375;-0.00855211354792118;-0.006108652334660292
01:00:0A:00:00:00:00;1725927241;10/09/24;00:14:01;1.008;0.012;0.124;-0.1160643920302391;-0.010995574295520782;-0.004886921960860491
01:00:0A:00:00:00:00;1725927242;10/09/24;00:14:02;1.009;0.03;0.119;-0.09407324343919754;-0.07696902006864548;-0.07208210229873657
01:00:0A:00:00:00:00;1725927243;10/09/24;00:14:03;1.008;0.087;0.068;-0.21135938167572021;-0.04886921867728233;-0.04886921867728233
01:00:0A:00:00:00:00;1725927244;10/09/24;00:14:04;1.008;0.082;0.096;-0.3933972120285034;0.014660765416920185;0.07941248267889023
01:00:0A:00:00:00:00;1725927245;10/09/24;00:14:05;1.009;-0.057;0.13;-0.32131510972976685;-0.014660765416920185;0.00855211354792118
01:00:0A:00:00:00:00;1725927246;10/09/24;00:14:06;1.008;0.037;0.129;-0.2076941877603531;-0.02076941914856434;-0.16249015927314758
01:00:0A:00:00:00:00;1725927247;10/09/24;00:14:07;1.005;0.054;0.137;-0.32009339332580566;-0.042760565876960754;0.080634206533432
01:00:0A:00:00:00:00;1725927248;10/09/24;00:14:08;1.014;-0.037;0.102;-0.2675589621067047;-0.039095375686883926;0.0012217304902151227
01:00:0A:00:00:00:00;1725927249;10/09/24;00:14:09;1.012;0.035;0.131;-0.21624629199504852;0.03176499158143997;-0.09407324343919754
01:00:0A:00:00:00:00;1725927250;10/09/24;00:14:10;1.009;0.04;0.152;-0.251676470041275;-0.05253440886735916;0.03298672288656235
01:00:0A:00:00:00:00;1725927251;10/09/24;00:14:11;1.013;-0.015;0.081;-0.22357667982578278;-0.04153883829712868;-0.014660765416920185
01:00:0A:00:00:00:00;1725927252;10/09/24;00:14:12;1.008;0.03;0.13;-0.21868975460529327;0.05864306166768074;-0.05497787147760391
01:00:0A:00:00:00:00;1725927253;10/09/24;00:14:13;1.008;0.022;0.146;-0.20891590416431427;-0.06841690838336945;0.0024434609804302454
01:00:0A:00:00:00:00;1725927254;10/09/24;00:14:14;1.014;0.005;0.086;-0.2028072476387024;-0.040317103266716;-0.018325956538319588
01:00:0A:00:00:00:00;1725927255;10/09/24;00:14:15;1.01;0.027;0.131;-0.21991148591041565;0.05253440886735916;-0.02321287989616394
01:00:0A:00:00:00:00;1725927256;10/09/24;00:14:16;1.008;0.011;0.134;-0.18936821818351746;-0.059864792972803116;-0.014660765416920185
01:00:0A:00:00:00:00;1725927257;10/09/24;00:14:17;1.012;0.026;0.09;-0.19914205372333527;-0.03420845419168472;-0.021991148591041565
01:00:0A:00:00:00:00;1725927258;10/09/24;00:14:18;1.012;0.021;0.128;-0.2272418737411499;0.02076941914856434;-0.0036651913542300463
01:00:0A:00:00:00:00;1725927259;10/09/24;00:14:19;1.012;0.01;0.139;-0.18814648687839508;-0.05375614017248154;-0.0354301817715168
01:00:0A:00:00:00:00;1725927260;10/09/24;00:14:20;1.015;0.036;0.105;-0.21135938167572021;-0.018325956538319588;-0.018325956538319588
01:00:0A:00:00:00:00;1725927261;10/09/24;00:14:21;1.009;0.016;0.13;-0.22968533635139465;0.00855211354792118;0.004886921960860491
01:00:0A:00:00:00:00;1725927262;10/09/24;00:14:22;1.009;0.011;0.134;-0.18814648687839508;-0.03787364438176155;-0.039095375686883926
01:00:0A:00:00:00:00;1725927263;10/09/24;00:14:23;1.012;0.04;0.117;-0.2076941877603531;-0.012217304669320583;-0.012217304669320583
01:00:0A:00:00:00:00;1725927264;10/09/24;00:14:24;1.014;0.009;0.131;-0.2125810980796814;-0.0073303827084600925;0.00855211354792118
01:00:0A:00:00:00:00;1725927265;10/09/24;00:14:25;1.012;0.017;0.126;-0.17104226350784302;-0.025656338781118393;-0.04153883829712868
01:00:0A:00:00:00:00;1725927266;10/09/24;00:14:26;1.007;0.034;0.122;-0.18448130786418915;-0.015882495790719986;-0.013439035043120384
01:00:0A:00:00:00:00;1725927267;10/09/24;00:14:27;1.009;0.005;0.125;-0.18570303916931152;-0.01710422709584236;0.00855211354792118
01:00:0A:00:00:00:00;1725927268;10/09/24;00:14:28;1.011;0.018;0.122;-0.15271630883216858;-0.01710422709584236;-0.039095375686883926
01:00:0A:00:00:00:00;1725927269;10/09/24;00:14:29;1.011;0.025;0.122;-0.16371189057826996;-0.018325956538319588;-0.0036651913542300463
01:00:0A:00:00:00:00;1725927270;10/09/24;00:14:30;1.011;0.006;0.124;-0.15027284622192383;-0.018325956538319588;-0.0024434609804302454
01:00:0A:00:00:00:00;1725927271;10/09/24;00:14:31;1.009;0.011;0.121;-0.12461651116609573;-0.009773843921720982;-0.030543262138962746
01:00:0A:00:00:00:00;1725927272;10/09/24;00:14:32;1.01;0.019;0.125;-0.12950342893600464;-0.01710422709584236;0.006108652334660292
01:00:0A:00:00:00:00;1725927273;10/09/24;00:14:33;1.013;0.007;0.122;-0.11484266817569733;-0.019547687843441963;-0.0036651913542300463
01:00:0A:00:00:00:00;1725927274;10/09/24;00:14:34;1.013;0.018;0.119;-0.10262535512447357;-0.012217304669320583;-0.02076941914856434
01:00:0A:00:00:00:00;1725927275;10/09/24;00:14:35;1.01;0.019;0.127;-0.10873401165008545;-0.0073303827084600925;-0.006108652334660292
01:00:0A:00:00:00:00;1725927276;10/09/24;00:14:36;1.008;0.01;0.114;-0.10384709388017654;-0.019547687843441963;-0.0073303827084600925
01:00:0A:00:00:00:00;1725927277;10/09/24;00:14:37;1.01;0.016;0.119;-0.10262535512447357;-0.00855211354792118;-0.015882495790719986
01:00:0A:00:00:00:00;1725927278;10/09/24;00:14:38;1.01;0.018;0.122;-0.10873401165008545;-0.015882495790719986;0.0024434609804302454
01:00:0A:00:00:00:00;1725927279;10/09/24;00:14:39;1.011;0.012;0.115;-0.10262535512447357;-0.024434609338641167;-0.009773843921720982
01:00:0A:00:00:00:00;1725927280;10/09/24;00:14:40;1.009;0.018;0.121;-0.1062905490398407;-0.004886921960860491;-0.012217304669320583
01:00:0A:00:00:00:00;1725927281;10/09/24;00:14:41;1.017;-0.057;0.073;-0.2076941877603531;-0.06963863223791122;0.04398229718208313
01:00:0A:00:00:00:00;1725927282;10/09/24;00:14:42;1.019;-0.054;0.053;0.06719517707824707;0.0073303827084600925;-0.03787364438176155
01:00:0A:00:00:00:00;1725927283;10/09/24;00:14:43;1.014;0.026;0.112;0.14049901068210602;0.05497787147760391;-0.05619959905743599
01:00:0A:00:00:00:00;1725927284;10/09/24;00:14:44;1.007;0.037;0.145;0.07208210229873657;-0.0073303827084600925;0.04764748737215996
01:00:0A:00:00:00:00;1725927285;10/09/24;00:14:45;1.009;-0.016;0.105;0.08674286305904388;-0.04642575979232788;0.02687807008624077
01:00:0A:00:00:00:00;1725927286;10/09/24;00:14:46;1.009;0.021;0.109;0.09773843735456467;0.019547687843441963;-0.05375614017248154
01:00:0A:00:00:00:00;1725927287;10/09/24;00:14:47;1.012;0.007;0.127;-0.07941248267889023;-0.014660765416920185;0.05253440886735916
01:00:0A:00:00:00:00;1725927288;10/09/24;00:14:48;1.012;-0.017;0.103;-0.17592918872833252;-0.04642575979232788;-0.010995574295520782
01:00:0A:00:00:00:00;1725927289;10/09/24;00:14:49;1.014;-0.024;0.064;-0.21868975460529327;-0.0354301817715168;0.0024434609804302454
01:00:0A:00:00:00:00;1725927290;10/09/24;00:14:50;1.011;-0.007;0.093;-0.22846359014511108;0.0354301817715168;-0.0354301817715168
01:00:0A:00:00:00:00;1725927291;10/09/24;00:14:51;1.012;0.012;0.135;-0.22968533635139465;0.013439035043120384;-0.04153883829712868
01:00:0A:00:00:00:00;1725927292;10/09/24;00:14:52;1.013;0.024;0.134;-0.20402899384498596;-0.051312677562236786;-0.014660765416920185
01:00:0A:00:00:00:00;1725927293;10/09/24;00:14:53;1.015;0.012;0.103;-0.2028072476387024;-0.02076941914856434;-0.0036651913542300463
01:00:0A:00:00:00:00;1725927294;10/09/24;00:14:54;1.011;0.009;0.121;-0.2015855312347412;-0.05009094998240471;-0.025656338781118393
01:00:0A:00:00:00:00;1725927295;10/09/24;00:14:55;1.011;0.021;0.103;-0.2223549485206604;-0.03176499158143997;-0.01710422709584236
01:00:0A:00:00:00:00;1725927296;10/09/24;00:14:56;1.011;0.013;0.118;-0.2895500957965851;0.0036651913542300463;-0.00855211354792118
01:00:0A:00:00:00:00;1725927297;10/09/24;00:14:57;1.01;0.006;0.135;-0.24068090319633484;-0.015882495790719986;-0.03298672288656235
01:00:0A:00:00:00:00;1725927298;10/09/24;00:14:58;1.011;0.026;0.121;-0.2174680233001709;-0.042760565876960754;-0.030543262138962746
01:00:0A:00:00:00:00;1725927299;10/09/24;00:14:59;1.012;0.015;0.117;-0.2272418737411499;-0.010995574295520782;0.0024434609804302454
01:00:0A:00:00:00:00;1725927300;10/09/24;00:15:00;1.011;0.007;0.126;-0.1966986060142517;-0.013439035043120384;-0.02321287989616394
01:00:0A:00:00:00:00;1725927301;10/09/24;00:15:01;1.011;0.024;0.123;-0.17959438264369965;-0.028099799528717995;-0.025656338781118393
01:00:0A:00:00:00:00;1725927302;10/09/24;00:15:02;1.013;0.016;0.118;-0.18936821818351746;-0.018325956538319588;0.0024434609804302454
01:00:0A:00:00:00:00;1725927303;10/09/24;00:15:03;1.013;0.007;0.124;-0.1673770695924759;-0.00855211354792118;-0.024434609338641167
01:00:0A:00:00:00:00;1725927304;10/09/24;00:15:04;1.012;0.025;0.122;-0.16004669666290283;-0.018325956538319588;-0.021991148591041565
01:00:0A:00:00:00:00;1725927305;10/09/24;00:15:05;1.011;0.016;0.119;-0.1673770695924759;-0.021991148591041565;0.0024434609804302454
01:00:0A:00:00:00:00;1725927306;10/09/24;00:15:06;1.012;0.008;0.121;-0.1514945775270462;-0.009773843921720982;-0.02076941914856434
01:00:0A:00:00:00:00;1725927307;10/09/24;00:15:07;1.01;0.022;0.124;-0.14416420459747314;-0.015882495790719986;-0.019547687843441963
01:00:0A:00:00:00:00;1725927308;10/09/24;00:15:08;1.013;0.014;0.118;-0.14905111491680145;-0.021991148591041565;0.0036651913542300463
01:00:0A:00:00:00:00;1725927309;10/09/24;00:15:09;1.011;0.013;0.118;-0.13805554807186127;-0.014660765416920185;-0.01710422709584236
01:00:0A:00:00:00:00;1725927310;10/09/24;00:15:10;1.011;0.02;0.124;-0.13561207056045532;-0.014660765416920185;-0.010995574295520782
01:00:0A:00:00:00:00;1725927311;10/09/24;00:15:11;1.013;0.016;0.12;-0.13316862285137177;-0.024434609338641167;-0.004886921960860491
01:00:0A:00:00:00:00;1725927312;10/09/24;00:15:12;1.012;0.014;0.12;-0.12950342893600464;-0.0073303827084600925;-0.012217304669320583
01:00:0A:00:00:00:00;1725927313;10/09/24;00:15:13;1.012;0.019;0.123;-0.1258382350206375;-0.013439035043120384;-0.010995574295520782
01:00:0A:00:00:00:00;1725927314;10/09/24;00:15:14;1.011;0.016;0.119;-0.12461651116609573;-0.024434609338641167;-0.004886921960860491
01:00:0A:00:00:00:00;1725927315;10/09/24;00:15:15;1.012;0.015;0.119;-0.12339477241039276;-0.010995574295520782;-0.00855211354792118
01:00:0A:00:00:00:00;1725927316;10/09/24;00:15:16;1.011;0.018;0.123;-0.11850785464048386;-0.009773843921720982;-0.013439035043120384
01:00:0A:00:00:00:00;1725927317;10/09/24;00:15:17;1.012;0.016;0.121;-0.11728612333536148;-0.024434609338641167;-0.0036651913542300463
01:00:0A:00:00:00:00;1725927318;10/09/24;00:15:18;1.011;0.016;0.119;-0.11484266817569733;-0.010995574295520782;-0.009773843921720982
01:00:0A:00:00:00:00;1725927319;10/09/24;00:15:19;1.008;-0.017;0.15;-0.08429940044879913;0.03176499158143997;0.04642575979232788
01:00:0A:00:00:00:00;1725927320;10/09/24;00:15:20;1.007;-0.021;0.162;0.2125810980796814;0.0;0.0012217304902151227
01:00:0A:00:00:00:00;1725927321;10/09/24;00:15:21;1.009;0.014;0.134;0.28588491678237915;-0.05253440886735916;0.004886921960860491
01:00:0A:00:00:00:00;1725927322;10/09/24;00:15:22;1.015;0.02;0.107;0.2382374405860901;-0.0012217304902151227;0.039095375686883926
01:00:0A:00:00:00:00;1725927323;10/09/24;00:15:23;1.012;0.011;0.133;0.2272418737411499;0.021991148591041565;0.012217304669320583
01:00:0A:00:00:00:00;1725927324;10/09/24;00:15:24;1.012;0.023;0.123;0.21991148591041565;-0.028099799528717995;0.02687807008624077
01:00:0A:00:00:00:00;1725927325;10/09/24;00:15:25;1.011;0.009;0.111;0.20036379992961884;0.0024434609804302454;0.03176499158143997
01:00:0A:00:00:00:00;1725927326;10/09/24;00:15:26;1.008;0.018;0.131;0.20402899384498596;0.0036651913542300463;0.004886921960860491
01:00:0A:00:00:00:00;1725927327;10/09/24;00:15:27;1.012;0.025;0.121;0.1869247555732727;-0.021991148591041565;0.03298672288656235
