Source;Epoch timestamp (UTC);Date;Time (UTC);Accel X (G);Accel Y (G);Accel Z (G);Gyro X (rad/s);Gyro Y (rad/s);Gyro Z (rad/s)
01:00:0A:00:00:00:00;1724543999;24/08/24;23:59:59;1.016;-0.007;0.063;0.019547687843441963;-0.009773843921720982;-0.0012217304902151227
01:00:0A:00:00:00:00;1724544000;25/08/24;00:00:00;1.016;-0.004;0.061;0.01710422709584236;-0.012217304669320583;0.00855211354792118
01:00:0A:00:00:00:00;1724544001;25/08/24;00:00:01;1.015;-0.01;0.059;0.015882495790719986;-0.010995574295520782;0.004886921960860491
01:00:0A:00:00:00:00;1724544002;25/08/24;00:00:02;1.016;-0.006;0.061;0.01710422709584236;-0.009773843921720982;-0.0012217304902151227
01:00:0A:00:00:00:00;1724544003;25/08/24;00:00:03;1.015;-0.006;0.061;0.013439035043120384;-0.013439035043120384;0.00855211354792118
01:00:0A:00:00:00:00;1724544004;25/08/24;00:00:04;1.016;-0.01;0.06;0.014660765416920185;-0.010995574295520782;0.0036651913542300463
01:00:0A:00:00:00:00;1724544005;25/08/24;00:00:05;1.016;-0.007;0.062;0.014660765416920185;-0.010995574295520782;0.0
01:00:0A:00:00:00:00;1724544006;25/08/24;00:00:06;1.016;-0.005;0.061;0.012217304669320583;-0.012217304669320583;0.0073303827084600925
01:00:0A:00:00:00:00;1724544007;25/08/24;00:00:07;1.015;-0.009;0.061;0.012217304669320583;-0.010995574295520782;0.0036651913542300463
01:00:0A:00:00:00:00;1724544008;25/08/24;00:00:08;1.016;-0.007;0.062;0.013439035043120384;-0.010995574295520782;0.0
01:00:0A:00:00:00:00;1724544009;25/08/24;00:00:09;1.016;-0.007;0.062;0.010995574295520782;-0.012217304669320583;0.0073303827084600925
01:00:0A:00:00:00:00;1724544010;25/08/24;00:00:10;1.016;-0.01;0.06;0.010995574295520782;-0.010995574295520782;0.0036651913542300463
01:00:0A:00:00:00:00;1724544011;25/08/24;00:00:11;1.016;-0.007;0.061;0.012217304669320583;-0.010995574295520782;0.0012217304902151227
01:00:0A:00:00:00:00;1724544012;25/08/24;00:00:12;1.016;-0.006;0.061;0.010995574295520782;-0.012217304669320583;0.006108652334660292
01:00:0A:00:00:00:00;1724544013;25/08/24;00:00:13;1.016;-0.008;0.06;0.010995574295520782;-0.010995574295520782;0.0036651913542300463
01:00:0A:00:00:00:00;1724544014;25/08/24;00:00:14;1.016;-0.007;0.061;0.010995574295520782;-0.010995574295520782;0.0012217304902151227
01:00:0A:00:00:00:00;1724544015;25/08/24;00:00:15;1.016;-0.007;0.06;0.009773843921720982;-0.012217304669320583;0.006108652334660292
01:00:0A:00:00:00:00;1724544016;25/08/24;00:00:16;1.015;-0.008;0.059;0.010995574295520782;-0.010995574295520782;0.0036651913542300463
01:00:0A:00:00:00:00;1724544017;25/08/24;00:00:17;1.016;-0.007;0.06;0.010995574295520782;-0.012217304669320583;0.0024434609804302454
01:00:0A:00:00:00:00;1724544018;25/08/24;00:00:18;1.016;-0.006;0.062;0.009773843921720982;-0.010995574295520782;0.006108652334660292
01:00:0A:00:00:00:00;1724544019;25/08/24;00:00:19;1.015;-0.009;0.062;0.010995574295520782;-0.010995574295520782;0.0036651913542300463
01:00:0A:00:00:00:00;1724544020;25/08/24;00:00:20;1.016;-0.006;0.061;0.010995574295520782;-0.010995574295520782;0.0024434609804302454
01:00:0A:00:00:00:00;1724544021;25/08/24;00:00:21;1.016;-0.007;0.061;0.009773843921720982;-0.010995574295520782;0.006108652334660292
01:00:0A:00:00:00:00;1724544022;25/08/24;00:00:22;1.016;-0.009;0.06;0.010995574295520782;-0.010995574295520782;0.0036651913542300463
01:00:0A:00:00:00:00;1724544023;25/08/24;00:00:23;1.016;-0.007;0.062;0.010995574295520782;-0.012217304669320583;0.0024434609804302454
01:00:0A:00:00:00:00;1724544024;25/08/24;00:00:24;1.015;-0.008;0.061;0.009773843921720982;-0.010995574295520782;0.004886921960860491
01:00:0A:00:00:00:00;1724544025;25/08/24;00:00:25;1.016;-0.008;0.061;0.009773843921720982;-0.012217304669320583;0.0036651913542300463
01:00:0A:00:00:00:00;1724544026;25/08/24;00:00:26;1.015;-0.007;0.062;0.009773843921720982;-0.010995574295520782;0.0024434609804302454
01:00:0A:00:00:00:00;1724544027;25/08/24;00:00:27;1.016;-0.007;0.061;0.009773843921720982;-0.012217304669320583;0.004886921960860491
01:00:0A:00:00:00:00;1724544028;25/08/24;00:00:28;1.016;-0.008;0.062;0.009773843921720982;-0.010995574295520782;0.0036651913542300463
01:00:0A:00:00:00:00;1724544029;25/08/24;00:00:29;1.015;-0.007;0.061;0.009773843921720982;-0.012217304669320583;0.0036651913542300463
01:00:0A:00:00:00:00;1724544030;25/08/24;00:00:30;1.016;-0.009;0.061;0.009773843921720982;-0.010995574295520782;0.004886921960860491
01:00:0A:00:00:00:00;1724544031;25/08/24;00:00:31;1.015;-0.007;0.061;0.009773843921720982;-0.012217304669320583;0.0036651913542300463
01:00:0A:00:00:00:00;1724544032;25/08/24;00:00:32;1.016;-0.006;0.06;0.009773843921720982;-0.010995574295520782;0.0024434609804302454
01:00:0A:00:00:00:00;1724544033;25/08/24;00:00:33;1.015;-0.008;0.062;0.00855211354792118;-0.010995574295520782;0.004886921960860491
01:00:0A:00:00:00:00;1724544034;25/08/24;00:00:34;1.016;-0.007;0.061;0.00855211354792118;-0.010995574295520782;0.0024434609804302454
01:00:0A:00:00:00:00;1724544035;25/08/24;00:00:35;1.016;-0.007;0.06;0.00855211354792118;-0.012217304669320583;0.0036651913542300463
01:00:0A:00:00:00:00;1724544036;25/08/24;00:00:36;1.015;-0.007;0.061;0.00855211354792118;-0.010995574295520782;0.004886921960860491
01:00:0A:00:00:00:00;1724544037;25/08/24;00:00:37;1.015;-0.008;0.06;0.00855211354792118;-0.012217304669320583;0.0036651913542300463
01:00:0A:00:00:00:00;1724544038;25/08/24;00:00:38;1.016;-0.007;0.061;0.00855211354792118;-0.010995574295520782;0.0036651913542300463
01:00:0A:00:00:00:00;1724544039;25/08/24;00:00:39;1.016;-0.007;0.061;0.00855211354792118;-0.010995574295520782;0.004886921960860491
01:00:0A:00:00:00:00;1724544040;25/08/24;00:00:40;1.016;-0.008;0.061;0.00855211354792118;-0.010995574295520782;0.0024434609804302454
01:00:0A:00:00:00:00;1724544041;25/08/24;00:00:41;1.016;-0.006;0.061;0.00855211354792118;-0.010995574295520782;0.0036651913542300463
01:00:0A:00:00:00:00;1724544042;25/08/24;00:00:42;1.016;-0.007;0.061;0.00855211354792118;-0.010995574295520782;0.0036651913542300463
01:00:0A:00:00:00:00;1724544043;25/08/24;00:00:43;1.016;-0.006;0.06;0.00855211354792118;-0.010995574295520782;0.0036651913542300463
01:00:0A:00:00:00:00;1724544044;25/08/24;00:00:44;1.016;-0.006;0.06;0.00855211354792118;-0.010995574295520782;0.0036651913542300463
01:00:0A:00:00:00:00;1724544045;25/08/24;00:00:45;1.016;-0.007;0.06;0.00855211354792118;-0.010995574295520782;0.004886921960860491
01:00:0A:00:00:00:00;1724544046;25/08/24;00:00:46;1.015;-0.01;0.063;0.009773843921720982;-0.0036651913542300463;0.00855211354792118
01:00:0A:00:00:00:00;1724544047;25/08/24;00:00:47;1.015;-0.012;0.067;0.009773843921720982;-0.012217304669320583;0.004886921960860491
01:00:0A:00:00:00:00;1724544048;25/08/24;00:00:48;1.015;-0.01;0.062;0.012217304669320583;-0.01710422709584236;-0.0012217304902151227
01:00:0A:00:00:00:00;1724544049;25/08/24;00:00:49;1.016;-0.004;0.057;0.010995574295520782;-0.012217304669320583;0.0012217304902151227
01:00:0A:00:00:00:00;1724544050;25/08/24;00:00:50;1.016;-0.007;0.062;0.010995574295520782;-0.006108652334660292;0.009773843921720982
01:00:0A:00:00:00:00;1724544051;25/08/24;00:00:51;1.016;-0.009;0.063;0.010995574295520782;-0.015882495790719986;0.0
01:00:0A:00:00:00:00;1724544052;25/08/24;00:00:52;1.016;-0.004;0.058;0.010995574295520782;-0.012217304669320583;0.0024434609804302454
01:00:0A:00:00:00:00;1724544053;25/08/24;00:00:53;1.016;-0.009;0.062;0.009773843921720982;-0.0073303827084600925;0.00855211354792118
01:00:0A:00:00:00:00;1724544054;25/08/24;00:00:54;1.016;-0.008;0.062;0.010995574295520782;-0.014660765416920185;0.0
01:00:0A:00:00:00:00;1724544055;25/08/24;00:00:55;1.016;-0.004;0.058;0.009773843921720982;-0.010995574295520782;0.0036651913542300463
01:00:0A:00:00:00:00;1724544056;25/08/24;00:00:56;1.016;-0.007;0.062;0.009773843921720982;-0.0073303827084600925;0.0073303827084600925
01:00:0A:00:00:00:00;1724544057;25/08/24;00:00:57;1.016;-0.008;0.062;0.009773843921720982;-0.014660765416920185;0.0
01:00:0A:00:00:00:00;1724544058;25/08/24;00:00:58;1.016;-0.005;0.058;0.009773843921720982;-0.010995574295520782;0.0036651913542300463
01:00:0A:00:00:00:00;1724544059;25/08/24;00:00:59;1.016;-0.008;0.062;0.009773843921720982;-0.00855211354792118;0.0073303827084600925
01:00:0A:00:00:00:00;1724544060;25/08/24;00:01:00;1.016;-0.008;0.061;0.009773843921720982;-0.014660765416920185;0.0012217304902151227
01:00:0A:00:00:00:00;1724544061;25/08/24;00:01:01;1.016;-0.006;0.059;0.009773843921720982;-0.010995574295520782;0.0036651913542300463
01:00:0A:00:00:00:00;1724544062;25/08/24;00:01:02;1.016;-0.008;0.061;0.00855211354792118;-0.00855211354792118;0.006108652334660292
01:00:0A:00:00:00:00;1724544063;25/08/24;00:01:03;1.016;-0.008;0.061;0.009773843921720982;-0.014660765416920185;0.0012217304902151227
01:00:0A:00:00:00:00;1724544064;25/08/24;00:01:04;1.015;-0.006;0.06;0.00855211354792118;-0.009773843921720982;0.004886921960860491
01:00:0A:00:00:00:00;1724544065;25/08/24;00:01:05;1.016;-0.008;0.062;0.00855211354792118;-0.009773843921720982;0.006108652334660292
01:00:0A:00:00:00:00;1724544066;25/08/24;00:01:06;1.015;-0.007;0.061;0.00855211354792118;-0.013439035043120384;0.0012217304902151227
01:00:0A:00:00:00:00;1724544067;25/08/24;00:01:07;1.016;-0.006;0.06;0.00855211354792118;-0.010995574295520782;0.004886921960860491
01:00:0A:00:00:00:00;1724544068;25/08/24;00:01:08;1.016;-0.009;0.062;0.0073303827084600925;-0.009773843921720982;0.004886921960860491
01:00:0A:00:00:00:00;1724544069;25/08/24;00:01:09;1.016;-0.008;0.061;0.0073303827084600925;-0.013439035043120384;0.0012217304902151227
01:00:0A:00:00:00:00;1724544070;25/08/24;00:01:10;1.015;-0.006;0.06;0.0073303827084600925;-0.009773843921720982;0.004886921960860491
01:00:0A:00:00:00:00;1724544071;25/08/24;00:01:11;1.016;-0.008;0.062;0.0073303827084600925;-0.009773843921720982;0.004886921960860491
01:00:0A:00:00:00:00;1724544072;25/08/24;00:01:12;1.015;-0.008;0.06;0.0073303827084600925;-0.013439035043120384;0.0012217304902151227
01:00:0A:00:00:00:00;1724544073;25/08/24;00:01:13;1.016;-0.006;0.06;0.006108652334660292;-0.009773843921720982;0.004886921960860491
01:00:0A:00:00:00:00;1724544074;25/08/24;00:01:14;1.016;-0.008;0.061;0.006108652334660292;-0.010995574295520782;0.004886921960860491
01:00:0A:00:00:00:00;1724544075;25/08/24;00:01:15;1.015;-0.006;0.062;0.006108652334660292;-0.013439035043120384;0.0024434609804302454
01:00:0A:00:00:00:00;1724544076;25/08/24;00:01:16;1.015;-0.006;0.059;0.006108652334660292;-0.009773843921720982;0.004886921960860491
01:00:0A:00:00:00:00;1724544077;25/08/24;00:01:17;1.016;-0.008;0.061;0.006108652334660292;-0.010995574295520782;0.004886921960860491
01:00:0A:00:00:00:00;1724544078;25/08/24;00:01:18;1.016;-0.007;0.06;0.006108652334660292;-0.013439035043120384;0.0024434609804302454
01:00:0A:00:00:00:00;1724544079;25/08/24;00:01:19;1.016;-0.006;0.061;0.004886921960860491;-0.010995574295520782;0.004886921960860491
01:00:0A:00:00:00:00;1724544080;25/08/24;00:01:20;1.015;-0.007;0.062;0.006108652334660292;-0.010995574295520782;0.004886921960860491
01:00:0A:00:00:00:00;1724544081;25/08/24;00:01:21;1.016;-0.007;0.06;0.004886921960860491;-0.013439035043120384;0.0024434609804302454
01:00:0A:00:00:00:00;1724544082;25/08/24;00:01:22;1.016;-0.008;0.06;0.004886921960860491;-0.009773843921720982;0.004886921960860491
01:00:0A:00:00:00:00;1724544083;25/08/24;00:01:23;1.015;-0.008;0.061;0.004886921960860491;-0.010995574295520782;0.0036651913542300463
01:00:0A:00:00:00:00;1724544084;25/08/24;00:01:24;1.016;-0.007;0.061;0.004886921960860491;-0.012217304669320583;0.0024434609804302454
01:00:0A:00:00:00:00;1724544085;25/08/24;00:01:25;1.016;-0.007;0.06;0.004886921960860491;-0.010995574295520782;0.004886921960860491
01:00:0A:00:00:00:00;1724544086;25/08/24;00:01:26;1.016;-0.008;0.063;0.004886921960860491;-0.010995574295520782;0.0036651913542300463
01:00:0A:00:00:00:00;1724544087;25/08/24;00:01:27;1.015;-0.01;0.065;0.004886921960860491;-0.004886921960860491;0.0073303827084600925
01:00:0A:00:00:00:00;1724544088;25/08/24;00:01:28;1.016;-0.01;0.067;0.006108652334660292;-0.013439035043120384;0.0036651913542300463
01:00:0A:00:00:00:00;1724544089;25/08/24;00:01:29;1.016;-0.008;0.062;0.006108652334660292;-0.01710422709584236;-0.0012217304902151227
01:00:0A:00:00:00:00;1724544090;25/08/24;00:01:30;1.015;-0.005;0.057;0.006108652334660292;-0.010995574295520782;0.0036651913542300463
01:00:0A:00:00:00:00;1724544091;25/08/24;00:01:31;1.016;-0.01;0.063;0.006108652334660292;-0.0073303827084600925;0.0073303827084600925
01:00:0A:00:00:00:00;1724544092;25/08/24;00:01:32;1.016;-0.008;0.061;0.006108652334660292;-0.015882495790719986;0.0
01:00:0A:00:00:00:00;1724544093;25/08/24;00:01:33;1.016;-0.006;0.057;0.006108652334660292;-0.009773843921720982;0.004886921960860491
01:00:0A:00:00:00:00;1724544094;25/08/24;00:01:34;1.016;-0.008;0.062;0.006108652334660292;-0.0073303827084600925;0.0073303827084600925
01:00:0A:00:00:00:00;1724544095;25/08/24;00:01:35;1.016;-0.008;0.062;0.006108652334660292;-0.015882495790719986;0.0
01:00:0A:00:00:00:00;1724544096;25/08/24;00:01:36;1.016;-0.005;0.059;0.006108652334660292;-0.010995574295520782;0.0036651913542300463
01:00:0A:00:00:00:00;1724544097;25/08/24;00:01:37;1.016;-0.008;0.062;0.006108652334660292;-0.00855211354792118;0.006108652334660292
01:00:0A:00:00:00:00;1724544098;25/08/24;00:01:38;1.016;-0.007;0.061;0.006108652334660292;-0.015882495790719986;0.0
01:00:0A:00:00:00:00;1724544099;25/08/24;00:01:39;1.016;-0.006;0.059;0.006108652334660292;-0.009773843921720982;0.004886921960860491
01:00:0A:00:00:00:00;1724544100;25/08/24;00:01:40;1.016;-0.009;0.062;0.006108652334660292;-0.00855211354792118;0.004886921960860491
01:00:0A:00:00:00:00;1724544101;25/08/24;00:01:41;1.014;-0.007;0.062;0.006108652334660292;-0.014660765416920185;0.0012217304902151227
01:00:0A:00:00:00:00;1724544102;25/08/24;00:01:42;1.016;-0.006;0.06;0.006108652334660292;-0.009773843921720982;0.004886921960860491
01:00:0A:00:00:00:00;1724544103;25/08/24;00:01:43;1.016;-0.009;0.063;0.006108652334660292;-0.009773843921720982;0.004886921960860491
01:00:0A:00:00:00:00;1724544104;25/08/24;00:01:44;1.016;-0.008;0.06;0.0073303827084600925;-0.00855211354792118;0.006108652334660292
01:00:0A:00:00:00:00;1724544105;25/08/24;00:01:45;1.016;-0.009;0.063;0.0073303827084600925;-0.009773843921720982;0.006108652334660292
01:00:0A:00:00:00:00;1724544106;25/08/24;00:01:46;1.016;-0.01;0.064;0.0073303827084600925;-0.013439035043120384;0.0024434609804302454
01:00:0A:00:00:00:00;1724544107;25/08/24;00:01:47;1.016;-0.006;0.06;0.00855211354792118;-0.014660765416920185;0.0
01:00:0A:00:00:00:00;1724544108;25/08/24;00:01:48;1.016;-0.005;0.059;0.0073303827084600925;-0.0073303827084600925;0.0073303827084600925
01:00:0A:00:00:00:00;1724544109;25/08/24;00:01:49;1.015;-0.01;0.062;0.0073303827084600925;-0.012217304669320583;0.004886921960860491
01:00:0A:00:00:00:00;1724544110;25/08/24;00:01:50;1.016;-0.007;0.06;0.00855211354792118;-0.014660765416920185;0.0
01:00:0A:00:00:00:00;1724544111;25/08/24;00:01:51;1.016;-0.006;0.061;0.0073303827084600925;-0.00855211354792118;0.0073303827084600925
01:00:0A:00:00:00:00;1724544112;25/08/24;00:01:52;1.016;-0.009;0.064;0.0073303827084600925;-0.012217304669320583;0.004886921960860491
01:00:0A:00:00:00:00;1724544113;25/08/24;00:01:53;1.015;-0.007;0.06;0.00855211354792118;-0.013439035043120384;0.0012217304902151227
01:00:0A:00:00:00:00;1724544114;25/08/24;00:01:54;1.015;-0.006;0.06;0.0073303827084600925;-0.00855211354792118;0.006108652334660292
01:00:0A:00:00:00:00;1724544115;25/08/24;00:01:55;1.016;-0.009;0.061;0.0073303827084600925;-0.012217304669320583;0.0036651913542300463
01:00:0A:00:00:00:00;1724544116;25/08/24;00:01:56;1.016;-0.006;0.061;0.00855211354792118;-0.013439035043120384;0.0012217304902151227
01:00:0A:00:00:00:00;1724544117;25/08/24;00:01:57;1.015;-0.006;0.06;0.00855211354792118;-0.00855211354792118;0.006108652334660292
01:00:0A:00:00:00:00;1724544118;25/08/24;00:01:58;1.016;-0.008;0.062;0.00855211354792118;-0.012217304669320583;0.0036651913542300463
01:00:0A:00:00:00:00;1724544119;25/08/24;00:01:59;1.016;-0.007;0.059;0.00855211354792118;-0.012217304669320583;0.0012217304902151227
01:00:0A:00:00:00:00;1724544120;25/08/24;00:02:00;1.015;-0.008;0.061;0.00855211354792118;-0.009773843921720982;0.006108652334660292
01:00:0A:00:00:00:00;1724544121;25/08/24;00:02:01;1.016;-0.008;0.061;0.00855211354792118;-0.012217304669320583;0.0036651913542300463
01:00:0A:00:00:00:00;1724544122;25/08/24;00:02:02;1.016;-0.007;0.061;0.00855211354792118;-0.009773843921720982;0.0036651913542300463
01:00:0A:00:00:00:00;1724544123;25/08/24;00:02:03;1.016;-0.009;0.063;0.00855211354792118;-0.009773843921720982;0.006108652334660292
01:00:0A:00:00:00:00;1724544124;25/08/24;00:02:04;1.015;-0.009;0.064;0.009773843921720982;-0.012217304669320583;0.0024434609804302454
01:00:0A:00:00:00:00;1724544125;25/08/24;00:02:05;1.015;-0.007;0.061;0.009773843921720982;-0.015882495790719986;0.0
01:00:0A:00:00:00:00;1724544126;25/08/24;00:02:06;1.016;-0.007;0.06;0.009773843921720982;-0.00855211354792118;0.006108652334660292
01:00:0A:00:00:00:00;1724544127;25/08/24;00:02:07;1.015;-0.009;0.061;0.009773843921720982;-0.010995574295520782;0.0036651913542300463
01:00:0A:00:00:00:00;1724544128;25/08/24;00:02:08;1.016;-0.006;0.059;0.009773843921720982;-0.014660765416920185;0.0012217304902151227
01:00:0A:00:00:00:00;1724544129;25/08/24;00:02:09;1.016;-0.007;0.059;0.009773843921720982;-0.00855211354792118;0.006108652334660292
01:00:0A:00:00:00:00;1724544130;25/08/24;00:02:10;1.016;-0.008;0.062;0.009773843921720982;-0.010995574295520782;0.0036651913542300463
01:00:0A:00:00:00:00;1724544131;25/08/24;00:02:11;1.016;-0.006;0.059;0.009773843921720982;-0.013439035043120384;0.0012217304902151227
01:00:0A:00:00:00:00;1724544132;25/08/24;00:02:12;1.016;-0.008;0.06;0.009773843921720982;-0.00855211354792118;0.006108652334660292
01:00:0A:00:00:00:00;1724544133;25/08/24;00:02:13;1.015;-0.008;0.063;0.009773843921720982;-0.012217304669320583;0.0036651913542300463
01:00:0A:00:00:00:00;1724544134;25/08/24;00:02:14;1.016;-0.006;0.06;0.009773843921720982;-0.013439035043120384;0.0024434609804302454
01:00:0A:00:00:00:00;1724544135;25/08/24;00:02:15;1.017;-0.007;0.059;0.009773843921720982;-0.00855211354792118;0.006108652334660292
01:00:0A:00:00:00:00;1724544136;25/08/24;00:02:16;1.015;-0.007;0.062;0.010995574295520782;-0.012217304669320583;0.0036651913542300463
01:00:0A:00:00:00:00;1724544137;25/08/24;00:02:17;1.015;-0.008;0.061;0.010995574295520782;-0.00855211354792118;0.004886921960860491
01:00:0A:00:00:00:00;1724544138;25/08/24;00:02:18;1.016;-0.007;0.064;0.010995574295520782;-0.012217304669320583;0.0036651913542300463
01:00:0A:00:00:00:00;1724544139;25/08/24;00:02:19;1.016;-0.007;0.061;0.010995574295520782;-0.014660765416920185;0.0036651913542300463
01:00:0A:00:00:00:00;1724544140;25/08/24;00:02:20;1.016;-0.007;0.058;0.010995574295520782;-0.009773843921720982;0.004886921960860491
01:00:0A:00:00:00:00;1724544141;25/08/24;00:02:21;1.016;-0.007;0.061;0.010995574295520782;-0.010995574295520782;0.0036651913542300463
01:00:0A:00:00:00:00;1724544142;25/08/24;00:02:22;1.016;-0.008;0.062;0.010995574295520782;-0.010995574295520782;0.0036651913542300463
01:00:0A:00:00:00:00;1724544143;25/08/24;00:02:23;1.015;-0.007;0.06;0.010995574295520782;-0.013439035043120384;0.0036651913542300463
01:00:0A:00:00:00:00;1724544144;25/08/24;00:02:24;1.016;-0.007;0.06;0.010995574295520782;-0.010995574295520782;0.004886921960860491
01:00:0A:00:00:00:00;1724544145;25/08/24;00:02:25;1.016;-0.008;0.062;0.010995574295520782;-0.009773843921720982;0.0036651913542300463
01:00:0A:00:00:00:00;1724544146;25/08/24;00:02:26;1.016;-0.007;0.061;0.010995574295520782;-0.013439035043120384;0.0036651913542300463
01:00:0A:00:00:00:00;1724544147;25/08/24;00:02:27;1.015;-0.007;0.061;0.010995574295520782;-0.010995574295520782;0.0036651913542300463
01:00:0A:00:00:00:00;1724544148;25/08/24;00:02:28;1.016;-0.007;0.059;0.012217304669320583;-0.012217304669320583;0.0036651913542300463
01:00:0A:00:00:00:00;1724544149;25/08/24;00:02:29;1.016;-0.008;0.061;0.012217304669320583;-0.010995574295520782;0.004886921960860491
01:00:0A:00:00:00:00;1724544150;25/08/24;00:02:30;1.016;-0.008;0.061;0.012217304669320583;-0.010995574295520782;0.0036651913542300463
01:00:0A:00:00:00:00;1724544151;25/08/24;00:02:31;1.016;-0.007;0.061;0.012217304669320583;-0.010995574295520782;0.0036651913542300463
01:00:0A:00:00:00:00;1724544152;25/08/24;00:02:32;1.016;-0.007;0.062;0.012217304669320583;-0.013439035043120384;0.0024434609804302454
01:00:0A:00:00:00:00;1724544153;25/08/24;00:02:33;1.015;-0.007;0.059;0.010995574295520782;-0.012217304669320583;0.0036651913542300463
01:00:0A:00:00:00:00;1724544154;25/08/24;00:02:34;1.016;-0.008;0.061;0.010995574295520782;-0.00855211354792118;0.004886921960860491
01:00:0A:00:00:00:00;1724544155;25/08/24;00:02:35;1.016;-0.009;0.061;0.010995574295520782;-0.009773843921720982;0.004886921960860491
01:00:0A:00:00:00:00;1724544156;25/08/24;00:02:36;1.015;-0.007;0.062;0.010995574295520782;-0.013439035043120384;0.0036651913542300463
01:00:0A:00:00:00:00;1724544157;25/08/24;00:02:37;1.016;-0.008;0.059;0.010995574295520782;-0.013439035043120384;0.0024434609804302454
01:00:0A:00:00:00:00;1724544158;25/08/24;00:02:38;1.016;-0.007;0.06;0.010995574295520782;-0.009773843921720982;0.0036651913542300463
01:00:0A:00:00:00:00;1724544159;25/08/24;00:02:39;1.016;-0.007;0.062;0.010995574295520782;-0.012217304669320583;0.004886921960860491
01:00:0A:00:00:00:00;1724544160;25/08/24;00:02:40;1.016;-0.008;0.06;0.010995574295520782;-0.009773843921720982;0.0036651913542300463
01:00:0A:00:00:00:00;1724544161;25/08/24;00:02:41;1.016;-0.007;0.061;0.010995574295520782;-0.012217304669320583;0.0024434609804302454
01:00:0A:00:00:00:00;1724544162;25/08/24;00:02:42;1.016;-0.006;0.06;0.009773843921720982;-0.010995574295520782;0.004886921960860491
01:00:0A:00:00:00:00;1724544163;25/08/24;00:02:43;1.016;-0.008;0.061;0.009773843921720982;-0.010995574295520782;0.0036651913542300463
01:00:0A:00:00:00:00;1724544164;25/08/24;00:02:44;1.016;-0.009;0.064;0.009773843921720982;-0.009773843921720982;0.004886921960860491
01:00:0A:00:00:00:00;1724544165;25/08/24;00:02:45;1.016;-0.01;0.064;0.009773843921720982;-0.012217304669320583;0.0036651913542300463
01:00:0A:00:00:00:00;1724544166;25/08/24;00:02:46;1.016;-0.007;0.059;0.009773843921720982;-0.013439035043120384;0.0012217304902151227
01:00:0A:00:00:00:00;1724544167;25/08/24;00:02:47;1.016;-0.006;0.059;0.00855211354792118;-0.00855211354792118;0.006108652334660292
01:00:0A:00:00:00:00;1724544168;25/08/24;00:02:48;1.016;-0.007;0.062;0.00855211354792118;-0.010995574295520782;0.004886921960860491
01:00:0A:00:00:00:00;1724544169;25/08/24;00:02:49;1.016;-0.007;0.06;0.009773843921720982;-0.013439035043120384;0.0012217304902151227
01:00:0A:00:00:00:00;1724544170;25/08/24;00:02:50;1.016;-0.007;0.062;0.00855211354792118;-0.009773843921720982;0.004886921960860491
01:00:0A:00:00:00:00;1724544171;25/08/24;00:02:51;1.015;-0.008;0.062;0.00855211354792118;-0.013439035043120384;0.0036651913542300463
01:00:0A:00:00:00:00;1724544172;25/08/24;00:02:52;1.016;-0.006;0.06;0.00855211354792118;-0.010995574295520782;0.0024434609804302454
01:00:0A:00:00:00:00;1724544173;25/08/24;00:02:53;1.016;-0.007;0.061;0.00855211354792118;-0.00855211354792118;0.004886921960860491
01:00:0A:00:00:00:00;1724544174;25/08/24;00:02:54;1.015;-0.009;0.064;0.00855211354792118;-0.012217304669320583;0.0036651913542300463
01:00:0A:00:00:00:00;1724544175;25/08/24;00:02:55;1.016;-0.008;0.062;0.00855211354792118;-0.014660765416920185;0.0012217304902151227
01:00:0A:00:00:00:00;1724544176;25/08/24;00:02:56;1.016;-0.006;0.059;0.00855211354792118;-0.010995574295520782;0.004886921960860491
01:00:0A:00:00:00:00;1724544177;25/08/24;00:02:57;1.016;-0.007;0.061;0.00855211354792118;-0.009773843921720982;0.004886921960860491
01:00:0A:00:00:00:00;1724544178;25/08/24;00:02:58;1.016;-0.007;0.062;0.00855211354792118;-0.013439035043120384;0.0012217304902151227
01:00:0A:00:00:00:00;1724544179;25/08/24;00:02:59;1.016;-0.008;0.061;0.0073303827084600925;-0.012217304669320583;0.004886921960860491
01:00:0A:00:00:00:00;1724544180;25/08/24;00:03:00;1.015;-0.008;0.06;0.00855211354792118;-0.010995574295520782;0.0036651913542300463
01:00:0A:00:00:00:00;1724544181;25/08/24;00:03:01;1.016;-0.008;0.061;0.00855211354792118;-0.010995574295520782;0.0024434609804302454
01:00:0A:00:00:00:00;1724544182;25/08/24;00:03:02;1.016;-0.007;0.061;0.0073303827084600925;-0.012217304669320583;0.0036651913542300463
01:00:0A:00:00:00:00;1724544183;25/08/24;00:03:03;1.016;-0.009;0.062;0.0073303827084600925;-0.010995574295520782;0.0036651913542300463
01:00:0A:00:00:00:00;1724544184;25/08/24;00:03:04;1.015;-0.007;0.061;0.0073303827084600925;-0.013439035043120384;0.0012217304902151227
01:00:0A:00:00:00:00;1724544185;25/08/24;00:03:05;1.015;-0.006;0.06;0.0073303827084600925;-0.010995574295520782;0.0036651913542300463
01:00:0A:00:00:00:00;1724544186;25/08/24;00:03:06;1.015;-0.007;0.06;0.0073303827084600925;-0.010995574295520782;0.004886921960860491
01:00:0A:00:00:00:00;1724544187;25/08/24;00:03:07;1.016;-0.008;0.061;0.0073303827084600925;-0.009773843921720982;0.0036651913542300463
01:00:0A:00:00:00:00;1724544188;25/08/24;00:03:08;1.016;-0.007;0.062;0.0073303827084600925;-0.013439035043120384;0.0036651913542300463
01:00:0A:00:00:00:00;1724544189;25/08/24;00:03:09;1.016;-0.007;0.059;0.0073303827084600925;-0.012217304669320583;0.0036651913542300463
01:00:0A:00:00:00:00;1724544190;25/08/24;00:03:10;1.016;-0.007;0.061;0.0073303827084600925;-0.009773843921720982;0.004886921960860491
01:00:0A:00:00:00:00;1724544191;25/08/24;00:03:11;1.016;-0.007;0.062;0.0073303827084600925;-0.013439035043120384;0.0036651913542300463
01:00:0A:00:00:00:00;1724544192;25/08/24;00:03:12;1.016;-0.007;0.061;0.0073303827084600925;-0.009773843921720982;0.0036651913542300463
01:00:0A:00:00:00:00;1724544193;25/08/24;00:03:13;1.015;-0.007;0.061;0.0073303827084600925;-0.010995574295520782;0.0036651913542300463
01:00:0A:00:00:00:00;1724544194;25/08/24;00:03:14;1.016;-0.007;0.06;0.0073303827084600925;-0.012217304669320583;0.0036651913542300463
01:00:0A:00:00:00:00;1724544195;25/08/24;00:03:15;1.016;-0.007;0.059;0.0073303827084600925;-0.009773843921720982;0.0036651913542300463
01:00:0A:00:00:00:00;1724544196;25/08/24;00:03:16;1.015;-0.007;0.061;0.0073303827084600925;-0.010995574295520782;0.0036651913542300463
01:00:0A:00:00:00:00;1724544197;25/08/24;00:03:17;1.015;-0.009;0.061;0.0073303827084600925;-0.010995574295520782;0.0036651913542300463
01:00:0A:00:00:00:00;1724544198;25/08/24;00:03:18;1.016;-0.007;0.06;0.0073303827084600925;-0.012217304669320583;0.0036651913542300463
01:00:0A:00:00:00:00;1724544199;25/08/24;00:03:19;1.016;-0.007;0.061;0.0073303827084600925;-0.010995574295520782;0.0036651913542300463
01:00:0A:00:00:00:00;1724544200;25/08/24;00:03:20;1.016;-0.007;0.062;0.0073303827084600925;-0.009773843921720982;0.004886921960860491
01:00:0A:00:00:00:00;1724544201;25/08/24;00:03:21;1.016;-0.007;0.063;0.0073303827084600925;-0.012217304669320583;0.0036651913542300463
01:00:0A:00:00:00:00;1724544202;25/08/24;00:03:22;1.016;-0.007;0.06;0.0073303827084600925;-0.013439035043120384;0.0012217304902151227
01:00:0A:00:00:00:00;1724544203;25/08/24;00:03:23;1.016;-0.006;0.06;0.0073303827084600925;-0.010995574295520782;0.0036651913542300463
01:00:0A:00:00:00:00;1724544204;25/08/24;00:03:24;1.016;-0.008;0.062;0.0073303827084600925;-0.010995574295520782;0.004886921960860491
01:00:0A:00:00:00:00;1724544205;25/08/24;00:03:25;1.016;-0.007;0.061;0.0073303827084600925;-0.013439035043120384;0.0024434609804302454
01:00:0A:00:00:00:00;1724544206;25/08/24;00:03:26;1.016;-0.007;0.06;0.0073303827084600925;-0.009773843921720982;0.0036651913542300463
01:00:0A:00:00:00:00;1724544207;25/08/24;00:03:27;1.016;-0.007;0.061;0.0073303827084600925;-0.010995574295520782;0.004886921960860491
01:00:0A:00:00:00:00;1724544208;25/08/24;00:03:28;1.016;-0.007;0.059;0.0073303827084600925;-0.013439035043120384;0.0024434609804302454
01:00:0A:00:00:00:00;1724544209;25/08/24;00:03:29;1.016;-0.008;0.06;0.0073303827084600925;-0.009773843921720982;0.0036651913542300463
01:00:0A:00:00:00:00;1724544210;25/08/24;00:03:30;1.015;-0.007;0.062;0.0073303827084600925;-0.010995574295520782;0.0036651913542300463
01:00:0A:00:00:00:00;1724544211;25/08/24;00:03:31;1.016;-0.008;0.062;0.0073303827084600925;-0.012217304669320583;0.0024434609804302454
01:00:0A:00:00:00:00;1724544212;25/08/24;00:03:32;1.016;-0.007;0.061;0.0073303827084600925;-0.012217304669320583;0.0024434609804302454
01:00:0A:00:00:00:00;1724544213;25/08/24;00:03:33;1.016;-0.008;0.059;0.0073303827084600925;-0.010995574295520782;0.004886921960860491
01:00:0A:00:00:00:00;1724544214;25/08/24;00:03:34;1.016;-0.008;0.062;0.0073303827084600925;-0.009773843921720982;0.0036651913542300463
01:00:0A:00:00:00:00;1724544215;25/08/24;00:03:35;1.016;-0.008;0.062;0.0073303827084600925;-0.013439035043120384;0.0024434609804302454
01:00:0A:00:00:00:00;1724544216;25/08/24;00:03:36;1.015;-0.007;0.061;0.006108652334660292;-0.012217304669320583;0.0036651913542300463
01:00:0A:00:00:00:00;1724544217;25/08/24;00:03:37;1.016;-0.006;0.061;0.0073303827084600925;-0.00855211354792118;0.004886921960860491
01:00:0A:00:00:00:00;1724544218;25/08/24;00:03:38;1.016;-0.008;0.062;0.006108652334660292;-0.013439035043120384;0.0024434609804302454
01:00:0A:00:00:00:00;1724544219;25/08/24;00:03:39;1.015;-0.007;0.059;0.006108652334660292;-0.012217304669320583;0.0036651913542300463
01:00:0A:00:00:00:00;1724544220;25/08/24;00:03:40;1.016;-0.007;0.061;0.006108652334660292;-0.009773843921720982;0.004886921960860491
01:00:0A:00:00:00:00;1724544221;25/08/24;00:03:41;1.015;-0.006;0.063;0.006108652334660292;-0.013439035043120384;0.0024434609804302454
01:00:0A:00:00:00:00;1724544222;25/08/24;00:03:42;1.016;-0.007;0.06;0.006108652334660292;-0.012217304669320583;0.0036651913542300463
01:00:0A:00:00:00:00;1724544223;25/08/24;00:03:43;1.016;-0.006;0.062;0.0073303827084600925;-0.009773843921720982;0.0036651913542300463
01:00:0A:00:00:00:00;1724544224;25/08/24;00:03:44;1.016;-0.008;0.062;0.006108652334660292;-0.012217304669320583;0.0036651913542300463
01:00:0A:00:00:00:00;1724544225;25/08/24;00:03:45;1.016;-0.008;0.061;0.006108652334660292;-0.013439035043120384;0.0024434609804302454
01:00:0A:00:00:00:00;1724544226;25/08/24;00:03:46;1.016;-0.007;0.06;0.006108652334660292;-0.010995574295520782;0.0036651913542300463
01:00:0A:00:00:00:00;1724544227;25/08/24;00:03:47;1.016;-0.008;0.061;0.0073303827084600925;-0.009773843921720982;0.0036651913542300463
01:00:0A:00:00:00:00;1724544228;25/08/24;00:03:48;1.016;-0.009;0.063;0.006108652334660292;-0.010995574295520782;0.0036651913542300463
01:00:0A:00:00:00:00;1724544229;25/08/24;00:03:49;1.015;-0.007;0.061;0.006108652334660292;-0.013439035043120384;0.0024434609804302454
01:00:0A:00:00:00:00;1724544230;25/08/24;00:03:50;1.016;-0.006;0.06;0.006108652334660292;-0.010995574295520782;0.0036651913542300463
01:00:0A:00:00:00:00;1724544231;25/08/24;00:03:51;1.016;-0.007;0.061;0.006108652334660292;-0.009773843921720982;0.004886921960860491
01:00:0A:00:00:00:00;1724544232;25/08/24;00:03:52;1.015;-0.007;0.061;0.006108652334660292;-0.013439035043120384;0.0024434609804302454
01:00:0A:00:00:00:00;1724544233;25/08/24;00:03:53;1.016;-0.007;0.061;0.006108652334660292;-0.009773843921720982;0.0036651913542300463
01:00:0A:00:00:00:00;1724544234;25/08/24;00:03:54;1.016;-0.009;0.062;0.006108652334660292;-0.012217304669320583;0.0036651913542300463
01:00:0A:00:00:00:00;1724544235;25/08/24;00:03:55;1.016;-0.007;0.061;0.006108652334660292;-0.010995574295520782;0.0024434609804302454
01:00:0A:00:00:00:00;1724544236;25/08/24;00:03:56;1.016;-0.007;0.061;0.0073303827084600925;-0.010995574295520782;0.0036651913542300463
01:00:0A:00:00:00:00;1724544237;25/08/24;00:03:57;1.015;-0.008;0.061;0.006108652334660292;-0.012217304669320583;0.0036651913542300463
01:00:0A:00:00:00:00;1724544238;25/08/24;00:03:58;1.016;-0.008;0.061;0.0073303827084600925;-0.012217304669320583;0.0036651913542300463
01:00:0A:00:00:00:00;1724544239;25/08/24;00:03:59;1.016;-0.008;0.06;0.006108652334660292;-0.012217304669320583;0.0036651913542300463
01:00:0A:00:00:00:00;1724544240;25/08/24;00:04:00;1.015;-0.007;0.061;0.006108652334660292;-0.009773843921720982;0.0036651913542300463
01:00:0A:00:00:00:00;1724544241;25/08/24;00:04:01;1.016;-0.007;0.061;0.0073303827084600925;-0.009773843921720982;0.0024434609804302454
01:00:0A:00:00:00:00;1724544242;25/08/24;00:04:02;1.015;-0.007;0.063;0.006108652334660292;-0.012217304669320583;0.0036651913542300463
01:00:0A:00:00:00:00;1724544243;25/08/24;00:04:03;1.016;-0.007;0.06;0.006108652334660292;-0.013439035043120384;0.0036651913542300463
01:00:0A:00:00:00:00;1724544244;25/08/24;00:04:04;1.015;-0.007;0.06;0.0073303827084600925;-0.00855211354792118;0.0024434609804302454
01:00:0A:00:00:00:00;1724544245;25/08/24;00:04:05;1.016;-0.008;0.062;0.0073303827084600925;-0.010995574295520782;0.0036651913542300463
01:00:0A:00:00:00:00;1724544246;25/08/24;00:04:06;1.016;-0.008;0.06;0.006108652334660292;-0.013439035043120384;0.0036651913542300463
01:00:0A:00:00:00:00;1724544247;25/08/24;00:04:07;1.016;-0.008;0.06;0.0073303827084600925;-0.009773843921720982;0.0024434609804302454
01:00:0A:00:00:00:00;1724544248;25/08/24;00:04:08;1.016;-0.007;0.062;0.0073303827084600925;-0.012217304669320583;0.0036651913542300463
01:00:0A:00:00:00:00;1724544249;25/08/24;00:04:09;1.016;-0.007;0.06;0.0073303827084600925;-0.012217304669320583;0.0036651913542300463
01:00:0A:00:00:00:00;1724544250;25/08/24;00:04:10;1.016;-0.006;0.061;0.0073303827084600925;-0.009773843921720982;0.0036651913542300463
01:00:0A:00:00:00:00;1724544251;25/08/24;00:04:11;1.016;-0.008;0.061;0.0073303827084600925;-0.012217304669320583;0.0036651913542300463
01:00:0A:00:00:00:00;1724544252;25/08/24;00:04:12;1.015;-0.009;0.06;0.0073303827084600925;-0.012217304669320583;0.0036651913542300463
01:00:0A:00:00:00:00;1724544253;25/08/24;00:04:13;1.015;-0.007;0.061;0.0073303827084600925;-0.009773843921720982;0.0024434609804302454
01:00:0A:00:00:00:00;1724544254;25/08/24;00:04:14;1.016;-0.007;0.062;0.0073303827084600925;-0.012217304669320583;0.0036651913542300463
01:00:0A:00:00:00:00;1724544255;25/08/24;00:04:15;1.016;-0.007;0.063;0.0073303827084600925;-0.010995574295520782;0.0036651913542300463
01:00:0A:00:00:00:00;1724544256;25/08/24;00:04:16;1.016;-0.006;0.061;0.006108652334660292;-0.013439035043120384;0.0036651913542300463
01:00:0A:00:00:00:00;1724544257;25/08/24;00:04:17;1.016;-0.008;0.06;0.006108652334660292;-0.012217304669320583;0.0036651913542300463
01:00:0A:00:00:00:00;1724544258;25/08/24;00:04:18;1.015;-0.008;0.062;0.0073303827084600925;-0.00855211354792118;0.0024434609804302454
01:00:0A:00:00:00:00;1724544259;25/08/24;00:04:19;1.016;-0.007;0.062;0.0073303827084600925;-0.013439035043120384;0.0024434609804302454
01:00:0A:00:00:00:00;1724544260;25/08/24;00:04:20;1.016;-0.008;0.059;0.0073303827084600925;-0.010995574295520782;0.0036651913542300463
01:00:0A:00:00:00:00;1724544261;25/08/24;00:04:21;1.016;-0.007;0.06;0.0073303827084600925;-0.009773843921720982;0.0024434609804302454
01:00:0A:00:00:00:00;1724544262;25/08/24;00:04:22;1.015;-0.006;0.06;0.0073303827084600925;-0.013439035043120384;0.0036651913542300463
01:00:0A:00:00:00:00;1724544263;25/08/24;00:04:23;1.016;-0.009;0.06;0.0073303827084600925;-0.010995574295520782;0.0036651913542300463
01:00:0A:00:00:00:00;1724544264;25/08/24;00:04:24;1.016;-0.008;0.062;0.0073303827084600925;-0.009773843921720982;0.0036651913542300463
01:00:0A:00:00:00:00;1724544265;25/08/24;00:04:25;1.016;-0.007;0.06;0.0073303827084600925;-0.013439035043120384;0.0036651913542300463
01:00:0A:00:00:00:00;1724544266;25/08/24;00:04:26;1.015;-0.007;0.06;0.0073303827084600925;-0.010995574295520782;0.0036651913542300463
01:00:0A:00:00:00:00;1724544267;25/08/24;00:04:27;1.016;-0.007;0.062;0.0073303827084600925;-0.009773843921720982;0.0024434609804302454
01:00:0A:00:00:00:00;1724544268;25/08/24;00:04:28;1.016;-0.007;0.063;0.0073303827084600925;-0.009773843921720982;0.0036651913542300463
01:00:0A:00:00:00:00;1724544269;25/08/24;00:04:29;1.015;-0.007;0.063;0.0073303827084600925;-0.012217304669320583;0.0036651913542300463
01:00:0A:00:00:00:00;1724544270;25/08/24;00:04:30;1.015;-0.006;0.061;0.006108652334660292;-0.014660765416920185;0.004886921960860491
01:00:0A:00:00:00:00;1724544271;25/08/24;00:04:31;1.015;-0.007;0.06;0.0073303827084600925;-0.009773843921720982;0.0036651913542300463
01:00:0A:00:00:00:00;1724544272;25/08/24;00:04:32;1.016;-0.008;0.061;0.0073303827084600925;-0.009773843921720982;0.0036651913542300463
01:00:0A:00:00:00:00;1724544273;25/08/24;00:04:33;1.016;-0.007;0.061;0.0073303827084600925;-0.013439035043120384;0.0036651913542300463
01:00:0A:00:00:00:00;1724544274;25/08/24;00:04:34;1.016;-0.008;0.06;0.0073303827084600925;-0.009773843921720982;0.0036651913542300463
01:00:0A:00:00:00:00;1724544275;25/08/24;00:04:35;1.015;-0.006;0.062;0.0073303827084600925;-0.010995574295520782;0.0036651913542300463
01:00:0A:00:00:00:00;1724544276;25/08/24;00:04:36;1.016;-0.007;0.059;0.0073303827084600925;-0.013439035043120384;0.0036651913542300463
01:00:0A:00:00:00:00;1724544277;25/08/24;00:04:37;1.016;-0.008;0.06;0.00855211354792118;-0.009773843921720982;0.0036651913542300463
01:00:0A:00:00:00:00;1724544278;25/08/24;00:04:38;1.015;-0.006;0.063;0.0073303827084600925;-0.010995574295520782;0.0036651913542300463
01:00:0A:00:00:00:00;1724544279;25/08/24;00:04:39;1.016;-0.008;0.061;0.0073303827084600925;-0.013439035043120384;0.0036651913542300463
01:00:0A:00:00:00:00;1724544280;25/08/24;00:04:40;1.016;-0.007;0.061;0.00855211354792118;-0.009773843921720982;0.0036651913542300463
01:00:0A:00:00:00:00;1724544281;25/08/24;00:04:41;1.016;-0.007;0.062;0.0073303827084600925;-0.010995574295520782;0.0036651913542300463
01:00:0A:00:00:00:00;1724544282;25/08/24;00:04:42;1.016;-0.007;0.06;0.0073303827084600925;-0.013439035043120384;0.0036651913542300463
01:00:0A:00:00:00:00;1724544283;25/08/24;00:04:43;1.016;-0.007;0.061;0.00855211354792118;-0.009773843921720982;0.0036651913542300463
01:00:0A:00:00:00:00;1724544284;25/08/24;00:04:44;1.015;-0.007;0.061;0.00855211354792118;-0.012217304669320583;0.0036651913542300463
01:00:0A:00:00:00:00;1724544285;25/08/24;00:04:45;1.016;-0.008;0.061;0.00855211354792118;-0.010995574295520782;0.0036651913542300463
01:00:0A:00:00:00:00;1724544286;25/08/24;00:04:46;1.016;-0.007;0.063;0.00855211354792118;-0.009773843921720982;0.0036651913542300463
01:00:0A:00:00:00:00;1724544287;25/08/24;00:04:47;1.016;-0.008;0.063;0.0073303827084600925;-0.012217304669320583;0.0036651913542300463
01:00:0A:00:00:00:00;1724544288;25/08/24;00:04:48;1.016;-0.007;0.061;0.0073303827084600925;-0.014660765416920185;0.004886921960860491
01:00:0A:00:00:00:00;1724544289;25/08/24;00:04:49;1.016;-0.007;0.06;0.00855211354792118;-0.009773843921720982;0.0024434609804302454
01:00:0A:00:00:00:00;1724544290;25/08/24;00:04:50;1.016;-0.007;0.061;0.00855211354792118;-0.009773843921720982;0.0036651913542300463
01:00:0A:00:00:00:00;1724544291;25/08/24;00:04:51;1.016;-0.007;0.06;0.0073303827084600925;-0.013439035043120384;0.004886921960860491
01:00:0A:00:00:00:00;1724544292;25/08/24;00:04:52;1.016;-0.007;0.061;0.00855211354792118;-0.009773843921720982;0.0036651913542300463
01:00:0A:00:00:00:00;1724544293;25/08/24;00:04:53;1.015;-0.006;0.061;0.00855211354792118;-0.010995574295520782;0.0036651913542300463
01:00:0A:00:00:00:00;1724544294;25/08/24;00:04:54;1.015;-0.007;0.06;0.00855211354792118;-0.013439035043120384;0.004886921960860491
01:00:0A:00:00:00:00;1724544295;25/08/24;00:04:55;1.016;-0.007;0.06;0.00855211354792118;-0.009773843921720982;0.0036651913542300463
01:00:0A:00:00:00:00;1724544296;25/08/24;00:04:56;1.016;-0.007;0.062;0.00855211354792118;-0.010995574295520782;0.0036651913542300463
01:00:0A:00:00:00:00;1724544297;25/08/24;00:04:57;1.016;-0.008;0.06;0.00855211354792118;-0.012217304669320583;0.0036651913542300463
01:00:0A:00:00:00:00;1724544298;25/08/24;00:04:58;1.015;-0.007;0.061;0.00855211354792118;-0.009773843921720982;0.0024434609804302454
01:00:0A:00:00:00:00;1724544299;25/08/24;00:04:59;1.016;-0.007;0.061;0.00855211354792118;-0.010995574295520782;0.0036651913542300463
01:00:0A:00:00:00:00;1724544300;25/08/24;00:05:00;1.016;-0.008;0.06;0.00855211354792118;-0.012217304669320583;0.0036651913542300463
01:00:0A:00:00:00:00;1724544301;25/08/24;00:05:01;1.015;-0.008;0.06;0.00855211354792118;-0.009773843921720982;0.0036651913542300463
01:00:0A:00:00:00:00;1724544302;25/08/24;00:05:02;1.016;-0.008;0.061;0.00855211354792118;-0.012217304669320583;0.0036651913542300463
01:00:0A:00:00:00:00;1724544303;25/08/24;00:05:03;1.016;-0.007;0.06;0.00855211354792118;-0.012217304669320583;0.0036651913542300463
01:00:0A:00:00:00:00;1724544304;25/08/24;00:05:04;1.016;-0.007;0.061;0.009773843921720982;-0.009773843921720982;0.0036651913542300463
01:00:0A:00:00:00:00;1724544305;25/08/24;00:05:05;1.016;-0.007;0.061;0.00855211354792118;-0.010995574295520782;0.0036651913542300463
01:00:0A:00:00:00:00;1724544306;25/08/24;00:05:06;1.016;-0.008;0.06;0.009773843921720982;-0.012217304669320583;0.0036651913542300463
01:00:0A:00:00:00:00;1724544307;25/08/24;00:05:07;1.016;-0.007;0.061;0.009773843921720982;-0.009773843921720982;0.0036651913542300463
01:00:0A:00:00:00:00;1724544308;25/08/24;00:05:08;1.016;-0.007;0.062;0.009773843921720982;-0.012217304669320583;0.0036651913542300463
01:00:0A:00:00:00:00;1724544309;25/08/24;00:05:09;1.015;-0.007;0.06;0.009773843921720982;-0.009773843921720982;0.0036651913542300463
01:00:0A:00:00:00:00;1724544310;25/08/24;00:05:10;1.016;-0.006;0.062;0.009773843921720982;-0.010995574295520782;0.0036651913542300463
01:00:0A:00:00:00:00;1724544311;25/08/24;00:05:11;1.015;-0.007;0.06;0.00855211354792118;-0.012217304669320583;0.0036651913542300463
01:00:0A:00:00:00:00;1724544312;25/08/24;00:05:12;1.015;-0.007;0.06;0.009773843921720982;-0.010995574295520782;0.0036651913542300463
01:00:0A:00:00:00:00;1724544313;25/08/24;00:05:13;1.016;-0.007;0.061;0.009773843921720982;-0.010995574295520782;0.0036651913542300463
01:00:0A:00:00:00:00;1724544314;25/08/24;00:05:14;1.016;-0.008;0.061;0.009773843921720982;-0.010995574295520782;0.0036651913542300463
01:00:0A:00:00:00:00;1724544315;25/08/24;00:05:15;1.016;-0.007;0.061;0.009773843921720982;-0.012217304669320583;0.0036651913542300463
01:00:0A:00:00:00:00;1724544316;25/08/24;00:05:16;1.016;-0.006;0.06;0.009773843921720982;-0.010995574295520782;0.0036651913542300463
01:00:0A:00:00:00:00;1724544317;25/08/24;00:05:17;1.016;-0.008;0.061;0.009773843921720982;-0.010995574295520782;0.0036651913542300463
01:00:0A:00:00:00:00;1724544318;25/08/24;00:05:18;1.016;-0.008;0.06;0.009773843921720982;-0.012217304669320583;0.0036651913542300463
01:00:0A:00:00:00:00;1724544319;25/08/24;00:05:19;1.016;-0.007;0.061;0.009773843921720982;-0.010995574295520782;0.0036651913542300463
01:00:0A:00:00:00:00;1724544320;25/08/24;00:05:20;1.016;-0.007;0.061;0.009773843921720982;-0.012217304669320583;0.0036651913542300463
01:00:0A:00:00:00:00;1724544321;25/08/24;00:05:21;1.014;-0.008;0.06;0.009773843921720982;-0.010995574295520782;0.0036651913542300463
01:00:0A:00:00:00:00;1724544322;25/08/24;00:05:22;1.016;-0.008;0.062;0.009773843921720982;-0.010995574295520782;0.0036651913542300463
01:00:0A:00:00:00:00;1724544323;25/08/24;00:05:23;1.016;-0.007;0.062;0.009773843921720982;-0.010995574295520782;0.0036651913542300463
01:00:0A:00:00:00:00;1724544324;25/08/24;00:05:24;1.016;-0.006;0.062;0.009773843921720982;-0.013439035043120384;0.0036651913542300463
01:00:0A:00:00:00:00;1724544325;25/08/24;00:05:25;1.016;-0.007;0.06;0.009773843921720982;-0.012217304669320583;0.0036651913542300463
01:00:0A:00:00:00:00;1724544326;25/08/24;00:05:26;1.016;-0.007;0.061;0.009773843921720982;-0.009773843921720982;0.0036651913542300463
01:00:0A:00:00:00:00;1724544327;25/08/24;00:05:27;1.016;-0.008;0.061;0.009773843921720982;-0.012217304669320583;0.0036651913542300463
01:00:0A:00:00:00:00;1724544328;25/08/24;00:05:28;1.016;-0.007;0.06;0.009773843921720982;-0.010995574295520782;0.0036651913542300463
01:00:0A:00:00:00:00;1724544329;25/08/24;00:05:29;1.016;-0.008;0.062;0.009773843921720982;-0.009773843921720982;0.0036651913542300463
01:00:0A:00:00:00:00;1724544330;25/08/24;00:05:30;1.015;-0.008;0.061;0.009773843921720982;-0.012217304669320583;0.0036651913542300463
01:00:0A:00:00:00:00;1724544331;25/08/24;00:05:31;1.016;-0.008;0.059;0.009773843921720982;-0.010995574295520782;0.0036651913542300463
01:00:0A:00:00:00:00;1724544332;25/08/24;00:05:32;1.015;-0.007;0.061;0.009773843921720982;-0.010995574295520782;0.0036651913542300463
01:00:0A:00:00:00:00;1724544333;25/08/24;00:05:33;1.015;-0.007;0.061;0.009773843921720982;-0.010995574295520782;0.0036651913542300463
01:00:0A:00:00:00:00;1724544334;25/08/24;00:05:34;1.015;-0.007;0.06;0.009773843921720982;-0.012217304669320583;0.0036651913542300463
01:00:0A:00:00:00:00;1724544335;25/08/24;00:05:35;1.015;-0.007;0.061;0.009773843921720982;-0.010995574295520782;0.0036651913542300463
01:00:0A:00:00:00:00;1724544336;25/08/24;00:05:36;1.016;-0.007;0.062;0.009773843921720982;-0.009773843921720982;0.0036651913542300463
01:00:0A:00:00:00:00;1724544337;25/08/24;00:05:37;1.015;-0.008;0.063;0.009773843921720982;-0.012217304669320583;0.0036651913542300463
01:00:0A:00:00:00:00;1724544338;25/08/24;00:05:38;1.016;-0.007;0.061;0.00855211354792118;-0.013439035043120384;0.0036651913542300463
01:00:0A:00:00:00:00;1724544339;25/08/24;00:05:39;1.016;-0.008;0.06;0.009773843921720982;-0.009773843921720982;0.0036651913542300463
01:00:0A:00:00:00:00;1724544340;25/08/24;00:05:40;1.016;-0.009;0.062;0.009773843921720982;-0.010995574295520782;0.0036651913542300463
01:00:0A:00:00:00:00;1724544341;25/08/24;00:05:41;1.016;-0.007;0.061;0.009773843921720982;-0.013439035043120384;0.0036651913542300463
01:00:0A:00:00:00:00;1724544342;25/08/24;00:05:42;1.015;-0.008;0.061;0.009773843921720982;-0.009773843921720982;0.0036651913542300463
01:00:0A:00:00:00:00;1724544343;25/08/24;00:05:43;1.016;-0.008;0.062;0.009773843921720982;-0.012217304669320583;0.0036651913542300463
01:00:0A:00:00:00:00;1724544344;25/08/24;00:05:44;1.016;-0.008;0.06;0.009773843921720982;-0.013439035043120384;0.0036651913542300463
01:00:0A:00:00:00:00;1724544345;25/08/24;00:05:45;1.016;-0.007;0.061;0.009773843921720982;-0.009773843921720982;0.0036651913542300463
01:00:0A:00:00:00:00;1724544346;25/08/24;00:05:46;1.016;-0.007;0.061;0.009773843921720982;-0.010995574295520782;0.0036651913542300463
01:00:0A:00:00:00:00;1724544347;25/08/24;00:05:47;1.015;-0.006;0.061;0.009773843921720982;-0.012217304669320583;0.0036651913542300463
01:00:0A:00:00:00:00;1724544348;25/08/24;00:05:48;1.016;-0.008;0.061;0.009773843921720982;-0.009773843921720982;0.0036651913542300463
01:00:0A:00:00:00:00;1724544349;25/08/24;00:05:49;1.016;-0.007;0.063;0.009773843921720982;-0.012217304669320583;0.0036651913542300463
01:00:0A:00:00:00:00;1724544350;25/08/24;00:05:50;1.016;-0.007;0.061;0.009773843921720982;-0.012217304669320583;0.0036651913542300463
01:00:0A:00:00:00:00;1724544351;25/08/24;00:05:51;1.016;-0.007;0.061;0.009773843921720982;-0.010995574295520782;0.0036651913542300463
01:00:0A:00:00:00:00;1724544352;25/08/24;00:05:52;1.016;-0.008;0.06;0.009773843921720982;-0.012217304669320583;0.0036651913542300463
01:00:0A:00:00:00:00;1724544353;25/08/24;00:05:53;1.016;-0.007;0.061;0.009773843921720982;-0.012217304669320583;0.0036651913542300463
01:00:0A:00:00:00:00;1724544354;25/08/24;00:05:54;1.016;-0.007;0.06;0.009773843921720982;-0.009773843921720982;0.0036651913542300463
01:00:0A:00:00:00:00;1724544355;25/08/24;00:05:55;1.015;-0.007;0.062;0.009773843921720982;-0.010995574295520782;0.0036651913542300463
01:00:0A:00:00:00:00;1724544356;25/08/24;00:05:56;1.016;-0.007;0.061;0.00855211354792118;-0.012217304669320583;0.0036651913542300463
01:00:0A:00:00:00:00;1724544357;25/08/24;00:05:57;1.015;-0.007;0.061;0.00855211354792118;-0.012217304669320583;0.0036651913542300463
01:00:0A:00:00:00:00;1724544358;25/08/24;00:05:58;1.015;-0.008;0.061;0.00855211354792118;-0.009773843921720982;0.0036651913542300463
01:00:0A:00:00:00:00;1724544359;25/08/24;00:05:59;1.016;-0.008;0.061;0.00855211354792118;-0.012217304669320583;0.0036651913542300463
01:00:0A:00:00:00:00;1724544360;25/08/24;00:06:00;1.016;-0.007;0.061;0.00855211354792118;-0.012217304669320583;0.0036651913542300463
01:00:0A:00:00:00:00;1724544361;25/08/24;00:06:01;1.016;-0.008;0.06;0.00855211354792118;-0.010995574295520782;0.0036651913542300463
01:00:0A:00:00:00:00;1724544362;25/08/24;00:06:02;1.015;-0.008;0.062;0.00855211354792118;-0.010995574295520782;0.0036651913542300463
01:00:0A:00:00:00:00;1724544363;25/08/24;00:06:03;1.016;-0.007;0.062;0.00855211354792118;-0.012217304669320583;0.0036651913542300463
01:00:0A:00:00:00:00;1724544364;25/08/24;00:06:04;1.015;-0.008;0.061;0.00855211354792118;-0.010995574295520782;0.0036651913542300463
01:00:0A:00:00:00:00;1724544365;25/08/24;00:06:05;1.016;-0.005;0.061;0.006108652334660292;-0.010995574295520782;0.0024434609804302454
01:00:0A:00:00:00:00;1724544366;25/08/24;00:06:06;1.016;-0.008;0.061;0.006108652334660292;-0.012217304669320583;0.006108652334660292
01:00:0A:00:00:00:00;1724544367;25/08/24;00:06:07;1.016;-0.008;0.061;0.0073303827084600925;-0.010995574295520782;0.0024434609804302454
01:00:0A:00:00:00:00;1724544368;25/08/24;00:06:08;1.015;-0.007;0.061;0.0073303827084600925;-0.010995574295520782;0.0036651913542300463
01:00:0A:00:00:00:00;1724544369;25/08/24;00:06:09;1.015;-0.008;0.062;0.006108652334660292;-0.012217304669320583;0.006108652334660292
01:00:0A:00:00:00:00;1724544370;25/08/24;00:06:10;1.016;-0.008;0.06;0.0073303827084600925;-0.012217304669320583;0.0024434609804302454
01:00:0A:00:00:00:00;1724544371;25/08/24;00:06:11;1.016;-0.007;0.061;0.0073303827084600925;-0.009773843921720982;0.0036651913542300463
01:00:0A:00:00:00:00;1724544372;25/08/24;00:06:12;1.016;-0.008;0.062;0.006108652334660292;-0.010995574295520782;0.004886921960860491
01:00:0A:00:00:00:00;1724544373;25/08/24;00:06:13;1.016;-0.009;0.061;0.0073303827084600925;-0.010995574295520782;0.0024434609804302454
01:00:0A:00:00:00:00;1724544374;25/08/24;00:06:14;1.016;-0.007;0.06;0.006108652334660292;-0.012217304669320583;0.0036651913542300463
01:00:0A:00:00:00:00;1724544375;25/08/24;00:06:15;1.016;-0.007;0.06;0.00855211354792118;-0.010995574295520782;0.0036651913542300463
01:00:0A:00:00:00:00;1724544376;25/08/24;00:06:16;1.016;-0.007;0.061;0.00855211354792118;-0.010995574295520782;0.0036651913542300463
01:00:0A:00:00:00:00;1724544377;25/08/24;00:06:17;1.016;-0.007;0.061;0.00855211354792118;-0.012217304669320583;0.0036651913542300463
01:00:0A:00:00:00:00;1724544378;25/08/24;00:06:18;1.016;-0.007;0.06;0.0073303827084600925;-0.010995574295520782;0.0036651913542300463
01:00:0A:00:00:00:00;1724544379;25/08/24;00:06:19;1.015;-0.007;0.061;0.0073303827084600925;-0.012217304669320583;0.0036651913542300463
01:00:0A:00:00:00:00;1724544380;25/08/24;00:06:20;1.016;-0.007;0.061;0.0073303827084600925;-0.010995574295520782;0.0036651913542300463
01:00:0A:00:00:00:00;1724544381;25/08/24;00:06:21;1.015;-0.008;0.061;0.0073303827084600925;-0.010995574295520782;0.0036651913542300463
01:00:0A:00:00:00:00;1724544382;25/08/24;00:06:22;1.015;-0.008;0.061;0.0073303827084600925;-0.012217304669320583;0.0036651913542300463
01:00:0A:00:00:00:00;1724544383;25/08/24;00:06:23;1.016;-0.008;0.062;0.0073303827084600925;-0.010995574295520782;0.0036651913542300463
01:00:0A:00:00:00:00;1724544384;25/08/24;00:06:24;1.015;-0.008;0.06;0.0073303827084600925;-0.012217304669320583;0.0036651913542300463
01:00:0A:00:00:00:00;1724544385;25/08/24;00:06:25;1.016;-0.007;0.06;0.0073303827084600925;-0.010995574295520782;0.0036651913542300463
01:00:0A:00:00:00:00;1724544386;25/08/24;00:06:26;1.015;-0.007;0.061;0.0073303827084600925;-0.010995574295520782;0.0036651913542300463
01:00:0A:00:00:00:00;1724544387;25/08/24;00:06:27;1.015;-0.008;0.061;0.0073303827084600925;-0.010995574295520782;0.0036651913542300463
01:00:0A:00:00:00:00;1724544388;25/08/24;00:06:28;1.016;-0.007;0.061;0.006108652334660292;-0.012217304669320583;0.0036651913542300463
01:00:0A:00:00:00:00;1724544389;25/08/24;00:06:29;0.992;0.007;0.089;0.0;0.06963863223791122;-0.12339477241039276
01:00:0A:00:00:00:00;1724544390;25/08/24;00:06:30;0.976;-0.144;-0.123;-0.1918116807937622;0.15027284622192383;0.2528982162475586
01:00:0A:00:00:00:00;1724544391;25/08/24;00:06:31;0.898;-0.298;-0.274;0.1514945775270462;0.6841690540313721;-0.41294488310813904
01:00:0A:00:00:00:00;1724544392;25/08/24;00:06:32;0.853;-0.15;0.246;0.4495967924594879;0.6475171446800232;1.794722080230713
01:00:0A:00:00:00:00;1724544393;25/08/24;00:06:33;0.924;0.098;-0.176;-0.080634206533432;-1.320690631866455;-0.5962044596672058
01:00:0A:00:00:00:00;1724544394;25/08/24;00:06:34;0.995;-0.09;-0.126;0.1966986060142517;1.3720033168792725;0.5803219676017761
01:00:0A:00:00:00:00;1724544395;25/08/24;00:06:35;0.909;0.413;-0.055;-0.07452555745840073;-0.6829473376274109;-0.22113320231437683
01:00:0A:00:00:00:00;1724544396;25/08/24;00:06:36;0.929;0.173;-0.309;-0.35185837745666504;-0.9651670455932617;-0.21380282938480377
01:00:0A:00:00:00:00;1724544397;25/08/24;00:06:37;0.968;-0.349;0.236;-0.5717698335647583;0.9431759119033813;0.2565633952617645
01:00:0A:00:00:00:00;1724544398;25/08/24;00:06:38;1.012;-0.139;0.162;-0.7648032903671265;-0.20891590416431427;-0.37262779474258423
01:00:0A:00:00:00:00;1724544399;25/08/24;00:06:39;0.872;-0.618;0.185;-0.14294245839118958;0.1869247555732727;0.3176499307155609
01:00:0A:00:00:00:00;1724544400;25/08/24;00:06:40;0.935;0.16;0.404;-0.10873401165008545;0.5021312236785889;-0.5461135506629944
01:00:0A:00:00:00:00;1724544401;25/08/24;00:06:41;0.96;-0.176;-0.175;-0.1966986060142517;-0.5949827432632446;0.2834414541721344
01:00:0A:00:00:00:00;1724544402;25/08/24;00:06:42;1.024;0.153;0.134;-0.8210028409957886;0.9395107626914978;1.0348056554794312
01:00:0A:00:00:00:00;1724544403;25/08/24;00:06:43;0.963;0.181;0.165;-0.6133087277412415;-0.50335294008255;-0.7721336483955383
01:00:0A:00:00:00:00;1724544404;25/08/24;00:06:44;1.054;-0.071;0.051;-0.5729915499687195;-0.2773328125476837;0.4080579876899719
01:00:0A:00:00:00:00;1724544405;25/08/24;00:06:45;1.014;-0.239;-0.209;-0.43249258399009705;-0.2015855312347412;-0.006108652334660292
01:00:0A:00:00:00:00;1724544406;25/08/24;00:06:46;1.012;-0.311;-0.015;-0.14538592100143433;0.9260717034339905;1.3903292417526245
01:00:0A:00:00:00:00;1724544407;25/08/24;00:06:47;0.972;-0.222;-0.131;-0.05009094998240471;-0.5094615817070007;-0.4691444933414459
01:00:0A:00:00:00:00;1724544408;25/08/24;00:06:48;1.018;0.065;0.079;0.17104226350784302;0.05864306166768074;-0.15393804013729095
01:00:0A:00:00:00:00;1724544409;25/08/24;00:06:49;1.07;0.039;-0.093;0.015882495790719986;-0.5290092825889587;0.08674286305904388
01:00:0A:00:00:00:00;1724544410;25/08/24;00:06:50;0.996;-0.262;-0.416;0.38117989897727966;0.5057964324951172;0.10873401165008545
01:00:0A:00:00:00:00;1724544411;25/08/24;00:06:51;0.813;0.286;0.647;-0.04886921867728233;1.508837103843689;-1.0299187898635864
01:00:0A:00:00:00:00;1724544412;25/08/24;00:06:52;0.985;-0.367;-0.059;-0.09162978082895279;-0.6194173693656921;-0.4092797040939331
01:00:0A:00:00:00:00;1724544413;25/08/24;00:06:53;0.982;0.187;0.022;0.04642575979232788;0.1258382350206375;-0.3237585723400116
01:00:0A:00:00:00:00;1724544414;25/08/24;00:06:54;0.947;-0.174;-0.155;-0.21502456068992615;-0.2370157092809677;1.0421360731124878
01:00:0A:00:00:00:00;1724544415;25/08/24;00:06:55;0.978;-0.182;0.177;0.12217304855585098;0.9419541358947754;-0.17837265133857727
01:00:0A:00:00:00:00;1724544416;25/08/24;00:06:56;0.87;-0.081;0.47;-0.17348572611808777;0.29077184200286865;-0.06108652427792549
01:00:0A:00:00:00:00;1724544417;25/08/24;00:06:57;0.971;0.133;0.082;-0.37751471996307373;-0.626747727394104;-0.5045746564865112
01:00:0A:00:00:00:00;1724544418;25/08/24;00:06:58;0.998;0.161;0.045;-0.6218608021736145;-0.17104226350784302;0.1722639948129654
01:00:0A:00:00:00:00;1724544419;25/08/24;00:06:59;0.859;-0.732;0.234;0.05253440886735916;0.8967502117156982;1.852143406867981
01:00:0A:00:00:00:00;1724544420;25/08/24;00:07:00;0.842;0.295;0.647;-0.4691444933414459;-0.48869219422340393;-0.8246681094169617
01:00:0A:00:00:00:00;1724544421;25/08/24;00:07:01;0.96;0.287;-0.233;-0.8112289905548096;-0.41783180832862854;0.3090977966785431
01:00:0A:00:00:00:00;1724544422;25/08/24;00:07:02;0.915;-0.254;-0.283;-0.23090705275535583;0.20036379992961884;0.4092797040939331
01:00:0A:00:00:00:00;1724544423;25/08/24;00:07:03;0.993;-0.22;0.03;0.38240164518356323;0.96883225440979;-0.7269296050071716
01:00:0A:00:00:00:00;1724544424;25/08/24;00:07:04;1.015;0.193;0.145;-0.09529497474431992;-0.4202752709388733;-0.042760565876960754
01:00:0A:00:00:00:00;1724544425;25/08/24;00:07:05;0.933;0.389;0.211;-0.4300491213798523;-0.08674286305904388;-0.62796950340271
01:00:0A:00:00:00:00;1724544426;25/08/24;00:07:06;0.961;0.263;0.128;-0.9370672702789307;-0.598647952079773;0.1417207270860672
01:00:0A:00:00:00:00;1724544427;25/08/24;00:07:07;0.941;-0.088;-0.142;-0.9382889866828918;-0.24556782841682434;0.7147123217582703
01:00:0A:00:00:00:00;1724544428;25/08/24;00:07:08;0.873;-0.224;-0.003;-0.42638394236564636;0.5571090579032898;0.11362093687057495
01:00:0A:00:00:00:00;1724544429;25/08/24;00:07:09;0.986;0.078;-0.059;-0.3188716471195221;-0.5094615817070007;-0.6988298296928406
01:00:0A:00:00:00:00;1724544430;25/08/24;00:07:10;0.961;0.272;-0.099;-0.5009095072746277;-0.02076941914856434;0.807563841342926
01:00:0A:00:00:00:00;1724544431;25/08/24;00:07:11;0.912;-0.321;0.01;-0.4862487316131592;-0.2981022298336029;0.25534167885780334
01:00:0A:00:00:00:00;1724544432;25/08/24;00:07:12;0.971;-0.022;0.061;-0.11972958594560623;0.485027015209198;-0.4312708377838135
01:00:0A:00:00:00:00;1724544433;25/08/24;00:07:13;1.024;0.171;0.0;-0.46303585171699524;-0.5448917746543884;0.322536826133728
01:00:0A:00:00:00:00;1724544434;25/08/24;00:07:14;0.955;-0.075;-0.126;-2.381152629852295;0.2773328125476837;0.3530800938606262
01:00:0A:00:00:00:00;1724544435;25/08/24;00:07:15;0.849;-0.393;0.232;-1.8264870643615723;0.901637077331543;0.5571090579032898
01:00:0A:00:00:00:00;1724544436;25/08/24;00:07:16;0.929;-0.374;0.212;-1.0641272068023682;0.5852089524269104;-0.5216788649559021
01:00:0A:00:00:00:00;1724544437;25/08/24;00:07:17;0.968;0.293;0.127;-1.0726792812347412;-0.4544837474822998;-0.7550294399261475
01:00:0A:00:00:00:00;1724544438;25/08/24;00:07:18;1.023;0.058;-0.091;-1.2583823204040527;0.17959438264369965;0.7049384713172913
01:00:0A:00:00:00:00;1724544439;25/08/24;00:07:19;0.906;-0.517;0.216;-0.9541715383529663;0.5913175940513611;-0.8197811245918274
01:00:0A:00:00:00:00;1724544440;25/08/24;00:07:20;0.881;-0.012;0.513;-1.2705997228622437;-0.26145032048225403;-0.6291911602020264
01:00:0A:00:00:00:00;1724544441;25/08/24;00:07:21;0.96;-0.364;0.055;-1.243721604347229;-0.6365215182304382;-0.76846843957901
01:00:0A:00:00:00:00;1724544442;25/08/24;00:07:22;1.008;0.179;0.138;-0.9847148060798645;0.080634206533432;0.4105014204978943
01:00:0A:00:00:00:00;1724544443;25/08/24;00:07:23;1.035;-0.146;-0.194;-0.7293730974197388;-0.3848450779914856;0.07208210229873657
01:00:0A:00:00:00:00;1724544444;25/08/24;00:07:24;0.948;0.025;0.57;-0.6548475623130798;0.22479839622974396;-0.08185594528913498
01:00:0A:00:00:00:00;1724544445;25/08/24;00:07:25;0.91;-0.099;-0.349;-1.9901989698410034;-2.1844542026519775;1.25593900680542
01:00:0A:00:00:00:00;1724544446;25/08/24;00:07:26;1.088;-0.207;0.047;-1.5320500135421753;1.1618657112121582;-1.1484266519546509
01:00:0A:00:00:00:00;1724544447;25/08/24;00:07:27;0.965;0.5;-0.072;-2.5888469219207764;-1.9449949264526367;0.4813618063926697
01:00:0A:00:00:00:00;1724544448;25/08/24;00:07:28;0.936;0.174;-0.34;-2.6792547702789307;-1.0934487581253052;2.269975185394287
01:00:0A:00:00:00:00;1724544449;25/08/24;00:07:29;0.732;0.143;0.852;-2.2406535148620605;0.039095375686883926;-1.0103710889816284
01:00:0A:00:00:00:00;1724544450;25/08/24;00:07:30;0.952;-0.142;-0.225;-2.12703275680542;-0.8637634515762329;1.164309024810791
01:00:0A:00:00:00:00;1724544451;25/08/24;00:07:31;0.675;-0.64;-0.441;-1.3463469743728638;0.656069278717041;1.224173903465271
01:00:0A:00:00:00:00;1724544452;25/08/24;00:07:32;0.802;-0.693;0.229;-0.8100073337554932;1.6603316068649292;-0.8344419002532959
01:00:0A:00:00:00:00;1724544453;25/08/24;00:07:33;0.815;0.319;0.409;-1.6322319507598877;-1.350012183189392;-0.4960225820541382
01:00:0A:00:00:00:00;1724544454;25/08/24;00:07:34;0.956;-0.039;-0.293;-1.9425513744354248;-0.8747590184211731;1.0726792812347412
01:00:0A:00:00:00:00;1724544455;25/08/24;00:07:35;0.884;0.466;-0.09;-1.027475357055664;0.27488934993743896;0.978606104850769
01:00:0A:00:00:00:00;1724544456;25/08/24;00:07:36;0.909;0.203;0.393;-1.4306464195251465;-1.5112806558609009;-0.5180137157440186
01:00:0A:00:00:00:00;1724544457;25/08/24;00:07:37;0.881;-0.489;0.127;-1.0225883722305298;1.3536773920059204;-1.359786033630371
01:00:0A:00:00:00:00;1724544458;25/08/24;00:07:38;0.84;0.362;-0.526;-1.5467108488082886;-1.359786033630371;0.8381071090698242
01:00:0A:00:00:00:00;1724544459;25/08/24;00:07:39;0.897;0.18;0.167;-1.6591099500656128;0.5558874011039734;-1.821600079536438
01:00:0A:00:00:00:00;1724544460;25/08/24;00:07:40;0.819;-0.433;-0.152;-1.8460347652435303;0.18570303916931152;2.9211573600769043
01:00:0A:00:00:00:00;1724544461;25/08/24;00:07:41;0.886;-0.135;0.6;-1.8313740491867065;0.5119050741195679;-1.214400053024292
01:00:0A:00:00:00:00;1724544462;25/08/24;00:07:42;1.005;0.362;0.057;-2.5949556827545166;-0.8967502117156982;-0.49235740303993225
01:00:0A:00:00:00:00;1724544463;25/08/24;00:07:43;1.05;0.159;0.169;-2.8625144958496094;-0.6695082783699036;1.381777048110962
01:00:0A:00:00:00:00;1724544464;25/08/24;00:07:44;0.976;-0.323;0.096;-2.280970811843872;1.1337658166885376;-0.3078760802745819
01:00:0A:00:00:00:00;1724544465;25/08/24;00:07:45;0.859;0.263;0.296;-2.0341813564300537;0.436157763004303;-1.0629055500030518
01:00:0A:00:00:00:00;1724544466;25/08/24;00:07:46;1.043;0.073;-0.182;-2.118480682373047;-0.7367035150527954;-0.5204571485519409
01:00:0A:00:00:00:00;1724544467;25/08/24;00:07:47;1.021;-0.215;0.12;-1.9034560918807983;-0.23945917189121246;0.35185837745666504
01:00:0A:00:00:00:00;1724544468;25/08/24;00:07:48;0.879;-0.415;-0.132;-0.8906415700912476;0.6597344279289246;1.3439035415649414
01:00:0A:00:00:00:00;1724544469;25/08/24;00:07:49;0.912;0.115;0.323;-0.7232644557952881;0.05619959905743599;-0.8515461683273315
01:00:0A:00:00:00:00;1724544470;25/08/24;00:07:50;0.988;0.24;0.115;-1.4477505683898926;-1.2547171115875244;0.645073652267456
01:00:0A:00:00:00:00;1724544471;25/08/24;00:07:51;0.849;-0.199;-0.252;-1.1472049951553345;0.4483751058578491;0.7635815143585205
01:00:0A:00:00:00:00;1724544472;25/08/24;00:07:52;1.002;0.222;0.108;-1.1032226085662842;-0.31642818450927734;0.1160643920302391
01:00:0A:00:00:00:00;1724544473;25/08/24;00:07:53;0.877;0.137;-0.622;-0.6902776956558228;-0.6511822938919067;0.26022857427597046
01:00:0A:00:00:00:00;1724544474;25/08/24;00:07:54;0.973;-0.09;0.394;-0.34697145223617554;0.25534167885780334;-0.0012217304902151227
01:00:0A:00:00:00:00;1724544475;25/08/24;00:07:55;1.058;0.007;-0.1;-0.2981022298336029;-0.2675589621067047;0.2174680233001709
01:00:0A:00:00:00:00;1724544476;25/08/24;00:07:56;0.925;0.068;0.43;-0.2675589621067047;0.6951646208763123;0.11362093687057495
01:00:0A:00:00:00:00;1724544477;25/08/24;00:07:57;0.922;0.024;-0.361;-0.3152064383029938;-1.1166616678237915;-0.11239919811487198
01:00:0A:00:00:00:00;1724544478;25/08/24;00:07:58;0.979;-0.208;-0.281;0.22479839622974396;0.988379955291748;0.20402899384498596
01:00:0A:00:00:00:00;1724544479;25/08/24;00:07:59;0.853;0.281;0.306;-0.3286454975605011;-0.2577851116657257;-0.5167919993400574
01:00:0A:00:00:00:00;1724544480;25/08/24;00:08:00;0.929;-0.071;-0.026;-0.8307767510414124;-1.1239920854568481;-0.012217304669320583
01:00:0A:00:00:00:00;1724544481;25/08/24;00:08:01;0.903;0.154;-0.197;-0.36651912331581116;0.6633996367454529;-0.14905111491680145
01:00:0A:00:00:00:00;1724544482;25/08/24;00:08:02;0.919;0.268;0.204;-0.6096435189247131;-0.23090705275535583;0.2932153046131134
01:00:0A:00:00:00:00;1724544483;25/08/24;00:08:03;1.054;0.066;0.175;-0.739146888256073;-0.2834414541721344;0.15393804013729095
01:00:0A:00:00:00:00;1724544484;25/08/24;00:08:04;1.083;-0.073;-0.008;-0.5448917746543884;0.3640756905078888;-0.2370157092809677
01:00:0A:00:00:00:00;1724544485;25/08/24;00:08:05;0.951;0.091;0.522;-0.6805038452148438;0.15027284622192383;0.042760565876960754
01:00:0A:00:00:00:00;1724544486;25/08/24;00:08:06;0.989;0.022;-0.337;-0.5815436840057373;-0.46670106053352356;-0.10751228034496307
01:00:0A:00:00:00:00;1724544487;25/08/24;00:08:07;1.072;-0.074;0.173;-0.3090977966785431;0.37140607833862305;0.02076941914856434
01:00:0A:00:00:00:00;1724544488;25/08/24;00:08:08;1.024;-0.291;0.297;-0.45814892649650574;-0.15393804013729095;0.01710422709584236
01:00:0A:00:00:00:00;1724544489;25/08/24;00:08:09;0.991;0.176;-0.257;-0.5155702233314514;-0.012217304669320583;0.44715335965156555
01:00:0A:00:00:00:00;1724544490;25/08/24;00:08:10;0.977;-0.438;-0.044;-0.2028072476387024;0.036651913076639175;0.018325956538319588
01:00:0A:00:00:00:00;1724544491;25/08/24;00:08:11;1.059;-0.03;-0.058;0.042760565876960754;0.1160643920302391;-0.17837265133857727
01:00:0A:00:00:00:00;1724544492;25/08/24;00:08:12;1.051;0.234;-0.06;0.0036651913542300463;0.028099799528717995;-0.1319468915462494
01:00:0A:00:00:00:00;1724544493;25/08/24;00:08:13;1.079;-0.006;0.05;-0.028099799528717995;0.018325956538319588;-0.29565879702568054
01:00:0A:00:00:00:00;1724544494;25/08/24;00:08:14;0.966;0.023;0.03;-1.8826866149902344;-0.5571090579032898;0.1563815027475357
01:00:0A:00:00:00:00;1724544495;25/08/24;00:08:15;1.001;-0.088;0.111;-1.5063936710357666;0.45204028487205505;-0.50335294008255
01:00:0A:00:00:00:00;1724544496;25/08/24;00:08:16;0.946;0.053;0.436;-1.6456708908081055;-0.00855211354792118;-0.8710938096046448
01:00:0A:00:00:00:00;1724544497;25/08/24;00:08:17;1.011;-0.268;0.161;-1.5552629232406616;-0.3066543638706207;-1.0018190145492554
01:00:0A:00:00:00:00;1724544498;25/08/24;00:08:18;0.926;0.302;0.134;-1.7702875137329102;-0.42271876335144043;-0.24190263450145721
01:00:0A:00:00:00:00;1724544499;25/08/24;00:08:19;0.967;-0.13;-0.159;-1.6420056819915771;-0.04764748737215996;0.251676470041275
01:00:0A:00:00:00:00;1724544500;25/08/24;00:08:20;0.905;-0.392;0.318;-1.2363911867141724;0.4544837474822998;0.3335324227809906
01:00:0A:00:00:00:00;1724544501;25/08/24;00:08:21;0.858;-0.505;0.099;-0.6548475623130798;0.3298672139644623;-0.3066543638706207
01:00:0A:00:00:00:00;1724544502;25/08/24;00:08:22;0.986;-0.085;0.081;-0.13805554807186127;0.2773328125476837;-0.6206390857696533
01:00:0A:00:00:00:00;1724544503;25/08/24;00:08:23;1.012;-0.088;0.016;-0.34208452701568604;-0.3579670488834381;0.6316346526145935
01:00:0A:00:00:00:00;1724544504;25/08/24;00:08:24;0.978;-0.298;-0.095;0.1722639948129654;0.33719760179519653;-0.5681046843528748
01:00:0A:00:00:00:00;1724544505;25/08/24;00:08:25;1.013;0.131;0.092;-0.025656338781118393;-0.13072516024112701;0.4239404499530792
01:00:0A:00:00:00:00;1724544506;25/08/24;00:08:26;1.034;-0.312;0.081;0.02321287989616394;-0.19303341209888458;-0.11728612333536148
01:00:0A:00:00:00:00;1724544507;25/08/24;00:08:27;1.085;0.059;-0.198;0.3579670488834381;0.009773843921720982;-0.6414085030555725
01:00:0A:00:00:00:00;1724544508;25/08/24;00:08:28;0.878;0.419;0.421;0.1258382350206375;0.375071257352829;0.021991148591041565
01:00:0A:00:00:00:00;1724544509;25/08/24;00:08:29;0.882;0.178;0.151;-1.264491081237793;0.03176499158143997;0.09529497474431992
01:00:0A:00:00:00:00;1724544510;25/08/24;00:08:30;0.925;-0.149;0.421;-1.4355332851409912;-0.32620203495025635;-0.43249258399009705
01:00:0A:00:00:00:00;1724544511;25/08/24;00:08:31;0.971;0.271;0.2;-1.57481050491333;-0.039095375686883926;-0.4141666293144226
01:00:0A:00:00:00:00;1724544512;25/08/24;00:08:32;0.948;-0.435;0.228;-1.6395622491836548;-0.06963863223791122;0.03420845419168472
01:00:0A:00:00:00:00;1724544513;25/08/24;00:08:33;1.023;-0.007;0.12;-0.9663888216018677;0.5839871764183044;-0.2675589621067047
01:00:0A:00:00:00:00;1724544514;25/08/24;00:08:34;0.972;-0.151;0.168;-0.7819074988365173;-0.10384709388017654;0.06230825558304787
01:00:0A:00:00:00:00;1724544515;25/08/24;00:08:35;0.957;0.023;0.024;-0.4948008358478546;0.1966986060142517;-0.2822197377681732
01:00:0A:00:00:00:00;1724544516;25/08/24;00:08:36;0.975;-0.004;0.217;-0.6010913848876953;-0.05009094998240471;0.07208210229873657
01:00:0A:00:00:00:00;1724544517;25/08/24;00:08:37;1.032;-0.067;0.138;-0.533896267414093;-0.19792033731937408;-0.2871066629886627
01:00:0A:00:00:00:00;1724544518;25/08/24;00:08:38;1.019;0.183;0.107;-0.06963863223791122;0.42271876335144043;-0.13561207056045532
01:00:0A:00:00:00:00;1724544519;25/08/24;00:08:39;1.002;-0.156;0.251;-0.3127630054950714;-0.12095131725072861;0.23090705275535583
01:00:0A:00:00:00:00;1724544520;25/08/24;00:08:40;1.013;-0.003;-0.1;-0.161268413066864;-0.3152064383029938;-0.24556782841682434
01:00:0A:00:00:00:00;1724544521;25/08/24;00:08:41;1.018;0.061;0.143;-0.19792033731937408;0.3347541391849518;0.11484266817569733
01:00:0A:00:00:00:00;1724544522;25/08/24;00:08:42;0.977;-0.191;0.231;-0.29077184200286865;-0.042760565876960754;0.2076941877603531
01:00:0A:00:00:00:00;1724544523;25/08/24;00:08:43;0.998;0.054;-0.03;-0.14538592100143433;-0.2076941877603531;-0.27977627515792847
01:00:0A:00:00:00:00;1724544524;25/08/24;00:08:44;0.982;0.042;0.078;-0.26022857427597046;0.27977627515792847;0.313984751701355
01:00:0A:00:00:00:00;1724544525;25/08/24;00:08:45;0.984;-0.085;0.131;-0.24068090319633484;-0.19303341209888458;-0.09773843735456467
01:00:0A:00:00:00:00;1724544526;25/08/24;00:08:46;1.013;0.053;0.0;-0.2076941877603531;-0.036651913076639175;-0.1563815027475357
01:00:0A:00:00:00:00;1724544527;25/08/24;00:08:47;1.011;0.042;0.129;-0.33719760179519653;0.05375614017248154;0.10995574295520782
01:00:0A:00:00:00:00;1724544528;25/08/24;00:08:48;1.005;-0.091;0.122;-0.33108896017074585;-0.13072516024112701;-0.09162978082895279
01:00:0A:00:00:00:00;1724544529;25/08/24;00:08:49;1.023;0.002;0.069;-0.2675589621067047;0.05009094998240471;-0.10873401165008545
01:00:0A:00:00:00:00;1724544530;25/08/24;00:08:50;1.035;0.01;0.155;-0.38240164518356323;-0.03787364438176155;0.1514945775270462
01:00:0A:00:00:00:00;1724544531;25/08/24;00:08:51;1.052;-0.103;0.018;-0.28466320037841797;-0.05742133408784866;0.019547687843441963
01:00:0A:00:00:00:00;1724544532;25/08/24;00:08:52;1.016;0.094;0.156;-0.22357667982578278;0.19425514340400696;-0.1661553531885147
01:00:0A:00:00:00:00;1724544533;25/08/24;00:08:53;0.965;-0.067;0.016;-0.32009339332580566;-0.18814648687839508;0.20402899384498596
01:00:0A:00:00:00:00;1724544534;25/08/24;00:08:54;0.96;-0.001;0.067;-0.08918632566928864;0.2724458873271942;-0.32620203495025635
01:00:0A:00:00:00:00;1724544535;25/08/24;00:08:55;1.012;0.026;0.169;-0.37629297375679016;-0.5119050741195679;0.29688048362731934
01:00:0A:00:00:00:00;1724544535;25/08/24;00:08:55;1.036;-0.185;-0.174;-0.13316862285137177;0.11850785464048386;0.025656338781118393
01:00:0A:00:00:00:00;1724544536;25/08/24;00:08:56;0.959;0.162;0.427;-0.19303341209888458;0.3433062732219696;-0.16859880089759827
01:00:0A:00:00:00:00;1724544537;25/08/24;00:08:57;0.977;-0.06;-0.12;-0.44104471802711487;-0.797789990901947;0.2565633952617645
01:00:0A:00:00:00:00;1724544538;25/08/24;00:08:58;0.958;-0.028;0.13;-0.10262535512447357;0.7855727076530457;-0.06230825558304787
01:00:0A:00:00:00:00;1724544539;25/08/24;00:08:59;0.959;0.007;0.245;-0.3286454975605011;-0.5839871764183044;-0.09529497474431992
01:00:0A:00:00:00:00;1724544540;25/08/24;00:09:00;1.016;0.028;-0.108;-0.28588491678237915;0.2382374405860901;0.12828169763088226
01:00:0A:00:00:00:00;1724544541;25/08/24;00:09:01;1.026;-0.127;0.229;-0.21624629199504852;0.2015855312347412;-0.02076941914856434
01:00:0A:00:00:00:00;1724544542;25/08/24;00:09:02;1.024;0.061;0.057;-0.2590068578720093;-0.19425514340400696;-0.16493360698223114
01:00:0A:00:00:00:00;1724544543;25/08/24;00:09:03;0.998;-0.024;0.013;-0.31031954288482666;-0.013439035043120384;0.16004669666290283
01:00:0A:00:00:00:00;1724544544;25/08/24;00:09:04;1.005;-0.089;0.122;-0.19547687470912933;0.10751228034496307;-0.08796459436416626
01:00:0A:00:00:00:00;1724544545;25/08/24;00:09:05;1.016;0.033;0.14;-0.2577851116657257;-0.1368338167667389;-0.07330382615327835
01:00:0A:00:00:00:00;1724544546;25/08/24;00:09:06;1.013;-0.002;0.008;-0.3029891550540924;-0.0659734457731247;0.09773843735456467
01:00:0A:00:00:00:00;1724544547;25/08/24;00:09:07;0.989;-0.068;0.117;-0.21380282938480377;0.15882496535778046;-0.02932153083384037
01:00:0A:00:00:00:00;1724544548;25/08/24;00:09:08;1.001;-0.014;0.141;-0.24678954482078552;-0.17592918872833252;-0.1514945775270462
01:00:0A:00:00:00:00;1724544549;25/08/24;00:09:09;1.029;0.006;0.03;-0.30543261766433716;-0.024434609338641167;0.06230825558304787
01:00:0A:00:00:00:00;1724544550;25/08/24;00:09:10;1.026;-0.101;0.11;-0.26511549949645996;0.09407324343919754;0.06841690838336945
01:00:0A:00:00:00:00;1724544551;25/08/24;00:09:11;1.014;-0.004;0.115;-0.2565633952617645;-0.051312677562236786;-0.08796459436416626
01:00:0A:00:00:00:00;1724544552;25/08/24;00:09:12;0.997;0.012;0.071;-0.3090977966785431;-0.09040805697441101;0.03787364438176155
01:00:0A:00:00:00:00;1724544553;25/08/24;00:09:13;1.011;-0.051;0.107;-0.2626720666885376;0.05619959905743599;0.00855211354792118
01:00:0A:00:00:00:00;1724544554;25/08/24;00:09:14;1.018;-0.03;0.126;-0.22602014243602753;0.028099799528717995;-0.07941248267889023
01:00:0A:00:00:00:00;1724544555;25/08/24;00:09:15;1.009;0.012;0.07;-0.2528982162475586;-0.018325956538319588;0.01710422709584236
01:00:0A:00:00:00:00;1724544556;25/08/24;00:09:16;0.992;-0.027;0.061;-0.2382374405860901;-0.0073303827084600925;0.051312677562236786
01:00:0A:00:00:00:00;1724544557;25/08/24;00:09:17;1.007;-0.029;0.102;-0.17592918872833252;0.0012217304902151227;-0.1160643920302391
01:00:0A:00:00:00:00;1724544558;25/08/24;00:09:18;1.035;0.01;0.111;-0.20525071024894714;-0.08307767659425735;-0.04642575979232788
01:00:0A:00:00:00:00;1724544559;25/08/24;00:09:19;1.046;-0.04;0.048;-0.19303341209888458;0.0;0.028099799528717995
01:00:0A:00:00:00:00;1724544560;25/08/24;00:09:20;1.013;-0.051;0.12;-0.14782939851284027;0.06841690838336945;-0.010995574295520782
01:00:0A:00:00:00:00;1724544561;25/08/24;00:09:21;0.978;-0.001;0.078;-0.16004669666290283;-0.1368338167667389;-0.051312677562236786
01:00:0A:00:00:00:00;1724544562;25/08/24;00:09:22;1.007;-0.018;0.063;-0.16371189057826996;0.039095375686883926;0.051312677562236786
01:00:0A:00:00:00:00;1724544563;25/08/24;00:09:23;1.035;-0.065;0.13;-0.10995574295520782;-0.010995574295520782;-0.1062905490398407
01:00:0A:00:00:00:00;1724544564;25/08/24;00:09:24;1.044;0.04;0.066;-0.1563815027475357;-0.03420845419168472;-0.019547687843441963
01:00:0A:00:00:00:00;1724544565;25/08/24;00:09:25;1.016;-0.094;0.077;-0.16859880089759827;0.0024434609804302454;0.1417207270860672
01:00:0A:00:00:00:00;1724544566;25/08/24;00:09:26;0.978;0.004;0.101;-0.08918632566928864;-0.02076941914856434;-0.18570303916931152
01:00:0A:00:00:00:00;1724544567;25/08/24;00:09:27;0.987;0.005;0.088;-0.19792033731937408;-0.06841690838336945;0.14905111491680145
01:00:0A:00:00:00:00;1724544568;25/08/24;00:09:28;1.023;-0.075;0.069;-0.10384709388017654;0.03787364438176155;-0.0757472887635231
01:00:0A:00:00:00:00;1724544569;25/08/24;00:09:29;1.032;0.026;0.133;-0.11728612333536148;0.004886921960860491;-0.04153883829712868
01:00:0A:00:00:00:00;1724544570;25/08/24;00:09:30;1.031;-0.032;0.056;-0.14905111491680145;-0.040317103266716;0.040317103266716
01:00:0A:00:00:00:00;1724544571;25/08/24;00:09:31;1.007;-0.054;0.077;-0.09407324343919754;0.03298672288656235;-0.004886921960860491
01:00:0A:00:00:00:00;1724544572;25/08/24;00:09:32;1.005;-0.006;0.094;-0.08674286305904388;-0.04153883829712868;-0.040317103266716
01:00:0A:00:00:00:00;1724544573;25/08/24;00:09:33;1.012;-0.022;0.08;-0.12095131725072861;-0.06108652427792549;0.08429940044879913
01:00:0A:00:00:00:00;1724544574;25/08/24;00:09:34;1.016;-0.046;0.079;-0.05864306166768074;0.01710422709584236;-0.02932153083384037
01:00:0A:00:00:00:00;1724544575;25/08/24;00:09:35;1.02;0.001;0.113;-0.06475171446800232;-0.006108652334660292;-0.028099799528717995
01:00:0A:00:00:00:00;1724544576;25/08/24;00:09:36;1.025;-0.019;0.084;-0.1014036238193512;-0.05742133408784866;0.028099799528717995
01:00:0A:00:00:00:00;1724544577;25/08/24;00:09:37;1.016;-0.025;0.077;-0.07208210229873657;0.039095375686883926;0.0
01:00:0A:00:00:00:00;1724544578;25/08/24;00:09:38;1.004;-0.003;0.119;-0.08429940044879913;0.014660765416920185;-0.018325956538319588
01:00:0A:00:00:00:00;1724544579;25/08/24;00:09:39;0.999;-0.01;0.071;-0.11972958594560623;-0.06108652427792549;0.019547687843441963
01:00:0A:00:00:00:00;1724544580;25/08/24;00:09:40;1.002;-0.021;0.07;-0.08918632566928864;0.05009094998240471;-0.010995574295520782
01:00:0A:00:00:00:00;1724544581;25/08/24;00:09:41;1.003;-0.007;0.11;-0.10873401165008545;-0.05619959905743599;-0.014660765416920185
01:00:0A:00:00:00:00;1724544582;25/08/24;00:09:42;1.022;0.0;0.067;-0.12950342893600464;-0.04642575979232788;0.00855211354792118
01:00:0A:00:00:00:00;1724544583;25/08/24;00:09:43;1.036;-0.036;0.086;-0.10384709388017654;0.0073303827084600925;-0.0354301817715168
01:00:0A:00:00:00:00;1724544584;25/08/24;00:09:44;1.038;-0.001;0.12;-0.12339477241039276;-0.0024434609804302454;-0.019547687843441963
01:00:0A:00:00:00:00;1724544585;25/08/24;00:09:45;1.026;-0.04;0.078;-0.14294245839118958;-0.03298672288656235;0.03420845419168472
01:00:0A:00:00:00:00;1724544586;25/08/24;00:09:46;0.988;-0.015;0.09;-0.1160643920302391;0.05864306166768074;-0.0073303827084600925
01:00:0A:00:00:00:00;1724544587;25/08/24;00:09:47;0.977;-0.017;0.09;-0.14782939851284027;-0.06352998316287994;0.04398229718208313
01:00:0A:00:00:00:00;1724544588;25/08/24;00:09:48;0.997;-0.02;0.071;-0.10751228034496307;-0.018325956538319588;-0.0659734457731247
01:00:0A:00:00:00:00;1724544589;25/08/24;00:09:49;1.024;-0.003;0.104;-0.11728612333536148;-0.004886921960860491;-0.0024434609804302454
01:00:0A:00:00:00:00;1724544590;25/08/24;00:09:50;1.029;-0.051;0.092;-0.1062905490398407;-0.019547687843441963;-0.03787364438176155
01:00:0A:00:00:00:00;1724544591;25/08/24;00:09:51;1.026;-0.017;0.082;-0.09651670604944229;-0.006108652334660292;-0.0073303827084600925
01:00:0A:00:00:00:00;1724544592;25/08/24;00:09:52;1.021;-0.03;0.086;-0.10751228034496307;-0.012217304669320583;0.04153883829712868
01:00:0A:00:00:00:00;1724544593;25/08/24;00:09:53;1.018;-0.023;0.096;-0.08552113175392151;-0.0036651913542300463;-0.013439035043120384
01:00:0A:00:00:00:00;1724544594;25/08/24;00:09:54;1.02;-0.008;0.091;-0.080634206533432;-0.00855211354792118;-0.009773843921720982
01:00:0A:00:00:00:00;1724544595;25/08/24;00:09:55;1.016;-0.024;0.083;-0.0708603635430336;0.03176499158143997;0.004886921960860491
01:00:0A:00:00:00:00;1724544596;25/08/24;00:09:56;1.012;-0.028;0.088;-0.06352998316287994;-0.0012217304902151227;-0.00855211354792118
01:00:0A:00:00:00:00;1724544597;25/08/24;00:09:57;1.012;-0.021;0.066;-0.06108652427792549;-0.010995574295520782;0.006108652334660292
01:00:0A:00:00:00:00;1724544598;25/08/24;00:09:58;1.009;-0.018;0.085;-0.05619959905743599;-0.021991148591041565;0.0073303827084600925
01:00:0A:00:00:00:00;1724544599;25/08/24;00:09:59;1.015;0.026;0.018;-0.08918632566928864;-0.1417207270860672;-0.08918632566928864
01:00:0A:00:00:00:00;1724544600;25/08/24;00:10:00;1.011;0.039;0.014;-0.11972958594560623;0.05619959905743599;0.00855211354792118
01:00:0A:00:00:00:00;1724544601;25/08/24;00:10:01;1.016;0.013;0.092;-0.20036379992961884;0.0659734457731247;0.08307767659425735
01:00:0A:00:00:00:00;1724544602;25/08/24;00:10:02;1.016;-0.025;0.081;-0.24434609711170197;-0.0024434609804302454;0.059864792972803116
01:00:0A:00:00:00:00;1724544603;25/08/24;00:10:03;1.019;-0.04;0.087;-0.20036379992961884;0.009773843921720982;0.010995574295520782
01:00:0A:00:00:00:00;1724544604;25/08/24;00:10:04;1.004;-0.002;0.079;-0.17104226350784302;-0.0036651913542300463;-0.05497787147760391
01:00:0A:00:00:00:00;1724544605;25/08/24;00:10:05;0.996;-0.028;0.083;-0.1722639948129654;-0.015882495790719986;0.006108652334660292
01:00:0A:00:00:00:00;1724544606;25/08/24;00:10:06;1.003;-0.04;0.074;-0.12950342893600464;-0.05253440886735916;-0.05375614017248154
01:00:0A:00:00:00:00;1724544607;25/08/24;00:10:07;1.019;-0.011;0.092;-0.1417207270860672;-0.004886921960860491;0.009773843921720982
01:00:0A:00:00:00:00;1724544608;25/08/24;00:10:08;1.024;-0.038;0.101;-0.1270599663257599;-0.021991148591041565;0.006108652334660292
01:00:0A:00:00:00:00;1724544609;25/08/24;00:10:09;1.018;-0.008;0.068;-0.09285151958465576;0.013439035043120384;-0.028099799528717995
01:00:0A:00:00:00:00;1724544610;25/08/24;00:10:10;1.011;-0.02;0.084;-0.09040805697441101;0.013439035043120384;0.006108652334660292
01:00:0A:00:00:00:00;1724544611;25/08/24;00:10:11;1.012;-0.028;0.08;-0.07941248267889023;-0.06352998316287994;-0.02321287989616394
01:00:0A:00:00:00:00;1724544612;25/08/24;00:10:12;1.01;-0.003;0.12;-0.12828169763088226;-0.009773843921720982;0.015882495790719986
01:00:0A:00:00:00:00;1724544613;25/08/24;00:10:13;1.023;-0.004;0.135;-0.16371189057826996;-0.0012217304902151227;-0.028099799528717995
01:00:0A:00:00:00:00;1724544614;25/08/24;00:10:14;1.009;0.011;0.131;-0.24678954482078552;-0.036651913076639175;0.019547687843441963
01:00:0A:00:00:00:00;1724544615;25/08/24;00:10:15;1.013;-0.019;0.089;-0.24068090319633484;-0.039095375686883926;-0.006108652334660292
01:00:0A:00:00:00:00;1724544616;25/08/24;00:10:16;1.017;-0.017;0.077;-0.21013763546943665;-0.0012217304902151227;-0.025656338781118393
01:00:0A:00:00:00:00;1724544617;25/08/24;00:10:17;1.014;-0.009;0.094;-0.20647244155406952;0.00855211354792118;0.019547687843441963
01:00:0A:00:00:00:00;1724544618;25/08/24;00:10:18;1.002;-0.028;0.07;-0.2015855312347412;-0.03787364438176155;0.024434609338641167
01:00:0A:00:00:00:00;1724544619;25/08/24;00:10:19;1.013;-0.029;0.115;-0.17592918872833252;-0.0012217304902151227;-0.02076941914856434
01:00:0A:00:00:00:00;1724544620;25/08/24;00:10:20;1.016;-0.022;0.11;-0.17470745742321014;-0.030543262138962746;-0.02321287989616394
01:00:0A:00:00:00:00;1724544621;25/08/24;00:10:21;1.013;-0.038;0.101;-0.14049901068210602;0.019547687843441963;-0.02076941914856434
01:00:0A:00:00:00:00;1724544622;25/08/24;00:10:22;1.015;-0.028;0.093;-0.12828169763088226;0.0024434609804302454;0.021991148591041565
01:00:0A:00:00:00:00;1724544623;25/08/24;00:10:23;1.011;-0.043;0.122;-0.09162978082895279;0.015882495790719986;0.03420845419168472
01:00:0A:00:00:00:00;1724544624;25/08/24;00:10:24;1.012;-0.036;0.115;-0.045204028487205505;-0.05497787147760391;-0.040317103266716
01:00:0A:00:00:00:00;1724544625;25/08/24;00:10:25;1.013;-0.041;0.099;0.0;-0.0024434609804302454;-0.00855211354792118
01:00:0A:00:00:00:00;1724544626;25/08/24;00:10:26;1.014;-0.046;0.097;0.010995574295520782;-0.045204028487205505;0.0012217304902151227
01:00:0A:00:00:00:00;1724544627;25/08/24;00:10:27;1.015;-0.025;0.078;0.028099799528717995;-0.006108652334660292;0.05009094998240471
01:00:0A:00:00:00:00;1724544628;25/08/24;00:10:28;1.011;-0.034;0.114;0.03420845419168472;0.00855211354792118;0.05375614017248154
01:00:0A:00:00:00:00;1724544629;25/08/24;00:10:29;1.012;-0.026;0.102;0.04886921867728233;-0.014660765416920185;-0.0073303827084600925
01:00:0A:00:00:00:00;1724544630;25/08/24;00:10:30;1.013;-0.037;0.115;0.05742133408784866;0.013439035043120384;0.009773843921720982
01:00:0A:00:00:00:00;1724544631;25/08/24;00:10:31;1.013;-0.045;0.108;0.059864792972803116;-0.0659734457731247;-0.03420845419168472
01:00:0A:00:00:00:00;1724544632;25/08/24;00:10:32;1.014;-0.034;0.096;0.07696902006864548;-0.02076941914856434;0.0012217304902151227
01:00:0A:00:00:00:00;1724544633;25/08/24;00:10:33;1.013;-0.047;0.119;0.08552113175392151;-0.009773843921720982;0.012217304669320583
01:00:0A:00:00:00:00;1724544634;25/08/24;00:10:34;1.014;-0.024;0.09;0.09407324343919754;0.014660765416920185;0.02076941914856434
01:00:0A:00:00:00:00;1724544635;25/08/24;00:10:35;1.014;-0.035;0.109;0.09651670604944229;0.0354301817715168;0.025656338781118393
01:00:0A:00:00:00:00;1724544636;25/08/24;00:10:36;1.013;-0.022;0.094;0.08674286305904388;-0.059864792972803116;-0.009773843921720982
01:00:0A:00:00:00:00;1724544637;25/08/24;00:10:37;1.013;-0.029;0.11;0.09651670604944229;-0.013439035043120384;0.013439035043120384
01:00:0A:00:00:00:00;1724544638;25/08/24;00:10:38;1.012;-0.021;0.12;0.08674286305904388;-0.051312677562236786;0.009773843921720982
01:00:0A:00:00:00:00;1724544639;25/08/24;00:10:39;1.015;-0.024;0.099;0.09162978082895279;0.013439035043120384;0.006108652334660292
01:00:0A:00:00:00:00;1724544640;25/08/24;00:10:40;1.012;-0.007;0.111;0.07819075137376785;0.012217304669320583;-0.015882495790719986
01:00:0A:00:00:00:00;1724544641;25/08/24;00:10:41;1.015;-0.015;0.08;0.05619959905743599;-0.01710422709584236;0.009773843921720982
01:00:0A:00:00:00:00;1724544642;25/08/24;00:10:42;1.013;-0.017;0.095;0.05619959905743599;-0.0073303827084600925;-0.014660765416920185
01:00:0A:00:00:00:00;1724544643;25/08/24;00:10:43;1.013;-0.011;0.106;0.021991148591041565;-0.051312677562236786;0.0073303827084600925
01:00:0A:00:00:00:00;1724544644;25/08/24;00:10:44;1.014;-0.021;0.099;0.02076941914856434;0.0012217304902151227;0.010995574295520782
01:00:0A:00:00:00:00;1724544645;25/08/24;00:10:45;1.014;-0.017;0.109;0.02321287989616394;0.010995574295520782;-0.0012217304902151227
01:00:0A:00:00:00:00;1724544646;25/08/24;00:10:46;1.015;-0.014;0.083;0.009773843921720982;-0.02076941914856434;0.0024434609804302454
01:00:0A:00:00:00:00;1724544647;25/08/24;00:10:47;1.015;-0.014;0.082;0.014660765416920185;0.00855211354792118;0.009773843921720982
01:00:0A:00:00:00:00;1724544648;25/08/24;00:10:48;1.015;-0.019;0.088;0.009773843921720982;-0.014660765416920185;0.004886921960860491
01:00:0A:00:00:00:00;1724544649;25/08/24;00:10:49;1.016;-0.018;0.084;0.012217304669320583;-0.01710422709584236;0.0
01:00:0A:00:00:00:00;1724544650;25/08/24;00:10:50;1.015;-0.017;0.084;0.009773843921720982;-0.021991148591041565;0.0036651913542300463
01:00:0A:00:00:00:00;1724544651;25/08/24;00:10:51;1.016;-0.021;0.089;0.013439035043120384;-0.00855211354792118;0.0024434609804302454
01:00:0A:00:00:00:00;1724544652;25/08/24;00:10:52;1.014;-0.018;0.09;0.00855211354792118;-0.010995574295520782;0.00855211354792118
01:00:0A:00:00:00:00;1724544653;25/08/24;00:10:53;1.011;-0.02;0.082;0.012217304669320583;0.0012217304902151227;0.006108652334660292
01:00:0A:00:00:00:00;1724544654;25/08/24;00:10:54;1.009;-0.015;0.086;0.010995574295520782;-0.009773843921720982;0.006108652334660292
01:00:0A:00:00:00:00;1724544655;25/08/24;00:10:55;1.009;-0.023;0.08;0.00855211354792118;-0.024434609338641167;0.0073303827084600925
01:00:0A:00:00:00:00;1724544656;25/08/24;00:10:56;1.012;-0.017;0.084;0.01710422709584236;-0.012217304669320583;-0.004886921960860491
01:00:0A:00:00:00:00;1724544657;25/08/24;00:10:57;1.011;-0.017;0.089;0.00855211354792118;-0.01710422709584236;0.014660765416920185
01:00:0A:00:00:00:00;1724544658;25/08/24;00:10:58;1.008;-0.021;0.08;0.013439035043120384;-0.013439035043120384;0.0024434609804302454
01:00:0A:00:00:00:00;1724544659;25/08/24;00:10:59;1.007;-0.014;0.085;0.014660765416920185;-0.01710422709584236;-0.00855211354792118
01:00:0A:00:00:00:00;1724544660;25/08/24;00:11:00;1.016;-0.018;0.079;0.00855211354792118;-0.024434609338641167;-0.004886921960860491
01:00:0A:00:00:00:00;1724544661;25/08/24;00:11:01;1.021;-0.019;0.086;0.004886921960860491;-0.015882495790719986;0.012217304669320583
01:00:0A:00:00:00:00;1724544662;25/08/24;00:11:02;1.018;-0.025;0.097;0.006108652334660292;-0.0024434609804302454;0.01710422709584236
01:00:0A:00:00:00:00;1724544663;25/08/24;00:11:03;1.009;-0.013;0.087;0.010995574295520782;0.019547687843441963;-0.0012217304902151227
01:00:0A:00:00:00:00;1724544664;25/08/24;00:11:04;1.007;-0.015;0.095;-0.0036651913542300463;-0.024434609338641167;0.012217304669320583
01:00:0A:00:00:00:00;1724544665;25/08/24;00:11:05;1.011;-0.024;0.071;0.00855211354792118;-0.018325956538319588;-0.01710422709584236
01:00:0A:00:00:00:00;1724544666;25/08/24;00:11:06;1.013;-0.012;0.09;0.006108652334660292;0.004886921960860491;0.006108652334660292
01:00:0A:00:00:00:00;1724544667;25/08/24;00:11:07;1.014;-0.026;0.09;-0.0036651913542300463;-0.028099799528717995;0.018325956538319588
01:00:0A:00:00:00:00;1724544668;25/08/24;00:11:08;1.018;-0.017;0.08;0.009773843921720982;-0.01710422709584236;-0.012217304669320583
01:00:0A:00:00:00:00;1724544669;25/08/24;00:11:09;1.022;-0.013;0.091;0.004886921960860491;-0.0036651913542300463;0.0036651913542300463
01:00:0A:00:00:00:00;1724544670;25/08/24;00:11:10;1.024;-0.026;0.093;0.0036651913542300463;-0.009773843921720982;0.0073303827084600925
01:00:0A:00:00:00:00;1724544671;25/08/24;00:11:11;1.022;-0.021;0.086;0.0073303827084600925;-0.0073303827084600925;0.004886921960860491
01:00:0A:00:00:00:00;1724544672;25/08/24;00:11:12;1.009;-0.015;0.084;0.004886921960860491;0.0036651913542300463;0.018325956538319588
01:00:0A:00:00:00:00;1724544673;25/08/24;00:11:13;1.004;0.003;0.101;-0.013439035043120384;-0.009773843921720982;-0.009773843921720982
01:00:0A:00:00:00:00;1724544674;25/08/24;00:11:14;1.012;-0.022;0.08;-0.03787364438176155;-0.04764748737215996;0.040317103266716
01:00:0A:00:00:00:00;1724544675;25/08/24;00:11:15;1.016;-0.035;0.081;0.0073303827084600925;0.01710422709584236;-0.03298672288656235
01:00:0A:00:00:00:00;1724544676;25/08/24;00:11:16;1.014;0.002;0.101;-0.010995574295520782;-0.010995574295520782;-0.0024434609804302454
01:00:0A:00:00:00:00;1724544677;25/08/24;00:11:17;1.012;-0.026;0.075;-0.02932153083384037;-0.040317103266716;0.036651913076639175
01:00:0A:00:00:00:00;1724544678;25/08/24;00:11:18;1.016;-0.027;0.083;0.00855211354792118;0.004886921960860491;-0.036651913076639175
01:00:0A:00:00:00:00;1724544679;25/08/24;00:11:19;1.025;-0.005;0.1;-0.010995574295520782;-0.018325956538319588;0.0024434609804302454
01:00:0A:00:00:00:00;1724544680;25/08/24;00:11:20;1.024;-0.031;0.082;-0.02321287989616394;-0.015882495790719986;0.03298672288656235
01:00:0A:00:00:00:00;1724544681;25/08/24;00:11:21;1.011;-0.024;0.084;0.0012217304902151227;0.014660765416920185;-0.006108652334660292
01:00:0A:00:00:00:00;1724544682;25/08/24;00:11:22;1.004;-0.005;0.09;-0.009773843921720982;-0.004886921960860491;-0.0012217304902151227
01:00:0A:00:00:00:00;1724544683;25/08/24;00:11:23;1.007;-0.023;0.081;-0.02321287989616394;-0.03176499158143997;0.018325956538319588
01:00:0A:00:00:00:00;1724544684;25/08/24;00:11:24;1.013;-0.026;0.079;0.004886921960860491;0.006108652334660292;-0.028099799528717995
01:00:0A:00:00:00:00;1724544685;25/08/24;00:11:25;1.015;-0.006;0.101;-0.014660765416920185;-0.013439035043120384;0.004886921960860491
01:00:0A:00:00:00:00;1724544686;25/08/24;00:11:26;1.014;-0.026;0.078;-0.02321287989616394;-0.028099799528717995;0.024434609338641167
01:00:0A:00:00:00:00;1724544687;25/08/24;00:11:27;1.014;-0.02;0.086;0.0036651913542300463;0.015882495790719986;-0.024434609338641167
01:00:0A:00:00:00:00;1724544688;25/08/24;00:11:28;1.017;-0.008;0.097;-0.01710422709584236;-0.024434609338641167;0.00855211354792118
01:00:0A:00:00:00:00;1724544689;25/08/24;00:11:29;1.02;-0.03;0.075;-0.015882495790719986;-0.014660765416920185;0.013439035043120384
01:00:0A:00:00:00:00;1724544690;25/08/24;00:11:30;1.016;-0.018;0.09;-0.0024434609804302454;0.0036651913542300463;-0.012217304669320583
01:00:0A:00:00:00:00;1724544691;25/08/24;00:11:31;1.012;-0.013;0.09;-0.018325956538319588;-0.025656338781118393;0.012217304669320583
01:00:0A:00:00:00:00;1724544692;25/08/24;00:11:32;1.011;-0.024;0.083;-0.015882495790719986;-0.010995574295520782;0.009773843921720982
01:00:0A:00:00:00:00;1724544693;25/08/24;00:11:33;1.013;-0.018;0.085;-0.004886921960860491;-0.0036651913542300463;-0.013439035043120384
01:00:0A:00:00:00:00;1724544694;25/08/24;00:11:34;1.013;-0.012;0.087;-0.015882495790719986;-0.010995574295520782;0.009773843921720982
01:00:0A:00:00:00:00;1724544695;25/08/24;00:11:35;1.01;-0.022;0.081;-0.015882495790719986;-0.02932153083384037;0.0073303827084600925
01:00:0A:00:00:00:00;1724544696;25/08/24;00:11:36;1.011;-0.017;0.081;-0.004886921960860491;-0.0073303827084600925;-0.013439035043120384
01:00:0A:00:00:00:00;1724544697;25/08/24;00:11:37;1.018;-0.013;0.096;-0.015882495790719986;-0.025656338781118393;0.004886921960860491
01:00:0A:00:00:00:00;1724544698;25/08/24;00:11:38;1.021;-0.026;0.079;-0.013439035043120384;-0.015882495790719986;0.004886921960860491
01:00:0A:00:00:00:00;1724544699;25/08/24;00:11:39;1.017;-0.018;0.091;-0.0036651913542300463;0.014660765416920185;-0.006108652334660292
01:00:0A:00:00:00:00;1724544700;25/08/24;00:11:40;1.014;-0.015;0.085;-0.018325956538319588;-0.025656338781118393;0.013439035043120384
01:00:0A:00:00:00:00;1724544701;25/08/24;00:11:41;1.01;-0.021;0.077;-0.009773843921720982;-0.004886921960860491;0.0024434609804302454
01:00:0A:00:00:00:00;1724544702;25/08/24;00:11:42;1.011;-0.014;0.092;-0.00855211354792118;-0.012217304669320583;-0.006108652334660292
01:00:0A:00:00:00:00;1724544703;25/08/24;00:11:43;1.015;-0.016;0.084;-0.015882495790719986;-0.02076941914856434;0.006108652334660292
01:00:0A:00:00:00:00;1724544704;25/08/24;00:11:44;1.016;-0.021;0.085;-0.012217304669320583;-0.0024434609804302454;0.004886921960860491
01:00:0A:00:00:00:00;1724544705;25/08/24;00:11:45;1.015;-0.017;0.088;-0.009773843921720982;-0.009773843921720982;-0.004886921960860491
01:00:0A:00:00:00:00;1724544706;25/08/24;00:11:46;1.015;-0.015;0.085;-0.015882495790719986;-0.009773843921720982;0.00855211354792118
01:00:0A:00:00:00:00;1724544707;25/08/24;00:11:47;1.016;-0.022;0.084;-0.012217304669320583;-0.015882495790719986;-0.0024434609804302454
01:00:0A:00:00:00:00;1724544708;25/08/24;00:11:48;1.016;-0.015;0.087;-0.010995574295520782;-0.004886921960860491;-0.0012217304902151227
01:00:0A:00:00:00:00;1724544709;25/08/24;00:11:49;1.017;-0.02;0.091;-0.01710422709584236;-0.02076941914856434;0.0073303827084600925
01:00:0A:00:00:00:00;1724544710;25/08/24;00:11:50;1.016;-0.019;0.082;-0.012217304669320583;-0.009773843921720982;0.0024434609804302454
01:00:0A:00:00:00:00;1724544711;25/08/24;00:11:51;1.015;-0.018;0.093;-0.010995574295520782;0.004886921960860491;0.0036651913542300463
01:00:0A:00:00:00:00;1724544712;25/08/24;00:11:52;1.014;-0.017;0.084;-0.015882495790719986;-0.021991148591041565;0.0036651913542300463
01:00:0A:00:00:00:00;1724544713;25/08/24;00:11:53;1.012;-0.019;0.081;-0.010995574295520782;-0.004886921960860491;0.0024434609804302454
01:00:0A:00:00:00:00;1724544714;25/08/24;00:11:54;1.012;-0.016;0.091;-0.010995574295520782;-0.02076941914856434;-0.004886921960860491
01:00:0A:00:00:00:00;1724544715;25/08/24;00:11:55;1.015;-0.018;0.083;-0.014660765416920185;-0.018325956538319588;0.004886921960860491
01:00:0A:00:00:00:00;1724544716;25/08/24;00:11:56;1.016;-0.021;0.089;-0.009773843921720982;-0.004886921960860491;0.0024434609804302454
01:00:0A:00:00:00:00;1724544717;25/08/24;00:11:57;1.015;-0.015;0.084;-0.010995574295520782;-0.012217304669320583;0.0
01:00:0A:00:00:00:00;1724544718;25/08/24;00:11:58;1.016;-0.017;0.085;-0.012217304669320583;-0.0073303827084600925;0.00855211354792118
01:00:0A:00:00:00:00;1724544719;25/08/24;00:11:59;1.016;-0.02;0.084;-0.009773843921720982;-0.01710422709584236;-0.0036651913542300463
01:00:0A:00:00:00:00;1724544720;25/08/24;00:12:00;1.016;-0.015;0.084;-0.009773843921720982;-0.0073303827084600925;0.0036651913542300463
01:00:0A:00:00:00:00;1724544721;25/08/24;00:12:01;1.013;-0.022;0.089;-0.010995574295520782;-0.013439035043120384;0.006108652334660292
01:00:0A:00:00:00:00;1724544722;25/08/24;00:12:02;1.013;-0.017;0.082;-0.0073303827084600925;-0.006108652334660292;0.0012217304902151227
01:00:0A:00:00:00:00;1724544723;25/08/24;00:12:03;1.013;-0.018;0.089;-0.00855211354792118;-0.0024434609804302454;0.006108652334660292
01:00:0A:00:00:00:00;1724544724;25/08/24;00:12:04;1.014;-0.018;0.082;-0.009773843921720982;-0.02076941914856434;0.0012217304902151227
01:00:0A:00:00:00:00;1724544725;25/08/24;00:12:05;1.013;-0.017;0.083;-0.0073303827084600925;-0.0036651913542300463;0.0024434609804302454
01:00:0A:00:00:00:00;1724544726;25/08/24;00:12:06;1.014;-0.018;0.089;-0.00855211354792118;-0.02076941914856434;-0.0024434609804302454
01:00:0A:00:00:00:00;1724544727;25/08/24;00:12:07;1.016;-0.018;0.084;-0.009773843921720982;-0.010995574295520782;0.0024434609804302454
01:00:0A:00:00:00:00;1724544728;25/08/24;00:12:08;1.017;-0.023;0.091;-0.00855211354792118;-0.0073303827084600925;0.0036651913542300463
01:00:0A:00:00:00:00;1724544729;25/08/24;00:12:09;1.016;-0.015;0.084;-0.010995574295520782;-0.010995574295520782;0.004886921960860491
01:00:0A:00:00:00:00;1724544730;25/08/24;00:12:10;1.012;-0.019;0.086;-0.012217304669320583;-0.006108652334660292;0.013439035043120384
01:00:0A:00:00:00:00;1724544731;25/08/24;00:12:11;1.011;-0.017;0.084;-0.009773843921720982;-0.019547687843441963;-0.00855211354792118
01:00:0A:00:00:00:00;1724544732;25/08/24;00:12:12;1.015;-0.016;0.085;-0.013439035043120384;-0.012217304669320583;0.0024434609804302454
01:00:0A:00:00:00:00;1724544733;25/08/24;00:12:13;1.016;-0.024;0.089;-0.013439035043120384;-0.014660765416920185;0.0
01:00:0A:00:00:00:00;1724544734;25/08/24;00:12:14;1.016;-0.017;0.084;-0.013439035043120384;-0.012217304669320583;0.006108652334660292
01:00:0A:00:00:00:00;1724544735;25/08/24;00:12:15;1.013;-0.019;0.086;-0.015882495790719986;-0.004886921960860491;0.009773843921720982
01:00:0A:00:00:00:00;1724544736;25/08/24;00:12:16;1.012;-0.016;0.083;-0.014660765416920185;-0.02076941914856434;-0.004886921960860491
01:00:0A:00:00:00:00;1724544737;25/08/24;00:12:17;1.016;-0.017;0.084;-0.014660765416920185;-0.0073303827084600925;-0.0024434609804302454
01:00:0A:00:00:00:00;1724544738;25/08/24;00:12:18;1.019;-0.02;0.087;-0.01710422709584236;-0.02076941914856434;-0.0012217304902151227
01:00:0A:00:00:00:00;1724544739;25/08/24;00:12:19;1.016;-0.018;0.084;-0.01710422709584236;-0.010995574295520782;0.004886921960860491
01:00:0A:00:00:00:00;1724544740;25/08/24;00:12:20;1.015;-0.019;0.09;-0.01710422709584236;-0.006108652334660292;0.0036651913542300463
01:00:0A:00:00:00:00;1724544741;25/08/24;00:12:21;1.014;-0.016;0.083;-0.018325956538319588;-0.00855211354792118;0.0024434609804302454
01:00:0A:00:00:00:00;1724544742;25/08/24;00:12:22;1.014;-0.019;0.085;-0.018325956538319588;-0.0073303827084600925;0.006108652334660292
01:00:0A:00:00:00:00;1724544743;25/08/24;00:12:23;1.014;-0.017;0.083;-0.01710422709584236;-0.015882495790719986;-0.0036651913542300463
01:00:0A:00:00:00:00;1724544744;25/08/24;00:12:24;1.013;-0.016;0.087;-0.02076941914856434;-0.009773843921720982;0.0073303827084600925
01:00:0A:00:00:00:00;1724544745;25/08/24;00:12:25;1.015;-0.022;0.087;-0.01710422709584236;-0.015882495790719986;-0.006108652334660292
01:00:0A:00:00:00:00;1724544746;25/08/24;00:12:26;1.016;-0.016;0.085;-0.019547687843441963;-0.0073303827084600925;0.0036651913542300463
01:00:0A:00:00:00:00;1724544747;25/08/24;00:12:27;1.016;-0.021;0.088;-0.02076941914856434;-0.00855211354792118;0.00855211354792118
01:00:0A:00:00:00:00;1724544748;25/08/24;00:12:28;1.013;-0.014;0.083;-0.019547687843441963;-0.014660765416920185;0.0012217304902151227
01:00:0A:00:00:00:00;1724544749;25/08/24;00:12:29;1.013;-0.016;0.087;-0.021991148591041565;-0.006108652334660292;0.0073303827084600925
01:00:0A:00:00:00:00;1724544750;25/08/24;00:12:30;1.014;-0.019;0.087;-0.019547687843441963;-0.014660765416920185;-0.0073303827084600925
01:00:0A:00:00:00:00;1724544751;25/08/24;00:12:31;1.017;-0.018;0.084;-0.021991148591041565;-0.00855211354792118;0.0036651913542300463
01:00:0A:00:00:00:00;1724544752;25/08/24;00:12:32;1.016;-0.021;0.087;-0.021991148591041565;-0.010995574295520782;0.0036651913542300463
01:00:0A:00:00:00:00;1724544753;25/08/24;00:12:33;1.013;-0.015;0.086;-0.021991148591041565;-0.013439035043120384;0.0036651913542300463
01:00:0A:00:00:00:00;1724544754;25/08/24;00:12:34;1.012;-0.019;0.086;-0.021991148591041565;-0.0073303827084600925;0.004886921960860491
01:00:0A:00:00:00:00;1724544755;25/08/24;00:12:35;1.013;-0.017;0.085;-0.02076941914856434;-0.012217304669320583;-0.006108652334660292
01:00:0A:00:00:00:00;1724544756;25/08/24;00:12:36;1.015;-0.018;0.085;-0.024434609338641167;-0.00855211354792118;0.004886921960860491
01:00:0A:00:00:00:00;1724544757;25/08/24;00:12:37;1.016;-0.019;0.086;-0.021991148591041565;-0.014660765416920185;-0.0036651913542300463
01:00:0A:00:00:00:00;1724544758;25/08/24;00:12:38;1.013;-0.017;0.085;-0.024434609338641167;-0.010995574295520782;0.006108652334660292
01:00:0A:00:00:00:00;1724544759;25/08/24;00:12:39;1.014;-0.02;0.087;-0.024434609338641167;-0.009773843921720982;0.0036651913542300463
01:00:0A:00:00:00:00;1724544760;25/08/24;00:12:40;1.015;-0.014;0.084;-0.02321287989616394;-0.010995574295520782;-0.0012217304902151227
01:00:0A:00:00:00:00;1724544761;25/08/24;00:12:41;1.015;-0.019;0.085;-0.024434609338641167;-0.009773843921720982;0.004886921960860491
01:00:0A:00:00:00:00;1724544762;25/08/24;00:12:42;1.016;-0.018;0.085;-0.02321287989616394;-0.015882495790719986;-0.0036651913542300463
01:00:0A:00:00:00:00;1724544763;25/08/24;00:12:43;1.014;-0.017;0.086;-0.025656338781118393;-0.009773843921720982;0.0073303827084600925
01:00:0A:00:00:00:00;1724544764;25/08/24;00:12:44;1.015;-0.02;0.087;-0.02321287989616394;-0.012217304669320583;-0.0012217304902151227
01:00:0A:00:00:00:00;1724544765;25/08/24;00:12:45;1.014;-0.014;0.085;-0.024434609338641167;-0.010995574295520782;0.0036651913542300463
01:00:0A:00:00:00:00;1724544766;25/08/24;00:12:46;1.014;-0.02;0.085;-0.024434609338641167;-0.013439035043120384;0.004886921960860491
01:00:0A:00:00:00:00;1724544767;25/08/24;00:12:47;1.013;-0.015;0.086;-0.021991148591041565;-0.010995574295520782;-0.0024434609804302454
01:00:0A:00:00:00:00;1724544768;25/08/24;00:12:48;1.016;-0.018;0.085;-0.024434609338641167;-0.012217304669320583;0.006108652334660292
01:00:0A:00:00:00:00;1724544769;25/08/24;00:12:49;1.016;-0.02;0.083;-0.02076941914856434;-0.00855211354792118;-0.0036651913542300463
01:00:0A:00:00:00:00;1724544770;25/08/24;00:12:50;1.015;-0.016;0.085;-0.024434609338641167;-0.014660765416920185;0.006108652334660292
01:00:0A:00:00:00:00;1724544771;25/08/24;00:12:51;1.015;-0.02;0.085;-0.021991148591041565;-0.012217304669320583;0.0012217304902151227
01:00:0A:00:00:00:00;1724544772;25/08/24;00:12:52;1.014;-0.016;0.086;-0.021991148591041565;-0.012217304669320583;0.0
01:00:0A:00:00:00:00;1724544773;25/08/24;00:12:53;1.014;-0.02;0.086;-0.02321287989616394;-0.009773843921720982;0.0036651913542300463
01:00:0A:00:00:00:00;1724544774;25/08/24;00:12:54;1.014;-0.016;0.085;-0.02076941914856434;-0.010995574295520782;-0.0036651913542300463
01:00:0A:00:00:00:00;1724544775;25/08/24;00:12:55;1.016;-0.017;0.084;-0.024434609338641167;-0.010995574295520782;0.006108652334660292
01:00:0A:00:00:00:00;1724544776;25/08/24;00:12:56;1.014;-0.02;0.085;-0.02076941914856434;-0.012217304669320583;-0.0024434609804302454
01:00:0A:00:00:00:00;1724544777;25/08/24;00:12:57;1.015;-0.016;0.087;-0.02321287989616394;-0.012217304669320583;0.004886921960860491
01:00:0A:00:00:00:00;1724544778;25/08/24;00:12:58;1.016;-0.02;0.085;-0.02321287989616394;-0.010995574295520782;0.0024434609804302454
01:00:0A:00:00:00:00;1724544779;25/08/24;00:12:59;1.014;-0.015;0.086;-0.021991148591041565;-0.00855211354792118;0.0
01:00:0A:00:00:00:00;1724544780;25/08/24;00:13:00;1.015;-0.019;0.086;-0.024434609338641167;-0.013439035043120384;0.006108652334660292
01:00:0A:00:00:00:00;1724544781;25/08/24;00:13:01;1.014;-0.018;0.086;-0.02076941914856434;-0.006108652334660292;-0.0024434609804302454
01:00:0A:00:00:00:00;1724544782;25/08/24;00:13:02;1.013;-0.016;0.086;-0.024434609338641167;-0.013439035043120384;0.006108652334660292
01:00:0A:00:00:00:00;1724544783;25/08/24;00:13:03;1.014;-0.02;0.083;-0.021991148591041565;-0.010995574295520782;-0.0012217304902151227
01:00:0A:00:00:00:00;1724544784;25/08/24;00:13:04;1.015;-0.015;0.088;-0.02321287989616394;-0.012217304669320583;0.0024434609804302454
01:00:0A:00:00:00:00;1724544785;25/08/24;00:13:05;1.016;-0.021;0.085;-0.024434609338641167;-0.010995574295520782;0.004886921960860491
01:00:0A:00:00:00:00;1724544786;25/08/24;00:13:06;1.016;-0.015;0.086;-0.02321287989616394;-0.006108652334660292;0.0
01:00:0A:00:00:00:00;1724544787;25/08/24;00:13:07;1.014;-0.018;0.084;-0.02687807008624077;-0.013439035043120384;0.004886921960860491
01:00:0A:00:00:00:00;1724544788;25/08/24;00:13:08;1.014;-0.017;0.084;-0.02321287989616394;-0.009773843921720982;-0.0024434609804302454
01:00:0A:00:00:00:00;1724544789;25/08/24;00:13:09;1.015;-0.018;0.087;-0.02687807008624077;-0.013439035043120384;0.004886921960860491
01:00:0A:00:00:00:00;1724544790;25/08/24;00:13:10;1.015;-0.02;0.084;-0.025656338781118393;-0.009773843921720982;0.0024434609804302454
01:00:0A:00:00:00:00;1724544791;25/08/24;00:13:11;1.014;-0.015;0.088;-0.025656338781118393;-0.009773843921720982;0.0
01:00:0A:00:00:00:00;1724544792;25/08/24;00:13:12;1.015;-0.018;0.083;-0.028099799528717995;-0.015882495790719986;0.0024434609804302454
01:00:0A:00:00:00:00;1724544793;25/08/24;00:13:13;1.015;-0.019;0.087;-0.025656338781118393;-0.006108652334660292;-0.0024434609804302454
01:00:0A:00:00:00:00;1724544794;25/08/24;00:13:14;1.014;-0.017;0.087;-0.02932153083384037;-0.013439035043120384;0.006108652334660292
01:00:0A:00:00:00:00;1724544795;25/08/24;00:13:15;1.014;-0.019;0.083;-0.025656338781118393;-0.0073303827084600925;0.0
01:00:0A:00:00:00:00;1724544796;25/08/24;00:13:16;1.014;-0.015;0.087;-0.028099799528717995;-0.014660765416920185;-0.0012217304902151227
01:00:0A:00:00:00:00;1724544797;25/08/24;00:13:17;1.015;-0.019;0.084;-0.02687807008624077;-0.014660765416920185;-0.0012217304902151227
01:00:0A:00:00:00:00;1724544798;25/08/24;00:13:18;1.015;-0.017;0.089;-0.02687807008624077;-0.009773843921720982;0.0
01:00:0A:00:00:00:00;1724544799;25/08/24;00:13:19;1.016;-0.019;0.084;-0.02932153083384037;-0.012217304669320583;0.006108652334660292
01:00:0A:00:00:00:00;1724544800;25/08/24;00:13:20;1.016;-0.017;0.085;-0.02687807008624077;-0.0073303827084600925;0.0
01:00:0A:00:00:00:00;1724544801;25/08/24;00:13:21;1.014;-0.016;0.086;-0.028099799528717995;-0.014660765416920185;0.0024434609804302454
01:00:0A:00:00:00:00;1724544802;25/08/24;00:13:22;1.014;-0.019;0.083;-0.02687807008624077;-0.012217304669320583;-0.0024434609804302454
01:00:0A:00:00:00:00;1724544803;25/08/24;00:13:23;1.014;-0.019;0.089;-0.028099799528717995;-0.010995574295520782;0.0036651913542300463
01:00:0A:00:00:00:00;1724544804;25/08/24;00:13:24;1.016;-0.02;0.083;-0.028099799528717995;-0.013439035043120384;0.0024434609804302454
01:00:0A:00:00:00:00;1724544805;25/08/24;00:13:25;1.016;-0.016;0.087;-0.025656338781118393;-0.0073303827084600925;0.0012217304902151227
01:00:0A:00:00:00:00;1724544806;25/08/24;00:13:26;1.015;-0.018;0.085;-0.02687807008624077;-0.015882495790719986;0.0
01:00:0A:00:00:00:00;1724544807;25/08/24;00:13:27;1.015;-0.019;0.085;-0.025656338781118393;-0.0073303827084600925;0.0024434609804302454
01:00:0A:00:00:00:00;1724544808;25/08/24;00:13:28;1.013;-0.018;0.088;-0.02687807008624077;-0.014660765416920185;0.0024434609804302454
01:00:0A:00:00:00:00;1724544809;25/08/24;00:13:29;1.014;-0.017;0.082;-0.025656338781118393;-0.010995574295520782;0.0036651913542300463
01:00:0A:00:00:00:00;1724544810;25/08/24;00:13:30;1.016;-0.017;0.088;-0.024434609338641167;-0.009773843921720982;-0.0012217304902151227
01:00:0A:00:00:00:00;1724544811;25/08/24;00:13:31;1.016;-0.019;0.084;-0.025656338781118393;-0.014660765416920185;0.0
01:00:0A:00:00:00:00;1724544812;25/08/24;00:13:32;1.015;-0.019;0.086;-0.024434609338641167;-0.0073303827084600925;0.0036651913542300463
01:00:0A:00:00:00:00;1724544813;25/08/24;00:13:33;1.015;-0.018;0.087;-0.025656338781118393;-0.014660765416920185;0.004886921960860491
01:00:0A:00:00:00:00;1724544814;25/08/24;00:13:34;1.015;-0.016;0.083;-0.02321287989616394;-0.00855211354792118;0.0012217304902151227
01:00:0A:00:00:00:00;1724544815;25/08/24;00:13:35;1.014;-0.016;0.088;-0.02321287989616394;-0.012217304669320583;-0.0012217304902151227
01:00:0A:00:00:00:00;1724544816;25/08/24;00:13:36;1.013;-0.019;0.083;-0.02321287989616394;-0.013439035043120384;-0.0012217304902151227
01:00:0A:00:00:00:00;1724544817;25/08/24;00:13:37;1.014;-0.02;0.086;-0.02321287989616394;-0.00855211354792118;0.0036651913542300463
01:00:0A:00:00:00:00;1724544818;25/08/24;00:13:38;1.014;-0.018;0.084;-0.02321287989616394;-0.015882495790719986;0.0036651913542300463
01:00:0A:00:00:00:00;1724544819;25/08/24;00:13:39;1.015;-0.018;0.084;-0.021991148591041565;-0.00855211354792118;0.0036651913542300463
01:00:0A:00:00:00:00;1724544820;25/08/24;00:13:40;1.015;-0.018;0.087;-0.021991148591041565;-0.013439035043120384;-0.0012217304902151227
01:00:0A:00:00:00:00;1724544821;25/08/24;00:13:41;1.014;-0.019;0.084;-0.02076941914856434;-0.00855211354792118;0.0012217304902151227
01:00:0A:00:00:00:00;1724544822;25/08/24;00:13:42;1.014;-0.019;0.086;-0.02076941914856434;-0.010995574295520782;0.0024434609804302454
01:00:0A:00:00:00:00;1724544823;25/08/24;00:13:43;1.015;-0.016;0.085;-0.02076941914856434;-0.014660765416920185;0.0024434609804302454
01:00:0A:00:00:00:00;1724544824;25/08/24;00:13:44;1.014;-0.017;0.087;-0.019547687843441963;-0.00855211354792118;0.0024434609804302454
01:00:0A:00:00:00:00;1724544825;25/08/24;00:13:45;1.014;-0.018;0.086;-0.019547687843441963;-0.013439035043120384;0.0
01:00:0A:00:00:00:00;1724544826;25/08/24;00:13:46;1.015;-0.019;0.083;-0.019547687843441963;-0.00855211354792118;0.0024434609804302454
01:00:0A:00:00:00:00;1724544827;25/08/24;00:13:47;1.014;-0.02;0.087;-0.019547687843441963;-0.013439035043120384;0.0024434609804302454
01:00:0A:00:00:00:00;1724544828;25/08/24;00:13:48;1.013;-0.017;0.084;-0.018325956538319588;-0.010995574295520782;0.0024434609804302454
01:00:0A:00:00:00:00;1724544829;25/08/24;00:13:49;1.014;-0.019;0.085;-0.018325956538319588;-0.00855211354792118;0.0024434609804302454
01:00:0A:00:00:00:00;1724544830;25/08/24;00:13:50;1.014;-0.018;0.085;-0.01710422709584236;-0.014660765416920185;0.0
01:00:0A:00:00:00:00;1724544831;25/08/24;00:13:51;1.016;-0.018;0.084;-0.018325956538319588;-0.009773843921720982;0.004886921960860491
01:00:0A:00:00:00:00;1724544832;25/08/24;00:13:52;1.015;-0.018;0.086;-0.01710422709584236;-0.013439035043120384;0.0
01:00:0A:00:00:00:00;1724544833;25/08/24;00:13:53;1.015;-0.017;0.084;-0.01710422709584236;-0.009773843921720982;0.0024434609804302454
01:00:0A:00:00:00:00;1724544834;25/08/24;00:13:54;1.014;-0.019;0.087;-0.015882495790719986;-0.010995574295520782;0.0
01:00:0A:00:00:00:00;1724544835;25/08/24;00:13:55;1.015;-0.017;0.085;-0.015882495790719986;-0.013439035043120384;0.0012217304902151227
01:00:0A:00:00:00:00;1724544836;25/08/24;00:13:56;1.015;-0.018;0.086;-0.015882495790719986;-0.009773843921720982;0.0036651913542300463
01:00:0A:00:00:00:00;1724544837;25/08/24;00:13:57;1.015;-0.018;0.086;-0.014660765416920185;-0.014660765416920185;0.0012217304902151227
01:00:0A:00:00:00:00;1724544838;25/08/24;00:13:58;1.014;-0.018;0.086;-0.014660765416920185;-0.00855211354792118;0.0024434609804302454
01:00:0A:00:00:00:00;1724544839;25/08/24;00:13:59;1.014;-0.02;0.086;-0.014660765416920185;-0.010995574295520782;0.0012217304902151227
01:00:0A:00:00:00:00;1724544840;25/08/24;00:14:00;1.015;-0.017;0.084;-0.013439035043120384;-0.009773843921720982;0.0012217304902151227
01:00:0A:00:00:00:00;1724544841;25/08/24;00:14:01;1.015;-0.02;0.085;-0.014660765416920185;-0.012217304669320583;0.004886921960860491
01:00:0A:00:00:00:00;1724544842;25/08/24;00:14:02;1.014;-0.018;0.085;-0.013439035043120384;-0.013439035043120384;0.0
01:00:0A:00:00:00:00;1724544843;25/08/24;00:14:03;1.015;-0.018;0.086;-0.014660765416920185;-0.009773843921720982;0.004886921960860491
01:00:0A:00:00:00:00;1724544844;25/08/24;00:14:04;1.015;-0.018;0.086;-0.012217304669320583;-0.010995574295520782;0.0
01:00:0A:00:00:00:00;1724544845;25/08/24;00:14:05;1.014;-0.017;0.085;-0.013439035043120384;-0.009773843921720982;0.0036651913542300463
01:00:0A:00:00:00:00;1724544846;25/08/24;00:14:06;1.015;-0.02;0.085;-0.012217304669320583;-0.010995574295520782;0.0012217304902151227
01:00:0A:00:00:00:00;1724544847;25/08/24;00:14:07;1.015;-0.018;0.084;-0.013439035043120384;-0.013439035043120384;0.0024434609804302454
01:00:0A:00:00:00:00;1724544848;25/08/24;00:14:08;1.016;-0.019;0.086;-0.013439035043120384;-0.010995574295520782;0.0036651913542300463
01:00:0A:00:00:00:00;1724544849;25/08/24;00:14:09;1.015;-0.019;0.086;-0.012217304669320583;-0.013439035043120384;0.0012217304902151227
01:00:0A:00:00:00:00;1724544850;25/08/24;00:14:10;1.016;-0.019;0.085;-0.012217304669320583;-0.00855211354792118;0.0036651913542300463
01:00:0A:00:00:00:00;1724544851;25/08/24;00:14:11;1.015;-0.018;0.085;-0.012217304669320583;-0.010995574295520782;0.0012217304902151227
01:00:0A:00:00:00:00;1724544852;25/08/24;00:14:12;1.014;-0.017;0.085;-0.012217304669320583;-0.012217304669320583;0.0024434609804302454
01:00:0A:00:00:00:00;1724544853;25/08/24;00:14:13;1.014;-0.019;0.086;-0.012217304669320583;-0.012217304669320583;0.0024434609804302454
01:00:0A:00:00:00:00;1724544854;25/08/24;00:14:14;1.015;-0.017;0.086;-0.010995574295520782;-0.012217304669320583;0.0012217304902151227
01:00:0A:00:00:00:00;1724544855;25/08/24;00:14:15;1.015;-0.018;0.086;-0.010995574295520782;-0.009773843921720982;0.0036651913542300463
01:00:0A:00:00:00:00;1724544856;25/08/24;00:14:16;1.015;-0.018;0.085;-0.010995574295520782;-0.012217304669320583;0.0
01:00:0A:00:00:00:00;1724544857;25/08/24;00:14:17;1.015;-0.019;0.085;-0.010995574295520782;-0.010995574295520782;0.0036651913542300463
01:00:0A:00:00:00:00;1724544858;25/08/24;00:14:18;1.015;-0.019;0.085;-0.010995574295520782;-0.012217304669320583;0.0024434609804302454
01:00:0A:00:00:00:00;1724544859;25/08/24;00:14:19;1.014;-0.017;0.085;-0.010995574295520782;-0.010995574295520782;0.0024434609804302454
01:00:0A:00:00:00:00;1724544860;25/08/24;00:14:20;1.014;-0.018;0.086;-0.009773843921720982;-0.010995574295520782;0.0024434609804302454
01:00:0A:00:00:00:00;1724544861;25/08/24;00:14:21;1.015;-0.018;0.085;-0.009773843921720982;-0.012217304669320583;0.0012217304902151227
01:00:0A:00:00:00:00;1724544862;25/08/24;00:14:22;1.015;-0.017;0.086;-0.009773843921720982;-0.010995574295520782;0.0036651913542300463
01:00:0A:00:00:00:00;1724544863;25/08/24;00:14:23;1.015;-0.019;0.085;-0.009773843921720982;-0.010995574295520782;0.0012217304902151227
01:00:0A:00:00:00:00;1724544864;25/08/24;00:14:24;1.015;-0.018;0.086;-0.009773843921720982;-0.009773843921720982;0.0036651913542300463
01:00:0A:00:00:00:00;1724544865;25/08/24;00:14:25;1.014;-0.02;0.085;-0.00855211354792118;-0.012217304669320583;0.0024434609804302454
01:00:0A:00:00:00:00;1724544866;25/08/24;00:14:26;1.014;-0.018;0.086;-0.00855211354792118;-0.012217304669320583;0.0012217304902151227
01:00:0A:00:00:00:00;1724544867;25/08/24;00:14:27;1.016;-0.019;0.085;-0.009773843921720982;-0.012217304669320583;0.0036651913542300463
01:00:0A:00:00:00:00;1724544868;25/08/24;00:14:28;1.016;-0.018;0.087;-0.00855211354792118;-0.009773843921720982;0.0012217304902151227
01:00:0A:00:00:00:00;1724544869;25/08/24;00:14:29;1.015;-0.017;0.085;-0.00855211354792118;-0.009773843921720982;0.0036651913542300463
01:00:0A:00:00:00:00;1724544870;25/08/24;00:14:30;1.013;-0.018;0.085;-0.00855211354792118;-0.012217304669320583;0.0012217304902151227
01:00:0A:00:00:00:00;1724544871;25/08/24;00:14:31;1.014;-0.018;0.085;-0.00855211354792118;-0.013439035043120384;0.0024434609804302454
01:00:0A:00:00:00:00;1724544872;25/08/24;00:14:32;1.016;-0.019;0.086;-0.0073303827084600925;-0.010995574295520782;0.0024434609804302454
01:00:0A:00:00:00:00;1724544873;25/08/24;00:14:33;1.015;-0.018;0.085;-0.0073303827084600925;-0.010995574295520782;0.0024434609804302454
01:00:0A:00:00:00:00;1724544874;25/08/24;00:14:34;1.014;-0.018;0.086;-0.0073303827084600925;-0.009773843921720982;0.0036651913542300463
01:00:0A:00:00:00:00;1724544875;25/08/24;00:14:35;1.013;-0.018;0.085;-0.006108652334660292;-0.013439035043120384;0.0012217304902151227
01:00:0A:00:00:00:00;1724544876;25/08/24;00:14:36;1.013;-0.018;0.085;-0.006108652334660292;-0.010995574295520782;0.0024434609804302454
01:00:0A:00:00:00:00;1724544877;25/08/24;00:14:37;1.016;-0.018;0.086;-0.006108652334660292;-0.012217304669320583;0.0024434609804302454
01:00:0A:00:00:00:00;1724544878;25/08/24;00:14:38;1.015;-0.018;0.086;-0.006108652334660292;-0.010995574295520782;0.0024434609804302454
01:00:0A:00:00:00:00;1724544879;25/08/24;00:14:39;1.015;-0.017;0.086;-0.006108652334660292;-0.012217304669320583;0.0036651913542300463
01:00:0A:00:00:00:00;1724544880;25/08/24;00:14:40;1.014;-0.018;0.086;-0.006108652334660292;-0.010995574295520782;0.0024434609804302454
01:00:0A:00:00:00:00;1724544881;25/08/24;00:14:41;1.015;-0.019;0.085;-0.006108652334660292;-0.012217304669320583;0.0036651913542300463
01:00:0A:00:00:00:00;1724544882;25/08/24;00:14:42;1.016;-0.018;0.086;-0.004886921960860491;-0.010995574295520782;0.0012217304902151227
01:00:0A:00:00:00:00;1724544883;25/08/24;00:14:43;1.014;-0.019;0.085;-0.004886921960860491;-0.012217304669320583;0.0036651913542300463
01:00:0A:00:00:00:00;1724544884;25/08/24;00:14:44;1.014;-0.018;0.086;-0.0036651913542300463;-0.010995574295520782;0.0024434609804302454
01:00:0A:00:00:00:00;1724544885;25/08/24;00:14:45;1.015;-0.017;0.085;-0.0036651913542300463;-0.012217304669320583;0.0024434609804302454
01:00:0A:00:00:00:00;1724544886;25/08/24;00:14:46;1.016;-0.019;0.086;-0.0036651913542300463;-0.010995574295520782;0.0036651913542300463
01:00:0A:00:00:00:00;1724544887;25/08/24;00:14:47;1.014;-0.018;0.086;-0.0036651913542300463;-0.012217304669320583;0.0024434609804302454
01:00:0A:00:00:00:00;1724544888;25/08/24;00:14:48;1.014;-0.018;0.086;-0.0036651913542300463;-0.010995574295520782;0.0036651913542300463
01:00:0A:00:00:00:00;1724544889;25/08/24;00:14:49;1.014;-0.019;0.086;-0.0024434609804302454;-0.012217304669320583;0.0012217304902151227
01:00:0A:00:00:00:00;1724544890;25/08/24;00:14:50;1.015;-0.017;0.086;-0.0024434609804302454;-0.010995574295520782;0.0024434609804302454
01:00:0A:00:00:00:00;1724544891;25/08/24;00:14:51;1.016;-0.019;0.085;-0.0012217304902151227;-0.010995574295520782;0.0036651913542300463
01:00:0A:00:00:00:00;1724544892;25/08/24;00:14:52;1.014;-0.017;0.085;-0.0012217304902151227;-0.012217304669320583;0.0024434609804302454
01:00:0A:00:00:00:00;1724544893;25/08/24;00:14:53;1.014;-0.018;0.086;-0.0012217304902151227;-0.010995574295520782;0.0036651913542300463
01:00:0A:00:00:00:00;1724544894;25/08/24;00:14:54;1.013;-0.018;0.085;-0.0012217304902151227;-0.012217304669320583;0.0012217304902151227
01:00:0A:00:00:00:00;1724544895;25/08/24;00:14:55;1.016;-0.018;0.084;-0.0012217304902151227;-0.010995574295520782;0.0036651913542300463
01:00:0A:00:00:00:00;1724544896;25/08/24;00:14:56;1.016;-0.019;0.086;0.0;-0.012217304669320583;0.0024434609804302454
01:00:0A:00:00:00:00;1724544897;25/08/24;00:14:57;1.015;-0.018;0.085;0.0;-0.012217304669320583;0.0036651913542300463
01:00:0A:00:00:00:00;1724544898;25/08/24;00:14:58;1.016;-0.019;0.086;0.0;-0.010995574295520782;0.0036651913542300463
01:00:0A:00:00:00:00;1724544899;25/08/24;00:14:59;1.015;-0.018;0.085;0.0012217304902151227;-0.012217304669320583;0.0024434609804302454
01:00:0A:00:00:00:00;1724544900;25/08/24;00:15:00;1.014;-0.018;0.085;0.0;-0.010995574295520782;0.0036651913542300463
01:00:0A:00:00:00:00;1724544901;25/08/24;00:15:01;1.015;-0.019;0.085;0.0012217304902151227;-0.012217304669320583;0.0024434609804302454
01:00:0A:00:00:00:00;1724544902;25/08/24;00:15:02;1.016;-0.017;0.084;0.0012217304902151227;-0.010995574295520782;0.0036651913542300463
01:00:0A:00:00:00:00;1724544903;25/08/24;00:15:03;1.015;-0.018;0.086;0.0012217304902151227;-0.010995574295520782;0.0036651913542300463
01:00:0A:00:00:00:00;1724544904;25/08/24;00:15:04;1.015;-0.017;0.086;0.0012217304902151227;-0.010995574295520782;0.0024434609804302454
01:00:0A:00:00:00:00;1724544905;25/08/24;00:15:05;1.015;-0.018;0.086;0.0012217304902151227;-0.012217304669320583;0.0036651913542300463
