Source;Epoch timestamp (UTC);Date;Time (UTC);Accel X (G);Accel Y (G);Accel Z (G);Gyro X (rad/s);Gyro Y (rad/s);Gyro Z (rad/s)
01:00:0A:00:00:00:00;1722643200;03/08/24;00:00:00;1.014;-0.025;0.1;-0.0073303827084600925;-0.010995574295520782;0.0024434609804302454
01:00:0A:00:00:00:00;1722643201;03/08/24;00:00:01;1.013;-0.024;0.098;-0.0073303827084600925;-0.010995574295520782;0.0036651913542300463
01:00:0A:00:00:00:00;1722643202;03/08/24;00:00:02;1.013;-0.025;0.099;-0.006108652334660292;-0.010995574295520782;0.0024434609804302454
01:00:0A:00:00:00:00;1722643203;03/08/24;00:00:03;1.013;-0.024;0.099;-0.006108652334660292;-0.010995574295520782;0.0036651913542300463
01:00:0A:00:00:00:00;1722643204;03/08/24;00:00:04;1.012;-0.024;0.099;-0.006108652334660292;-0.010995574295520782;0.0024434609804302454
01:00:0A:00:00:00:00;1722643205;03/08/24;00:00:05;1.013;-0.025;0.098;-0.006108652334660292;-0.010995574295520782;0.0036651913542300463
01:00:0A:00:00:00:00;1722643206;03/08/24;00:00:06;1.012;-0.026;0.099;-0.004886921960860491;-0.010995574295520782;0.0036651913542300463
01:00:0A:00:00:00:00;1722643207;03/08/24;00:00:07;1.013;-0.025;0.099;-0.004886921960860491;-0.010995574295520782;0.0036651913542300463
01:00:0A:00:00:00:00;1722643208;03/08/24;00:00:08;1.013;-0.025;0.099;-0.004886921960860491;-0.010995574295520782;0.0036651913542300463
01:00:0A:00:00:00:00;1722643209;03/08/24;00:00:09;1.012;-0.026;0.098;-0.004886921960860491;-0.010995574295520782;0.0036651913542300463
01:00:0A:00:00:00:00;1722643210;03/08/24;00:00:10;1.012;-0.025;0.099;-0.0036651913542300463;-0.010995574295520782;0.0036651913542300463
01:00:0A:00:00:00:00;1722643211;03/08/24;00:00:11;1.013;-0.025;0.099;-0.0036651913542300463;-0.010995574295520782;0.0036651913542300463
01:00:0A:00:00:00:00;1722643212;03/08/24;00:00:12;1.012;-0.023;0.099;-0.0036651913542300463;-0.010995574295520782;0.0036651913542300463
01:00:0A:00:00:00:00;1722643213;03/08/24;00:00:13;1.013;-0.025;0.099;-0.0036651913542300463;-0.010995574295520782;0.0036651913542300463
01:00:0A:00:00:00:00;1722643214;03/08/24;00:00:14;1.013;-0.025;0.099;-0.0036651913542300463;-0.010995574295520782;0.0036651913542300463
01:00:0A:00:00:00:00;1722643215;03/08/24;00:00:15;1.013;-0.024;0.099;-0.0036651913542300463;-0.010995574295520782;0.0036651913542300463
01:00:0A:00:00:00:00;1722643216;03/08/24;00:00:16;1.012;-0.026;0.099;-0.0024434609804302454;-0.010995574295520782;0.0036651913542300463
01:00:0A:00:00:00:00;1722643217;03/08/24;00:00:17;1.013;-0.026;0.099;-0.0024434609804302454;-0.010995574295520782;0.0036651913542300463
01:00:0A:00:00:00:00;1722643218;03/08/24;00:00:18;1.012;-0.026;0.099;-0.0036651913542300463;-0.010995574295520782;0.0036651913542300463
01:00:0A:00:00:00:00;1722643219;03/08/24;00:00:19;1.013;-0.024;0.099;-0.0024434609804302454;-0.010995574295520782;0.0036651913542300463
01:00:0A:00:00:00:00;1722643220;03/08/24;00:00:20;1.013;-0.025;0.098;-0.0024434609804302454;-0.010995574295520782;0.0036651913542300463
01:00:0A:00:00:00:00;1722643221;03/08/24;00:00:21;1.012;-0.025;0.098;-0.0024434609804302454;-0.010995574295520782;0.0036651913542300463
01:00:0A:00:00:00:00;1722643222;03/08/24;00:00:22;1.013;-0.025;0.099;-0.0024434609804302454;-0.010995574295520782;0.0036651913542300463
01:00:0A:00:00:00:00;1722643223;03/08/24;00:00:23;1.014;-0.025;0.099;-0.0024434609804302454;-0.010995574295520782;0.0036651913542300463
01:00:0A:00:00:00:00;1722643224;03/08/24;00:00:24;1.012;-0.025;0.1;-0.0024434609804302454;-0.010995574295520782;0.0036651913542300463
01:00:0A:00:00:00:00;1722643225;03/08/24;00:00:25;1.014;-0.025;0.097;-0.0024434609804302454;-0.010995574295520782;0.0036651913542300463
01:00:0A:00:00:00:00;1722643226;03/08/24;00:00:26;1.014;-0.026;0.098;-0.0024434609804302454;-0.010995574295520782;0.0036651913542300463
01:00:0A:00:00:00:00;1722643227;03/08/24;00:00:27;1.013;-0.025;0.098;-0.0024434609804302454;-0.010995574295520782;0.0036651913542300463
01:00:0A:00:00:00:00;1722643228;03/08/24;00:00:28;1.012;-0.025;0.098;-0.0024434609804302454;-0.010995574295520782;0.0036651913542300463
01:00:0A:00:00:00:00;1722643229;03/08/24;00:00:29;1.013;-0.023;0.098;-0.0024434609804302454;-0.010995574295520782;0.0036651913542300463
01:00:0A:00:00:00:00;1722643230;03/08/24;00:00:30;1.013;-0.025;0.099;-0.0024434609804302454;-0.010995574295520782;0.0036651913542300463
01:00:0A:00:00:00:00;1722643231;03/08/24;00:00:31;1.014;-0.025;0.099;-0.0024434609804302454;-0.010995574295520782;0.0036651913542300463
01:00:0A:00:00:00:00;1722643232;03/08/24;00:00:32;1.013;-0.024;0.098;-0.0024434609804302454;-0.010995574295520782;0.0036651913542300463
01:00:0A:00:00:00:00;1722643233;03/08/24;00:00:33;1.013;-0.024;0.099;-0.0024434609804302454;-0.010995574295520782;0.0036651913542300463
01:00:0A:00:00:00:00;1722643234;03/08/24;00:00:34;1.013;-0.024;0.099;-0.0024434609804302454;-0.012217304669320583;0.0036651913542300463
01:00:0A:00:00:00:00;1722643235;03/08/24;00:00:35;1.013;-0.026;0.098;-0.0012217304902151227;-0.010995574295520782;0.0036651913542300463
01:00:0A:00:00:00:00;1722643236;03/08/24;00:00:36;1.012;-0.025;0.1;-0.0024434609804302454;-0.012217304669320583;0.0036651913542300463
01:00:0A:00:00:00:00;1722643237;03/08/24;00:00:37;1.013;-0.025;0.098;-0.0024434609804302454;-0.010995574295520782;0.0036651913542300463
01:00:0A:00:00:00:00;1722643238;03/08/24;00:00:38;1.013;-0.025;0.099;-0.0012217304902151227;-0.010995574295520782;0.0036651913542300463
01:00:0A:00:00:00:00;1722643239;03/08/24;00:00:39;1.013;-0.024;0.098;-0.0024434609804302454;-0.010995574295520782;0.0036651913542300463
01:00:0A:00:00:00:00;1722643240;03/08/24;00:00:40;1.013;-0.026;0.099;-0.0012217304902151227;-0.010995574295520782;0.0036651913542300463
01:00:0A:00:00:00:00;1722643241;03/08/24;00:00:41;1.013;-0.025;0.098;-0.0012217304902151227;-0.010995574295520782;0.004886921960860491
01:00:0A:00:00:00:00;1722643242;03/08/24;00:00:42;1.012;-0.025;0.099;-0.0012217304902151227;-0.010995574295520782;0.0036651913542300463
01:00:0A:00:00:00:00;1722643243;03/08/24;00:00:43;1.013;-0.026;0.098;-0.0012217304902151227;-0.010995574295520782;0.0036651913542300463
01:00:0A:00:00:00:00;1722643244;03/08/24;00:00:44;1.013;-0.025;0.099;-0.0012217304902151227;-0.010995574295520782;0.0036651913542300463
01:00:0A:00:00:00:00;1722643245;03/08/24;00:00:45;1.013;-0.024;0.099;-0.0012217304902151227;-0.010995574295520782;0.0036651913542300463
01:00:0A:00:00:00:00;1722643246;03/08/24;00:00:46;1.013;-0.024;0.099;-0.0012217304902151227;-0.010995574295520782;0.0036651913542300463
01:00:0A:00:00:00:00;1722643247;03/08/24;00:00:47;1.013;-0.025;0.098;0.0;-0.010995574295520782;0.0036651913542300463
01:00:0A:00:00:00:00;1722643248;03/08/24;00:00:48;1.013;-0.025;0.098;0.0;-0.012217304669320583;0.0036651913542300463
01:00:0A:00:00:00:00;1722643249;03/08/24;00:00:49;1.013;-0.024;0.098;0.0;-0.010995574295520782;0.0036651913542300463
01:00:0A:00:00:00:00;1722643250;03/08/24;00:00:50;1.012;-0.025;0.099;0.0;-0.010995574295520782;0.0036651913542300463
01:00:0A:00:00:00:00;1722643251;03/08/24;00:00:51;1.013;-0.026;0.098;0.0;-0.010995574295520782;0.0036651913542300463
01:00:0A:00:00:00:00;1722643252;03/08/24;00:00:52;1.013;-0.024;0.099;0.0;-0.010995574295520782;0.0036651913542300463
01:00:0A:00:00:00:00;1722643253;03/08/24;00:00:53;1.014;-0.024;0.098;0.0012217304902151227;-0.010995574295520782;0.0036651913542300463
01:00:0A:00:00:00:00;1722643254;03/08/24;00:00:54;1.013;-0.024;0.098;0.0012217304902151227;-0.010995574295520782;0.0036651913542300463
01:00:0A:00:00:00:00;1722643255;03/08/24;00:00:55;1.012;-0.024;0.099;0.0012217304902151227;-0.012217304669320583;0.0036651913542300463
01:00:0A:00:00:00:00;1722643256;03/08/24;00:00:56;1.012;-0.026;0.099;0.0012217304902151227;-0.010995574295520782;0.0036651913542300463
01:00:0A:00:00:00:00;1722643257;03/08/24;00:00:57;1.013;-0.023;0.099;0.0012217304902151227;-0.010995574295520782;0.0036651913542300463
01:00:0A:00:00:00:00;1722643258;03/08/24;00:00:58;1.012;-0.024;0.099;0.0012217304902151227;-0.010995574295520782;0.0036651913542300463
01:00:0A:00:00:00:00;1722643259;03/08/24;00:00:59;1.014;-0.025;0.099;0.0012217304902151227;-0.010995574295520782;0.0036651913542300463
01:00:0A:00:00:00:00;1722643260;03/08/24;00:01:00;1.013;-0.024;0.099;0.0012217304902151227;-0.012217304669320583;0.0036651913542300463
01:00:0A:00:00:00:00;1722643261;03/08/24;00:01:01;1.014;-0.026;0.098;0.0012217304902151227;-0.010995574295520782;0.0036651913542300463
01:00:0A:00:00:00:00;1722643262;03/08/24;00:01:02;1.013;-0.025;0.099;0.0012217304902151227;-0.010995574295520782;0.0036651913542300463
01:00:0A:00:00:00:00;1722643263;03/08/24;00:01:03;1.013;-0.025;0.099;0.0012217304902151227;-0.010995574295520782;0.0036651913542300463
01:00:0A:00:00:00:00;1722643264;03/08/24;00:01:04;1.013;-0.025;0.099;0.0012217304902151227;-0.010995574295520782;0.0036651913542300463
01:00:0A:00:00:00:00;1722643265;03/08/24;00:01:05;1.013;-0.025;0.098;0.0012217304902151227;-0.012217304669320583;0.0036651913542300463
01:00:0A:00:00:00:00;1722643266;03/08/24;00:01:06;1.012;-0.025;0.099;0.0012217304902151227;-0.010995574295520782;0.0036651913542300463
01:00:0A:00:00:00:00;1722643267;03/08/24;00:01:07;1.013;-0.026;0.099;0.0012217304902151227;-0.010995574295520782;0.004886921960860491
01:00:0A:00:00:00:00;1722643268;03/08/24;00:01:08;1.014;-0.024;0.098;0.0012217304902151227;-0.010995574295520782;0.0036651913542300463
01:00:0A:00:00:00:00;1722643269;03/08/24;00:01:09;1.013;-0.025;0.1;0.0012217304902151227;-0.010995574295520782;0.0036651913542300463
01:00:0A:00:00:00:00;1722643270;03/08/24;00:01:10;1.013;-0.025;0.098;0.0012217304902151227;-0.010995574295520782;0.0036651913542300463
01:00:0A:00:00:00:00;1722643271;03/08/24;00:01:11;1.013;-0.025;0.097;0.0012217304902151227;-0.010995574295520782;0.0036651913542300463
01:00:0A:00:00:00:00;1722643272;03/08/24;00:01:12;1.012;-0.024;0.098;0.0012217304902151227;-0.012217304669320583;0.0036651913542300463
01:00:0A:00:00:00:00;1722643273;03/08/24;00:01:13;1.013;-0.025;0.098;0.0012217304902151227;-0.010995574295520782;0.0036651913542300463
01:00:0A:00:00:00:00;1722643274;03/08/24;00:01:14;1.013;-0.024;0.099;0.0012217304902151227;-0.012217304669320583;0.0036651913542300463
01:00:0A:00:00:00:00;1722643275;03/08/24;00:01:15;1.013;-0.025;0.098;0.0012217304902151227;-0.010995574295520782;0.0036651913542300463
01:00:0A:00:00:00:00;1722643276;03/08/24;00:01:16;1.012;-0.026;0.1;0.0012217304902151227;-0.010995574295520782;0.0036651913542300463
01:00:0A:00:00:00:00;1722643277;03/08/24;00:01:17;1.013;-0.025;0.098;0.0012217304902151227;-0.010995574295520782;0.0036651913542300463
01:00:0A:00:00:00:00;1722643278;03/08/24;00:01:18;1.014;-0.024;0.099;0.0012217304902151227;-0.010995574295520782;0.0036651913542300463
01:00:0A:00:00:00:00;1722643279;03/08/24;00:01:19;1.014;-0.025;0.099;0.0012217304902151227;-0.012217304669320583;0.0036651913542300463
01:00:0A:00:00:00:00;1722643280;03/08/24;00:01:20;1.013;-0.024;0.099;0.0024434609804302454;-0.010995574295520782;0.0036651913542300463
01:00:0A:00:00:00:00;1722643281;03/08/24;00:01:21;1.012;-0.024;0.099;0.0024434609804302454;-0.010995574295520782;0.004886921960860491
01:00:0A:00:00:00:00;1722643282;03/08/24;00:01:22;1.013;-0.025;0.098;0.0024434609804302454;-0.010995574295520782;0.0036651913542300463
01:00:0A:00:00:00:00;1722643283;03/08/24;00:01:23;1.014;-0.024;0.099;0.0024434609804302454;-0.010995574295520782;0.004886921960860491
01:00:0A:00:00:00:00;1722643284;03/08/24;00:01:24;1.013;-0.024;0.098;0.0024434609804302454;-0.010995574295520782;0.0036651913542300463
01:00:0A:00:00:00:00;1722643285;03/08/24;00:01:25;1.013;-0.025;0.099;0.0036651913542300463;-0.010995574295520782;0.0036651913542300463
01:00:0A:00:00:00:00;1722643286;03/08/24;00:01:26;1.012;-0.025;0.099;0.0024434609804302454;-0.010995574295520782;0.0036651913542300463
01:00:0A:00:00:00:00;1722643287;03/08/24;00:01:27;1.014;-0.025;0.099;0.0036651913542300463;-0.010995574295520782;0.0036651913542300463
01:00:0A:00:00:00:00;1722643288;03/08/24;00:01:28;1.012;-0.025;0.099;0.0036651913542300463;-0.012217304669320583;0.0036651913542300463
01:00:0A:00:00:00:00;1722643289;03/08/24;00:01:29;1.013;-0.026;0.098;0.0036651913542300463;-0.010995574295520782;0.0036651913542300463
01:00:0A:00:00:00:00;1722643290;03/08/24;00:01:30;1.013;-0.025;0.099;0.0036651913542300463;-0.010995574295520782;0.004886921960860491
01:00:0A:00:00:00:00;1722643291;03/08/24;00:01:31;1.012;-0.026;0.098;0.0036651913542300463;-0.010995574295520782;0.0036651913542300463
01:00:0A:00:00:00:00;1722643292;03/08/24;00:01:32;1.013;-0.025;0.099;0.0036651913542300463;-0.010995574295520782;0.004886921960860491
01:00:0A:00:00:00:00;1722643293;03/08/24;00:01:33;1.013;-0.024;0.098;0.0036651913542300463;-0.010995574295520782;0.0036651913542300463
01:00:0A:00:00:00:00;1722643294;03/08/24;00:01:34;1.012;-0.024;0.098;0.0036651913542300463;-0.010995574295520782;0.0036651913542300463
01:00:0A:00:00:00:00;1722643295;03/08/24;00:01:35;1.014;-0.024;0.098;0.0036651913542300463;-0.010995574295520782;0.0036651913542300463
01:00:0A:00:00:00:00;1722643296;03/08/24;00:01:36;1.013;-0.024;0.099;0.0036651913542300463;-0.010995574295520782;0.004886921960860491
01:00:0A:00:00:00:00;1722643297;03/08/24;00:01:37;1.014;-0.025;0.099;0.0036651913542300463;-0.010995574295520782;0.0036651913542300463
01:00:0A:00:00:00:00;1722643298;03/08/24;00:01:38;1.012;-0.025;0.099;0.0036651913542300463;-0.010995574295520782;0.0036651913542300463
01:00:0A:00:00:00:00;1722643299;03/08/24;00:01:39;1.012;-0.026;0.099;0.0036651913542300463;-0.010995574295520782;0.0036651913542300463
01:00:0A:00:00:00:00;1722643300;03/08/24;00:01:40;1.013;-0.025;0.099;0.0036651913542300463;-0.010995574295520782;0.004886921960860491
01:00:0A:00:00:00:00;1722643301;03/08/24;00:01:41;1.013;-0.025;0.099;0.0024434609804302454;-0.010995574295520782;0.004886921960860491
01:00:0A:00:00:00:00;1722643302;03/08/24;00:01:42;1.014;-0.024;0.099;0.0024434609804302454;-0.010995574295520782;0.0036651913542300463
01:00:0A:00:00:00:00;1722643303;03/08/24;00:01:43;1.012;-0.025;0.099;0.0036651913542300463;-0.010995574295520782;0.004886921960860491
01:00:0A:00:00:00:00;1722643304;03/08/24;00:01:44;1.013;-0.024;0.099;0.0024434609804302454;-0.010995574295520782;0.0036651913542300463
01:00:0A:00:00:00:00;1722643305;03/08/24;00:01:45;1.012;-0.024;0.098;0.0024434609804302454;-0.010995574295520782;0.004886921960860491
01:00:0A:00:00:00:00;1722643306;03/08/24;00:01:46;1.013;-0.025;0.097;0.0024434609804302454;-0.010995574295520782;0.0036651913542300463
01:00:0A:00:00:00:00;1722643307;03/08/24;00:01:47;1.013;-0.024;0.098;0.0024434609804302454;-0.010995574295520782;0.004886921960860491
01:00:0A:00:00:00:00;1722643308;03/08/24;00:01:48;1.013;-0.025;0.099;0.0024434609804302454;-0.010995574295520782;0.0036651913542300463
01:00:0A:00:00:00:00;1722643309;03/08/24;00:01:49;1.012;-0.024;0.099;0.0024434609804302454;-0.010995574295520782;0.0036651913542300463
01:00:0A:00:00:00:00;1722643310;03/08/24;00:01:50;1.013;-0.025;0.098;0.0024434609804302454;-0.010995574295520782;0.0036651913542300463
01:00:0A:00:00:00:00;1722643311;03/08/24;00:01:51;1.013;-0.025;0.099;0.0024434609804302454;-0.010995574295520782;0.0036651913542300463
01:00:0A:00:00:00:00;1722643312;03/08/24;00:01:52;1.012;-0.023;0.098;0.0024434609804302454;-0.010995574295520782;0.0036651913542300463
01:00:0A:00:00:00:00;1722643313;03/08/24;00:01:53;1.013;-0.025;0.098;0.0024434609804302454;-0.010995574295520782;0.004886921960860491
01:00:0A:00:00:00:00;1722643314;03/08/24;00:01:54;1.013;-0.025;0.099;0.0012217304902151227;-0.012217304669320583;0.0036651913542300463
01:00:0A:00:00:00:00;1722643315;03/08/24;00:01:55;1.013;-0.024;0.098;0.0012217304902151227;-0.010995574295520782;0.004886921960860491
01:00:0A:00:00:00:00;1722643316;03/08/24;00:01:56;1.012;-0.025;0.098;0.0012217304902151227;-0.010995574295520782;0.0036651913542300463
01:00:0A:00:00:00:00;1722643317;03/08/24;00:01:57;1.013;-0.024;0.098;0.0012217304902151227;-0.010995574295520782;0.0036651913542300463
01:00:0A:00:00:00:00;1722643318;03/08/24;00:01:58;1.012;-0.023;0.099;0.0012217304902151227;-0.010995574295520782;0.0036651913542300463
01:00:0A:00:00:00:00;1722643319;03/08/24;00:01:59;1.012;-0.025;0.099;0.0012217304902151227;-0.012217304669320583;0.004886921960860491
01:00:0A:00:00:00:00;1722643320;03/08/24;00:02:00;1.014;-0.025;0.099;0.0012217304902151227;-0.010995574295520782;0.0036651913542300463
01:00:0A:00:00:00:00;1722643321;03/08/24;00:02:01;1.013;-0.024;0.099;0.0012217304902151227;-0.010995574295520782;0.0036651913542300463
01:00:0A:00:00:00:00;1722643322;03/08/24;00:02:02;1.013;-0.024;0.098;0.0012217304902151227;-0.010995574295520782;0.0036651913542300463
01:00:0A:00:00:00:00;1722643323;03/08/24;00:02:03;1.013;-0.026;0.099;0.0012217304902151227;-0.010995574295520782;0.0036651913542300463
01:00:0A:00:00:00:00;1722643324;03/08/24;00:02:04;1.013;-0.024;0.098;0.0012217304902151227;-0.010995574295520782;0.0036651913542300463
01:00:0A:00:00:00:00;1722643325;03/08/24;00:02:05;1.013;-0.024;0.098;0.0012217304902151227;-0.010995574295520782;0.0036651913542300463
01:00:0A:00:00:00:00;1722643326;03/08/24;00:02:06;1.013;-0.025;0.098;0.0;-0.010995574295520782;0.004886921960860491
01:00:0A:00:00:00:00;1722643327;03/08/24;00:02:07;1.013;-0.025;0.098;0.0;-0.010995574295520782;0.0036651913542300463
01:00:0A:00:00:00:00;1722643328;03/08/24;00:02:08;1.013;-0.024;0.099;0.0;-0.012217304669320583;0.0036651913542300463
01:00:0A:00:00:00:00;1722643329;03/08/24;00:02:09;1.014;-0.025;0.099;0.0;-0.010995574295520782;0.0036651913542300463
01:00:0A:00:00:00:00;1722643330;03/08/24;00:02:10;1.013;-0.025;0.099;0.0;-0.010995574295520782;0.0036651913542300463
01:00:0A:00:00:00:00;1722643331;03/08/24;00:02:11;1.013;-0.025;0.099;0.0;-0.012217304669320583;0.0036651913542300463
01:00:0A:00:00:00:00;1722643332;03/08/24;00:02:12;1.013;-0.025;0.099;0.0;-0.010995574295520782;0.0036651913542300463
01:00:0A:00:00:00:00;1722643333;03/08/24;00:02:13;1.013;-0.025;0.098;0.0;-0.012217304669320583;0.0036651913542300463
01:00:0A:00:00:00:00;1722643334;03/08/24;00:02:14;1.013;-0.025;0.098;0.0;-0.010995574295520782;0.0036651913542300463
01:00:0A:00:00:00:00;1722643335;03/08/24;00:02:15;1.012;-0.025;0.1;0.0;-0.010995574295520782;0.0036651913542300463
01:00:0A:00:00:00:00;1722643336;03/08/24;00:02:16;1.014;-0.024;0.098;-0.0012217304902151227;-0.010995574295520782;0.004886921960860491
01:00:0A:00:00:00:00;1722643337;03/08/24;00:02:17;1.013;-0.026;0.098;0.0;-0.010995574295520782;0.0036651913542300463
01:00:0A:00:00:00:00;1722643338;03/08/24;00:02:18;1.013;-0.025;0.099;0.0;-0.010995574295520782;0.0036651913542300463
01:00:0A:00:00:00:00;1722643339;03/08/24;00:02:19;1.013;-0.025;0.099;0.0;-0.010995574295520782;0.0036651913542300463
01:00:0A:00:00:00:00;1722643340;03/08/24;00:02:20;1.013;-0.024;0.098;-0.0012217304902151227;-0.010995574295520782;0.004886921960860491
01:00:0A:00:00:00:00;1722643341;03/08/24;00:02:21;1.013;-0.026;0.098;0.0;-0.010995574295520782;0.0036651913542300463
01:00:0A:00:00:00:00;1722643342;03/08/24;00:02:22;1.012;-0.025;0.099;-0.0012217304902151227;-0.010995574295520782;0.0036651913542300463
01:00:0A:00:00:00:00;1722643343;03/08/24;00:02:23;1.013;-0.025;0.099;-0.0012217304902151227;-0.010995574295520782;0.0036651913542300463
01:00:0A:00:00:00:00;1722643344;03/08/24;00:02:24;1.013;-0.024;0.098;-0.0012217304902151227;-0.010995574295520782;0.0036651913542300463
01:00:0A:00:00:00:00;1722643345;03/08/24;00:02:25;1.013;-0.025;0.098;-0.0012217304902151227;-0.010995574295520782;0.0036651913542300463
01:00:0A:00:00:00:00;1722643346;03/08/24;00:02:26;1.012;-0.024;0.098;-0.0012217304902151227;-0.010995574295520782;0.0036651913542300463
01:00:0A:00:00:00:00;1722643347;03/08/24;00:02:27;1.013;-0.025;0.1;-0.0012217304902151227;-0.010995574295520782;0.0036651913542300463
01:00:0A:00:00:00:00;1722643348;03/08/24;00:02:28;1.012;-0.024;0.099;-0.0012217304902151227;-0.010995574295520782;0.0036651913542300463
01:00:0A:00:00:00:00;1722643349;03/08/24;00:02:29;1.012;-0.025;0.099;-0.0012217304902151227;-0.010995574295520782;0.0036651913542300463
01:00:0A:00:00:00:00;1722643350;03/08/24;00:02:30;1.013;-0.024;0.099;-0.0012217304902151227;-0.012217304669320583;0.0036651913542300463
01:00:0A:00:00:00:00;1722643351;03/08/24;00:02:31;1.011;-0.024;0.099;-0.0012217304902151227;-0.010995574295520782;0.0036651913542300463
01:00:0A:00:00:00:00;1722643352;03/08/24;00:02:32;1.012;-0.025;0.099;-0.0012217304902151227;-0.010995574295520782;0.0036651913542300463
01:00:0A:00:00:00:00;1722643353;03/08/24;00:02:33;1.013;-0.025;0.099;-0.0012217304902151227;-0.010995574295520782;0.0036651913542300463
01:00:0A:00:00:00:00;1722643354;03/08/24;00:02:34;1.013;-0.024;0.099;-0.0012217304902151227;-0.010995574295520782;0.0036651913542300463
01:00:0A:00:00:00:00;1722643355;03/08/24;00:02:35;1.012;-0.026;0.098;-0.0012217304902151227;-0.010995574295520782;0.0036651913542300463
01:00:0A:00:00:00:00;1722643356;03/08/24;00:02:36;1.013;-0.025;0.099;-0.0012217304902151227;-0.010995574295520782;0.0036651913542300463
01:00:0A:00:00:00:00;1722643357;03/08/24;00:02:37;1.014;-0.026;0.099;-0.0012217304902151227;-0.010995574295520782;0.0036651913542300463
01:00:0A:00:00:00:00;1722643358;03/08/24;00:02:38;1.013;-0.025;0.098;-0.0012217304902151227;-0.010995574295520782;0.0036651913542300463
01:00:0A:00:00:00:00;1722643359;03/08/24;00:02:39;1.012;-0.024;0.099;-0.0012217304902151227;-0.010995574295520782;0.0036651913542300463
01:00:0A:00:00:00:00;1722643360;03/08/24;00:02:40;1.013;-0.024;0.099;0.0;-0.010995574295520782;0.0036651913542300463
01:00:0A:00:00:00:00;1722643361;03/08/24;00:02:41;1.012;-0.025;0.099;-0.0012217304902151227;-0.010995574295520782;0.0036651913542300463
01:00:0A:00:00:00:00;1722643362;03/08/24;00:02:42;1.013;-0.026;0.099;0.0;-0.010995574295520782;0.0036651913542300463
01:00:0A:00:00:00:00;1722643363;03/08/24;00:02:43;1.014;-0.024;0.099;0.0;-0.010995574295520782;0.0036651913542300463
01:00:0A:00:00:00:00;1722643364;03/08/24;00:02:44;1.013;-0.024;0.099;0.0;-0.012217304669320583;0.0036651913542300463
01:00:0A:00:00:00:00;1722643365;03/08/24;00:02:45;1.012;-0.025;0.1;0.0;-0.010995574295520782;0.0036651913542300463
01:00:0A:00:00:00:00;1722643366;03/08/24;00:02:46;1.012;-0.025;0.099;0.0;-0.010995574295520782;0.0036651913542300463
01:00:0A:00:00:00:00;1722643367;03/08/24;00:02:47;1.013;-0.024;0.1;0.0;-0.010995574295520782;0.0036651913542300463
01:00:0A:00:00:00:00;1722643368;03/08/24;00:02:48;1.013;-0.026;0.099;0.0;-0.010995574295520782;0.0036651913542300463
01:00:0A:00:00:00:00;1722643369;03/08/24;00:02:49;1.013;-0.025;0.099;0.0;-0.010995574295520782;0.0036651913542300463
01:00:0A:00:00:00:00;1722643370;03/08/24;00:02:50;1.013;-0.025;0.099;0.0;-0.010995574295520782;0.0036651913542300463
01:00:0A:00:00:00:00;1722643371;03/08/24;00:02:51;1.012;-0.024;0.099;0.0;-0.010995574295520782;0.0036651913542300463
01:00:0A:00:00:00:00;1722643372;03/08/24;00:02:52;1.014;-0.023;0.099;0.0;-0.010995574295520782;0.0036651913542300463
01:00:0A:00:00:00:00;1722643373;03/08/24;00:02:53;1.012;-0.024;0.099;0.0012217304902151227;-0.010995574295520782;0.0036651913542300463
01:00:0A:00:00:00:00;1722643374;03/08/24;00:02:54;1.013;-0.025;0.098;0.0;-0.010995574295520782;0.0036651913542300463
01:00:0A:00:00:00:00;1722643375;03/08/24;00:02:55;1.013;-0.025;0.099;0.0012217304902151227;-0.010995574295520782;0.0036651913542300463
01:00:0A:00:00:00:00;1722643376;03/08/24;00:02:56;1.012;-0.024;0.098;0.0012217304902151227;-0.010995574295520782;0.0036651913542300463
01:00:0A:00:00:00:00;1722643377;03/08/24;00:02:57;1.013;-0.025;0.098;0.0012217304902151227;-0.010995574295520782;0.004886921960860491
01:00:0A:00:00:00:00;1722643378;03/08/24;00:02:58;1.014;-0.025;0.099;0.0012217304902151227;-0.012217304669320583;0.0036651913542300463
01:00:0A:00:00:00:00;1722643379;03/08/24;00:02:59;1.013;-0.025;0.099;0.0012217304902151227;-0.010995574295520782;0.0036651913542300463
01:00:0A:00:00:00:00;1722643380;03/08/24;00:03:00;1.013;-0.025;0.098;0.0012217304902151227;-0.010995574295520782;0.0036651913542300463
01:00:0A:00:00:00:00;1722643381;03/08/24;00:03:01;1.014;-0.025;0.099;0.0024434609804302454;-0.010995574295520782;0.004886921960860491
01:00:0A:00:00:00:00;1722643382;03/08/24;00:03:02;1.014;-0.025;0.098;0.0024434609804302454;-0.010995574295520782;0.0036651913542300463
01:00:0A:00:00:00:00;1722643383;03/08/24;00:03:03;1.013;-0.025;0.098;0.0024434609804302454;-0.010995574295520782;0.0036651913542300463
01:00:0A:00:00:00:00;1722643384;03/08/24;00:03:04;1.013;-0.025;0.099;0.0024434609804302454;-0.010995574295520782;0.0036651913542300463
01:00:0A:00:00:00:00;1722643385;03/08/24;00:03:05;1.013;-0.026;0.099;0.0024434609804302454;-0.010995574295520782;0.0036651913542300463
01:00:0A:00:00:00:00;1722643386;03/08/24;00:03:06;1.012;-0.025;0.099;0.0036651913542300463;-0.010995574295520782;0.004886921960860491
01:00:0A:00:00:00:00;1722643387;03/08/24;00:03:07;1.013;-0.025;0.098;0.0036651913542300463;-0.010995574295520782;0.0036651913542300463
01:00:0A:00:00:00:00;1722643388;03/08/24;00:03:08;1.013;-0.025;0.099;0.0036651913542300463;-0.010995574295520782;0.004886921960860491
01:00:0A:00:00:00:00;1722643389;03/08/24;00:03:09;1.013;-0.025;0.098;0.0036651913542300463;-0.010995574295520782;0.004886921960860491
01:00:0A:00:00:00:00;1722643390;03/08/24;00:03:10;1.014;-0.026;0.098;0.0036651913542300463;-0.012217304669320583;0.004886921960860491
01:00:0A:00:00:00:00;1722643391;03/08/24;00:03:11;1.011;-0.025;0.099;0.0036651913542300463;-0.010995574295520782;0.004886921960860491
01:00:0A:00:00:00:00;1722643392;03/08/24;00:03:12;1.013;-0.025;0.099;0.0036651913542300463;-0.010995574295520782;0.004886921960860491
01:00:0A:00:00:00:00;1722643393;03/08/24;00:03:13;1.013;-0.025;0.098;0.004886921960860491;-0.010995574295520782;0.004886921960860491
01:00:0A:00:00:00:00;1722643394;03/08/24;00:03:14;1.012;-0.024;0.1;0.004886921960860491;-0.010995574295520782;0.0036651913542300463
01:00:0A:00:00:00:00;1722643395;03/08/24;00:03:15;1.012;-0.026;0.099;0.004886921960860491;-0.010995574295520782;0.0036651913542300463
01:00:0A:00:00:00:00;1722643396;03/08/24;00:03:16;1.013;-0.025;0.099;0.004886921960860491;-0.010995574295520782;0.004886921960860491
01:00:0A:00:00:00:00;1722643397;03/08/24;00:03:17;1.012;-0.024;0.099;0.004886921960860491;-0.010995574295520782;0.0036651913542300463
01:00:0A:00:00:00:00;1722643398;03/08/24;00:03:18;1.013;-0.024;0.098;0.004886921960860491;-0.010995574295520782;0.004886921960860491
01:00:0A:00:00:00:00;1722643399;03/08/24;00:03:19;1.013;-0.026;0.099;0.006108652334660292;-0.010995574295520782;0.0036651913542300463
01:00:0A:00:00:00:00;1722643400;03/08/24;00:03:20;1.013;-0.025;0.099;0.006108652334660292;-0.010995574295520782;0.004886921960860491
01:00:0A:00:00:00:00;1722643401;03/08/24;00:03:21;1.013;-0.025;0.099;0.006108652334660292;-0.010995574295520782;0.0036651913542300463
01:00:0A:00:00:00:00;1722643402;03/08/24;00:03:22;1.013;-0.026;0.098;0.006108652334660292;-0.010995574295520782;0.004886921960860491
01:00:0A:00:00:00:00;1722643403;03/08/24;00:03:23;1.013;-0.025;0.099;0.006108652334660292;-0.010995574295520782;0.004886921960860491
01:00:0A:00:00:00:00;1722643404;03/08/24;00:03:24;1.013;-0.024;0.099;0.006108652334660292;-0.012217304669320583;0.0036651913542300463
01:00:0A:00:00:00:00;1722643405;03/08/24;00:03:25;1.014;-0.025;0.099;0.006108652334660292;-0.010995574295520782;0.0036651913542300463
01:00:0A:00:00:00:00;1722643406;03/08/24;00:03:26;1.012;-0.025;0.1;0.006108652334660292;-0.010995574295520782;0.004886921960860491
01:00:0A:00:00:00:00;1722643407;03/08/24;00:03:27;1.013;-0.025;0.099;0.006108652334660292;-0.010995574295520782;0.0036651913542300463
01:00:0A:00:00:00:00;1722643408;03/08/24;00:03:28;1.013;-0.025;0.099;0.006108652334660292;-0.010995574295520782;0.0036651913542300463
01:00:0A:00:00:00:00;1722643409;03/08/24;00:03:29;1.012;-0.025;0.099;0.006108652334660292;-0.010995574295520782;0.0036651913542300463
01:00:0A:00:00:00:00;1722643410;03/08/24;00:03:30;1.013;-0.024;0.098;0.006108652334660292;-0.010995574295520782;0.004886921960860491
01:00:0A:00:00:00:00;1722643411;03/08/24;00:03:31;1.012;-0.026;0.099;0.0073303827084600925;-0.010995574295520782;0.004886921960860491
01:00:0A:00:00:00:00;1722643412;03/08/24;00:03:32;1.013;-0.025;0.1;0.0073303827084600925;-0.010995574295520782;0.004886921960860491
01:00:0A:00:00:00:00;1722643413;03/08/24;00:03:33;1.012;-0.025;0.099;0.0073303827084600925;-0.010995574295520782;0.0036651913542300463
01:00:0A:00:00:00:00;1722643414;03/08/24;00:03:34;1.014;-0.025;0.099;0.0073303827084600925;-0.010995574295520782;0.004886921960860491
01:00:0A:00:00:00:00;1722643415;03/08/24;00:03:35;1.013;-0.025;0.098;0.0073303827084600925;-0.010995574295520782;0.004886921960860491
01:00:0A:00:00:00:00;1722643416;03/08/24;00:03:36;1.013;-0.025;0.099;0.0073303827084600925;-0.010995574295520782;0.004886921960860491
01:00:0A:00:00:00:00;1722643417;03/08/24;00:03:37;1.013;-0.025;0.099;0.0073303827084600925;-0.010995574295520782;0.004886921960860491
01:00:0A:00:00:00:00;1722643418;03/08/24;00:03:38;1.013;-0.026;0.099;0.0073303827084600925;-0.010995574295520782;0.0036651913542300463
01:00:0A:00:00:00:00;1722643419;03/08/24;00:03:39;1.012;-0.025;0.098;0.0073303827084600925;-0.010995574295520782;0.004886921960860491
01:00:0A:00:00:00:00;1722643420;03/08/24;00:03:40;1.013;-0.025;0.098;0.0073303827084600925;-0.010995574295520782;0.004886921960860491
01:00:0A:00:00:00:00;1722643421;03/08/24;00:03:41;1.012;-0.025;0.099;0.0073303827084600925;-0.010995574295520782;0.004886921960860491
01:00:0A:00:00:00:00;1722643422;03/08/24;00:03:42;1.012;-0.024;0.098;0.0073303827084600925;-0.010995574295520782;0.0036651913542300463
01:00:0A:00:00:00:00;1722643423;03/08/24;00:03:43;1.013;-0.025;0.097;0.0073303827084600925;-0.010995574295520782;0.004886921960860491
01:00:0A:00:00:00:00;1722643424;03/08/24;00:03:44;1.012;-0.024;0.099;0.0073303827084600925;-0.010995574295520782;0.004886921960860491
01:00:0A:00:00:00:00;1722643425;03/08/24;00:03:45;1.013;-0.025;0.098;0.0073303827084600925;-0.010995574295520782;0.004886921960860491
01:00:0A:00:00:00:00;1722643426;03/08/24;00:03:46;1.012;-0.025;0.098;0.0073303827084600925;-0.010995574295520782;0.004886921960860491
01:00:0A:00:00:00:00;1722643427;03/08/24;00:03:47;1.013;-0.025;0.099;0.0073303827084600925;-0.010995574295520782;0.004886921960860491
01:00:0A:00:00:00:00;1722643428;03/08/24;00:03:48;1.013;-0.024;0.099;0.0073303827084600925;-0.010995574295520782;0.004886921960860491
01:00:0A:00:00:00:00;1722643429;03/08/24;00:03:49;1.014;-0.025;0.099;0.0073303827084600925;-0.010995574295520782;0.004886921960860491
01:00:0A:00:00:00:00;1722643430;03/08/24;00:03:50;1.012;-0.025;0.099;0.0073303827084600925;-0.010995574295520782;0.004886921960860491
01:00:0A:00:00:00:00;1722643431;03/08/24;00:03:51;1.012;-0.025;0.099;0.00855211354792118;-0.010995574295520782;0.004886921960860491
01:00:0A:00:00:00:00;1722643432;03/08/24;00:03:52;1.012;-0.025;0.099;0.00855211354792118;-0.010995574295520782;0.004886921960860491
01:00:0A:00:00:00:00;1722643433;03/08/24;00:03:53;1.012;-0.025;0.098;0.00855211354792118;-0.010995574295520782;0.004886921960860491
01:00:0A:00:00:00:00;1722643434;03/08/24;00:03:54;1.012;-0.025;0.099;0.0073303827084600925;-0.010995574295520782;0.004886921960860491
01:00:0A:00:00:00:00;1722643435;03/08/24;00:03:55;1.013;-0.024;0.099;0.00855211354792118;-0.010995574295520782;0.004886921960860491
01:00:0A:00:00:00:00;1722643436;03/08/24;00:03:56;1.012;-0.025;0.099;0.00855211354792118;-0.010995574295520782;0.004886921960860491
01:00:0A:00:00:00:00;1722643437;03/08/24;00:03:57;1.013;-0.025;0.099;0.00855211354792118;-0.010995574295520782;0.004886921960860491
01:00:0A:00:00:00:00;1722643438;03/08/24;00:03:58;1.013;-0.025;0.099;0.00855211354792118;-0.010995574295520782;0.004886921960860491
01:00:0A:00:00:00:00;1722643439;03/08/24;00:03:59;1.014;-0.025;0.099;0.00855211354792118;-0.010995574295520782;0.004886921960860491
01:00:0A:00:00:00:00;1722643440;03/08/24;00:04:00;1.013;-0.025;0.099;0.00855211354792118;-0.010995574295520782;0.004886921960860491
01:00:0A:00:00:00:00;1722643441;03/08/24;00:04:01;1.012;-0.025;0.099;0.00855211354792118;-0.010995574295520782;0.004886921960860491
01:00:0A:00:00:00:00;1722643442;03/08/24;00:04:02;1.014;-0.025;0.099;0.00855211354792118;-0.010995574295520782;0.004886921960860491
01:00:0A:00:00:00:00;1722643443;03/08/24;00:04:03;1.013;-0.024;0.099;0.00855211354792118;-0.010995574295520782;0.004886921960860491
01:00:0A:00:00:00:00;1722643444;03/08/24;00:04:04;1.013;-0.025;0.098;0.00855211354792118;-0.010995574295520782;0.004886921960860491
01:00:0A:00:00:00:00;1722643445;03/08/24;00:04:05;1.014;-0.024;0.098;0.00855211354792118;-0.010995574295520782;0.004886921960860491
01:00:0A:00:00:00:00;1722643446;03/08/24;00:04:06;1.012;-0.025;0.098;0.00855211354792118;-0.010995574295520782;0.004886921960860491
01:00:0A:00:00:00:00;1722643447;03/08/24;00:04:07;1.013;-0.025;0.099;0.00855211354792118;-0.010995574295520782;0.004886921960860491
01:00:0A:00:00:00:00;1722643448;03/08/24;00:04:08;1.013;-0.025;0.098;0.00855211354792118;-0.010995574295520782;0.004886921960860491
01:00:0A:00:00:00:00;1722643449;03/08/24;00:04:09;1.014;-0.025;0.099;0.00855211354792118;-0.010995574295520782;0.004886921960860491
01:00:0A:00:00:00:00;1722643450;03/08/24;00:04:10;1.013;-0.025;0.098;0.00855211354792118;-0.010995574295520782;0.004886921960860491
01:00:0A:00:00:00:00;1722643451;03/08/24;00:04:11;1.013;-0.025;0.098;0.00855211354792118;-0.010995574295520782;0.004886921960860491
01:00:0A:00:00:00:00;1722643452;03/08/24;00:04:12;1.014;-0.025;0.098;0.00855211354792118;-0.010995574295520782;0.004886921960860491
01:00:0A:00:00:00:00;1722643453;03/08/24;00:04:13;1.013;-0.024;0.099;0.00855211354792118;-0.010995574295520782;0.004886921960860491
01:00:0A:00:00:00:00;1722643454;03/08/24;00:04:14;1.013;-0.025;0.099;0.00855211354792118;-0.010995574295520782;0.004886921960860491
01:00:0A:00:00:00:00;1722643455;03/08/24;00:04:15;1.011;-0.027;0.11;0.006108652334660292;-0.0036651913542300463;0.025656338781118393
01:00:0A:00:00:00:00;1722643456;03/08/24;00:04:16;0.99;-0.008;0.092;0.00855211354792118;0.014660765416920185;0.00855211354792118
01:00:0A:00:00:00:00;1722643457;03/08/24;00:04:17;0.99;-0.032;0.097;-0.0024434609804302454;-0.0659734457731247;0.04886921867728233
01:00:0A:00:00:00:00;1722643458;03/08/24;00:04:18;1.034;-0.04;0.09;0.04886921867728233;-0.0354301817715168;-0.06963863223791122
01:00:0A:00:00:00:00;1722643459;03/08/24;00:04:19;1.074;0.0;0.076;0.05375614017248154;0.0708603635430336;0.0
01:00:0A:00:00:00:00;1722643460;03/08/24;00:04:20;1.035;-0.001;0.079;0.045204028487205505;-0.07941248267889023;0.17470745742321014
01:00:0A:00:00:00:00;1722643461;03/08/24;00:04:21;0.976;-0.091;0.118;0.1014036238193512;0.1771509200334549;0.1576032191514969
01:00:0A:00:00:00:00;1722643462;03/08/24;00:04:22;0.938;-0.01;0.116;0.0;-0.1673770695924759;-0.2785545289516449
01:00:0A:00:00:00:00;1722643463;03/08/24;00:04:23;1.016;-0.166;-0.043;0.04886921867728233;-0.313984751701355;0.3152064383029938
01:00:0A:00:00:00:00;1722643464;03/08/24;00:04:24;0.943;-0.318;0.243;0.587652325630188;0.1466076523065567;-1.263269305229187
01:00:0A:00:00:00:00;1722643465;03/08/24;00:04:25;0.887;0.436;-0.115;0.11362093687057495;-0.3995058536529541;0.6194173693656921
01:00:0A:00:00:00:00;1722643466;03/08/24;00:04:26;0.888;-0.302;0.313;0.1417207270860672;0.6145303845405579;-0.161268413066864
01:00:0A:00:00:00:00;1722643467;03/08/24;00:04:27;0.916;-0.058;0.373;-0.03176499158143997;-1.2767083644866943;-0.9578366875648499
01:00:0A:00:00:00:00;1722643468;03/08/24;00:04:28;0.905;0.12;-0.398;-0.10751228034496307;0.4153883755207062;0.8588765263557434
01:00:0A:00:00:00:00;1722643469;03/08/24;00:04:29;0.935;-0.212;0.339;0.0;0.04886921867728233;-0.21624629199504852
01:00:0A:00:00:00:00;1722643470;03/08/24;00:04:30;0.897;0.391;0.241;-1.7336355447769165;-1.1129964590072632;-0.2822197377681732
01:00:0A:00:00:00:00;1722643471;03/08/24;00:04:31;0.898;0.182;-0.155;-1.4941763877868652;-1.507615327835083;0.5815436840057373
01:00:0A:00:00:00:00;1722643472;03/08/24;00:04:32;0.971;0.073;0.17;-1.2877038717269897;0.12461651116609573;0.2590068578720093
01:00:0A:00:00:00:00;1722643473;03/08/24;00:04:33;1.057;0.003;-0.14;-1.1288789510726929;-0.32009339332580566;-0.19425514340400696
01:00:0A:00:00:00:00;1722643474;03/08/24;00:04:34;0.962;-0.053;-0.095;-1.0458012819290161;0.3579670488834381;0.797789990901947
01:00:0A:00:00:00:00;1722643475;03/08/24;00:04:35;0.867;-0.269;0.321;-0.6084217429161072;0.6695082783699036;-1.1227703094482422
01:00:0A:00:00:00:00;1722643476;03/08/24;00:04:36;0.886;0.252;0.175;-2.02929425239563;-1.108109474182129;-0.8454375267028809
01:00:0A:00:00:00:00;1722643477;03/08/24;00:04:37;0.968;0.117;-0.021;-2.431243658065796;-0.6633996367454529;0.6194173693656921
01:00:0A:00:00:00:00;1722643478;03/08/24;00:04:38;0.963;0.086;-0.179;-2.096489429473877;0.13439035415649414;0.06841690838336945
01:00:0A:00:00:00:00;1722643479;03/08/24;00:04:39;0.983;-0.198;0.229;-1.9058995246887207;0.2993239760398865;-0.45204028487205505
01:00:0A:00:00:00:00;1722643480;03/08/24;00:04:40;0.92;-0.01;0.338;-2.0024163722991943;-0.656069278717041;-1.4037683010101318
01:00:0A:00:00:00:00;1722643481;03/08/24;00:04:41;0.915;0.158;0.338;-2.2626447677612305;-0.41172316670417786;-0.9224064946174622
01:00:0A:00:00:00:00;1722643482;03/08/24;00:04:42;0.856;-0.223;0.539;-2.3102922439575195;0.20647244155406952;-0.8991935849189758
01:00:0A:00:00:00:00;1722643483;03/08/24;00:04:43;0.807;-0.488;0.447;-1.7177530527114868;0.6291911602020264;-0.6365215182304382
01:00:0A:00:00:00:00;1722643484;03/08/24;00:04:44;0.942;-0.123;0.339;-1.6395622491836548;-0.2028072476387024;-1.8252652883529663
01:00:0A:00:00:00:00;1722643485;03/08/24;00:04:45;0.96;-0.04;0.341;-1.872912883758545;0.0012217304902151227;-0.5937609672546387
01:00:0A:00:00:00:00;1722643486;03/08/24;00:04:46;0.921;-0.198;0.379;-1.8057177066802979;0.014660765416920185;-1.350012183189392
01:00:0A:00:00:00:00;1722643487;03/08/24;00:04:47;0.814;0.367;0.482;-0.09285151958465576;-1.3988813161849976;-1.8558086156845093
01:00:0A:00:00:00:00;1722643488;03/08/24;00:04:48;0.865;-0.03;-0.557;-1.1618657112121582;0.4043927788734436;1.4538592100143433
01:00:0A:00:00:00:00;1722643489;03/08/24;00:04:49;0.886;-0.485;0.187;-0.8735373020172119;1.4074335098266602;0.4251621961593628
01:00:0A:00:00:00:00;1722643490;03/08/24;00:04:50;0.767;0.377;0.483;-1.9682077169418335;-2.009746551513672;-0.6511822938919067
01:00:0A:00:00:00:00;1722643491;03/08/24;00:04:51;0.914;-0.04;-0.211;-2.2003366947174072;-0.35674530267715454;0.8515461683273315
01:00:0A:00:00:00:00;1722643492;03/08/24;00:04:52;0.869;0.244;-0.147;-1.9620990753173828;0.6304128766059875;0.02321287989616394
01:00:0A:00:00:00:00;1722643493;03/08/24;00:04:53;0.982;0.195;-0.068;-0.4202752709388733;-0.6682865619659424;0.27977627515792847
01:00:0A:00:00:00:00;1722643494;03/08/24;00:04:54;0.743;0.569;0.45;-1.8362609148025513;0.29565879702568054;0.251676470041275
01:00:0A:00:00:00:00;1722643495;03/08/24;00:04:55;0.807;0.569;0.206;0.6316346526145935;0.09651670604944229;-0.20891590416431427
01:00:0A:00:00:00:00;1722643496;03/08/24;00:04:56;0.886;0.474;-0.437;0.9101892113685608;-0.8161159753799438;-0.4080579876899719
01:00:0A:00:00:00:00;1722643497;03/08/24;00:04:57;1.084;-0.239;0.265;0.8588765263557434;-0.4337143301963806;-0.8955284357070923
01:00:0A:00:00:00:00;1722643498;03/08/24;00:04:58;0.791;0.081;-0.658;0.16004669666290283;-0.6047565937042236;0.7049384713172913
01:00:0A:00:00:00:00;1722643499;03/08/24;00:04:59;0.89;-0.248;0.114;-0.5021312236785889;0.4153883755207062;-0.05742133408784866
01:00:0A:00:00:00:00;1722643500;03/08/24;00:05:00;0.877;0.392;-0.071;-0.6621779203414917;-0.6548475623130798;-0.27977627515792847
01:00:0A:00:00:00:00;1722643501;03/08/24;00:05:01;0.976;0.101;0.231;1.017701506614685;1.0201449394226074;-0.5925393104553223
01:00:0A:00:00:00:00;1722643502;03/08/24;00:05:02;0.934;0.149;-0.158;0.01710422709584236;-1.207069754600525;1.538158655166626
01:00:0A:00:00:00:00;1722643503;03/08/24;00:05:03;0.767;-0.488;0.095;-0.8295549750328064;0.5363396406173706;0.14049901068210602
01:00:0A:00:00:00:00;1722643504;03/08/24;00:05:04;0.81;0.03;0.575;-0.7415903806686401;-0.08674286305904388;-1.9120081663131714
01:00:0A:00:00:00:00;1722643505;03/08/24;00:05:05;0.872;0.423;0.021;-1.204626202583313;-1.3548990488052368;-0.24434609711170197
01:00:0A:00:00:00:00;1722643506;03/08/24;00:05:06;0.955;-0.418;0.015;-1.547932505607605;0.4288274049758911;0.1466076523065567
01:00:0A:00:00:00:00;1722643507;03/08/24;00:05:07;0.935;-0.152;0.461;-1.225395679473877;0.2981022298336029;-0.6670648455619812
01:00:0A:00:00:00:00;1722643508;03/08/24;00:05:08;1.024;-0.085;0.335;-1.1899654865264893;-0.15393804013729095;-0.62796950340271
01:00:0A:00:00:00:00;1722643509;03/08/24;00:05:09;0.916;-0.428;0.164;-0.8833111524581909;0.20525071024894714;0.8063421249389648
01:00:0A:00:00:00:00;1722643510;03/08/24;00:05:10;0.969;-0.334;-0.079;-0.1258382350206375;-0.01710422709584236;-0.3738495111465454
01:00:0A:00:00:00:00;1722643511;03/08/24;00:05:11;1.007;0.006;0.206;-0.05253440886735916;0.2028072476387024;0.012217304669320583
01:00:0A:00:00:00:00;1722643512;03/08/24;00:05:12;1.036;-0.125;0.019;-0.19058994948863983;-0.313984751701355;0.31154125928878784
01:00:0A:00:00:00:00;1722643513;03/08/24;00:05:13;1.021;-0.07;0.063;0.06352998316287994;0.4056144952774048;0.028099799528717995
01:00:0A:00:00:00:00;1722643514;03/08/24;00:05:14;0.928;-0.002;0.342;0.019547687843441963;0.042760565876960754;-0.09407324343919754
01:00:0A:00:00:00:00;1722643515;03/08/24;00:05:15;0.947;-0.043;-0.083;-0.02321287989616394;-0.5143485069274902;0.013439035043120384
01:00:0A:00:00:00:00;1722643516;03/08/24;00:05:16;0.967;-0.004;0.009;0.27488934993743896;0.7379252314567566;-0.3738495111465454
01:00:0A:00:00:00:00;1722643517;03/08/24;00:05:17;0.921;-0.04;0.356;-0.06475171446800232;-0.5925393104553223;0.6304128766059875
01:00:0A:00:00:00:00;1722643518;03/08/24;00:05:18;1.025;-0.178;-0.153;0.22113320231437683;-0.13927726447582245;-0.13805554807186127
01:00:0A:00:00:00:00;1722643519;03/08/24;00:05:19;1.016;0.159;0.198;0.11972958594560623;0.2541199326515198;0.16982054710388184
01:00:0A:00:00:00:00;1722643520;03/08/24;00:05:20;0.906;0.366;0.486;0.2834414541721344;-0.8833111524581909;0.5009095072746277
01:00:0A:00:00:00:00;1722643521;03/08/24;00:05:21;0.837;-0.528;0.0;0.3933972120285034;-0.12950342893600464;-0.1563815027475357
01:00:0A:00:00:00:00;1722643522;03/08/24;00:05:22;1.01;0.068;0.026;0.8991935849189758;-0.7672467231750488;-1.263269305229187
01:00:0A:00:00:00:00;1722643523;03/08/24;00:05:23;0.987;-0.207;-0.226;0.6548475623130798;0.4153883755207062;0.4960225820541382
01:00:0A:00:00:00:00;1722643524;03/08/24;00:05:24;0.748;0.174;0.678;0.5510004162788391;0.5583308339118958;-0.3848450779914856
01:00:0A:00:00:00:00;1722643525;03/08/24;00:05:25;0.941;0.416;-0.112;-0.48258352279663086;-1.3341296911239624;0.30543261766433716
01:00:0A:00:00:00:00;1722643526;03/08/24;00:05:26;0.65;-0.979;-0.223;-0.3298672139644623;2.2883012294769287;1.3182471990585327
01:00:0A:00:00:00:00;1722643527;03/08/24;00:05:27;0.634;-0.499;0.6;-0.6096435189247131;0.6340781450271606;-2.1673498153686523
01:00:0A:00:00:00:00;1722643528;03/08/24;00:05:28;0.838;0.327;0.425;-1.253495454788208;-0.9456194043159485;-0.8845328092575073
01:00:0A:00:00:00:00;1722643529;03/08/24;00:05:29;0.984;0.087;-0.12;-1.8044958114624023;-0.6133087277412415;0.46547931432724
01:00:0A:00:00:00:00;1722643530;03/08/24;00:05:30;0.931;-0.276;-0.018;-1.0946705341339111;2.0537290573120117;0.2577851116657257
01:00:0A:00:00:00:00;1722643531;03/08/24;00:05:31;0.92;0.378;0.086;-1.5870277881622314;-1.6163493394851685;-1.5711454153060913
01:00:0A:00:00:00:00;1722643532;03/08/24;00:05:32;1.024;0.109;-0.213;-2.2565362453460693;0.10751228034496307;1.5711454153060913
01:00:0A:00:00:00:00;1722643533;03/08/24;00:05:33;0.894;-0.522;0.405;-2.359161615371704;1.1423180103302002;-0.5558874011039734
01:00:0A:00:00:00:00;1722643534;03/08/24;00:05:34;0.743;0.36;0.526;-2.5277602672576904;-0.07941248267889023;-1.663996934890747
01:00:0A:00:00:00:00;1722643535;03/08/24;00:05:35;0.86;-0.743;0.216;0.17592918872833252;-0.14416420459747314;0.0024434609804302454
01:00:0A:00:00:00:00;1722643536;03/08/24;00:05:36;1.045;0.122;0.284;-0.1062905490398407;-0.6035348773002625;-0.49724429845809937
01:00:0A:00:00:00:00;1722643537;03/08/24;00:05:37;0.892;-0.576;0.401;-0.5241223573684692;0.8491026759147644;0.5253441333770752
01:00:0A:00:00:00:00;1722643538;03/08/24;00:05:38;1.026;-0.126;0.274;-1.0005972385406494;0.012217304669320583;-0.6120869517326355
01:00:0A:00:00:00:00;1722643539;03/08/24;00:05:39;0.979;0.2;0.01;-1.4086552858352661;-0.4495967924594879;-0.0659734457731247
01:00:0A:00:00:00:00;1722643540;03/08/24;00:05:40;0.887;-0.231;0.518;-1.8081611394882202;0.039095375686883926;-0.3738495111465454
01:00:0A:00:00:00:00;1722643541;03/08/24;00:05:41;0.915;0.25;0.369;-1.6456708908081055;-0.27488934993743896;-1.204626202583313
01:00:0A:00:00:00:00;1722643542;03/08/24;00:05:42;1.0;0.242;0.142;-2.1734585762023926;-0.7745770812034607;-0.13316862285137177
01:00:0A:00:00:00:00;1722643543;03/08/24;00:05:43;0.997;0.242;0.007;-2.183232307434082;-0.12095131725072861;0.4031710624694824
01:00:0A:00:00:00:00;1722643544;03/08/24;00:05:44;1.051;-0.039;-0.079;-2.7513368129730225;0.08307767659425735;0.14538592100143433
01:00:0A:00:00:00:00;1722643545;03/08/24;00:05:45;1.067;-0.044;-0.118;-2.1783454418182373;0.1514945775270462;-0.012217304669320583
01:00:0A:00:00:00:00;1722643546;03/08/24;00:05:46;1.011;-0.377;-0.001;-1.754404902458191;0.2736676335334778;0.05619959905743599
01:00:0A:00:00:00:00;1722643547;03/08/24;00:05:47;0.947;0.188;0.406;-1.5503759384155273;0.5143485069274902;-0.5791001915931702
01:00:0A:00:00:00:00;1722643548;03/08/24;00:05:48;1.003;0.161;0.0;-1.794722080230713;-0.39584067463874817;-0.12217304855585098
01:00:0A:00:00:00:00;1722643549;03/08/24;00:05:49;0.971;0.163;0.0;-1.7605135440826416;0.04398229718208313;0.21502456068992615
01:00:0A:00:00:00:00;1722643550;03/08/24;00:05:50;0.721;-0.341;0.71;-1.9840903282165527;0.33964109420776367;-1.7055357694625854
01:00:0A:00:00:00:00;1722643551;03/08/24;00:05:51;0.58;-0.073;0.833;-2.2577579021453857;0.17837265133857727;-2.342057466506958
01:00:0A:00:00:00:00;1722643552;03/08/24;00:05:52;0.937;0.368;0.467;-2.630385637283325;-0.8442157506942749;-0.7916813492774963
01:00:0A:00:00:00:00;1722643553;03/08/24;00:05:53;0.871;0.224;0.201;-3.843564033508301;-0.48869219422340393;1.4343115091323853
01:00:0A:00:00:00:00;1722643554;03/08/24;00:05:54;1.003;-0.047;0.073;-2.546086072921753;0.009773843921720982;-0.07330382615327835
01:00:0A:00:00:00:00;1722643555;03/08/24;00:05:55;0.917;-0.079;-0.19;-2.3347268104553223;-2.1087067127227783;0.0354301817715168
01:00:0A:00:00:00:00;1722643556;03/08/24;00:05:56;0.939;0.069;0.404;-2.0036380290985107;0.2834414541721344;0.4544837474822998
01:00:0A:00:00:00:00;1722643557;03/08/24;00:05:57;1.016;-0.234;0.11;-5.265658378601074;0.49846604466438293;-0.41172316670417786
01:00:0A:00:00:00:00;1722643558;03/08/24;00:05:58;0.912;-0.161;-0.464;-3.8570032119750977;0.2370157092809677;1.1997392177581787
01:00:0A:00:00:00:00;1722643559;03/08/24;00:05:59;1.049;-0.304;-0.119;-2.607172966003418;0.3799581527709961;1.3976596593856812
01:00:0A:00:00:00:00;1722643560;03/08/24;00:06:00;1.027;-0.095;0.267;-2.2076668739318848;0.33964109420776367;-0.15393804013729095
01:00:0A:00:00:00:00;1722643561;03/08/24;00:06:01;0.929;-0.11;0.231;-2.1001548767089844;0.2687807083129883;-0.11484266817569733
01:00:0A:00:00:00:00;1722643562;03/08/24;00:06:02;0.802;-0.01;-0.7;-2.2687535285949707;-1.222952127456665;1.3255774974822998
01:00:0A:00:00:00:00;1722643563;03/08/24;00:06:03;0.65;0.069;-0.702;-1.6920967102050781;0.8710938096046448;2.1197023391723633
01:00:0A:00:00:00:00;1722643564;03/08/24;00:06:04;0.871;-0.107;0.212;-1.6383405923843384;-0.3494149148464203;-1.2767083644866943
01:00:0A:00:00:00:00;1722643565;03/08/24;00:06:05;0.834;0.495;-0.021;-0.9395107626914978;-0.05619959905743599;0.8906415700912476
01:00:0A:00:00:00:00;1722643566;03/08/24;00:06:06;0.857;0.325;0.582;-1.4294246435165405;0.2125810980796814;-0.8930849432945251
01:00:0A:00:00:00:00;1722643567;03/08/24;00:06:07;0.746;0.081;0.715;-1.0690141916275024;0.08185594528913498;-0.921184778213501
01:00:0A:00:00:00:00;1722643568;03/08/24;00:06:08;0.778;0.277;0.664;-1.6200146675109863;-1.1032226085662842;-1.2852604389190674
01:00:0A:00:00:00:00;1722643569;03/08/24;00:06:09;0.875;0.485;0.22;-2.9639182090759277;-0.3933972120285034;-0.875980794429779
01:00:0A:00:00:00:00;1722643570;03/08/24;00:06:10;0.932;-0.434;0.193;-1.653001308441162;0.21135938167572021;0.080634206533432
01:00:0A:00:00:00:00;1722643571;03/08/24;00:06:11;0.928;-0.253;0.113;-1.292590856552124;-0.38117989897727966;-0.7855727076530457
01:00:0A:00:00:00:00;1722643572;03/08/24;00:06:12;0.969;-0.136;0.258;-2.1820104122161865;0.33108896017074585;-0.27611109614372253
01:00:0A:00:00:00:00;1722643573;03/08/24;00:06:13;1.021;-0.184;-0.103;-1.633453607559204;-0.06475171446800232;-0.28588491678237915
01:00:0A:00:00:00:00;1722643574;03/08/24;00:06:14;0.966;-0.164;0.044;-0.9553932547569275;1.5454890727996826;-0.18448130786418915
01:00:0A:00:00:00:00;1722643575;03/08/24;00:06:15;0.77;-0.213;0.591;-1.1288789510726929;0.0073303827084600925;-0.6743952035903931
01:00:0A:00:00:00:00;1722643576;03/08/24;00:06:16;0.997;0.02;0.144;-1.1020008325576782;-0.5619960427284241;-0.9162978529930115
01:00:0A:00:00:00:00;1722643577;03/08/24;00:06:17;0.994;0.171;0.04;-1.1557570695877075;-0.4642575681209564;0.2687807083129883
01:00:0A:00:00:00:00;1722643578;03/08/24;00:06:18;0.99;-0.065;-0.144;-0.8087855577468872;0.09896016865968704;0.34208452701568604
01:00:0A:00:00:00:00;1722643579;03/08/24;00:06:19;0.982;-0.171;0.157;-0.5229006409645081;0.46670106053352356;-0.07696902006864548
01:00:0A:00:00:00:00;1722643580;03/08/24;00:06:20;0.974;-0.061;0.283;-0.6145303845405579;-0.17348572611808777;-0.3738495111465454
01:00:0A:00:00:00:00;1722643581;03/08/24;00:06:21;1.011;0.051;0.092;-0.7367035150527954;-0.24068090319633484;-0.06963863223791122
01:00:0A:00:00:00:00;1722643582;03/08/24;00:06:22;1.02;-0.062;0.055;-0.6792821884155273;0.05253440886735916;0.17104226350784302
01:00:0A:00:00:00:00;1722643583;03/08/24;00:06:23;1.002;-0.173;0.093;-0.4899139106273651;0.051312677562236786;-0.019547687843441963
01:00:0A:00:00:00:00;1722643584;03/08/24;00:06:24;1.002;0.025;0.136;-0.41661006212234497;0.0012217304902151227;-0.2590068578720093
01:00:0A:00:00:00:00;1722643585;03/08/24;00:06:25;0.999;0.014;0.092;-0.5363396406173706;-0.1661553531885147;0.13316862285137177
01:00:0A:00:00:00:00;1722643586;03/08/24;00:06:26;0.995;-0.036;0.063;-0.4398229718208313;-0.04886921867728233;-0.028099799528717995
01:00:0A:00:00:00:00;1722643587;03/08/24;00:06:27;0.99;0.002;0.156;-0.4153883755207062;0.07696902006864548;-0.07452555745840073
01:00:0A:00:00:00:00;1722643588;03/08/24;00:06:28;1.007;-0.037;0.166;-0.5021312236785889;-0.08429940044879913;0.015882495790719986
01:00:0A:00:00:00:00;1722643589;03/08/24;00:06:29;1.028;-0.048;0.061;-0.4703662395477295;-0.039095375686883926;0.00855211354792118
01:00:0A:00:00:00:00;1722643590;03/08/24;00:06:30;1.019;-0.062;0.132;-0.41294488310813904;0.09162978082895279;0.02321287989616394
01:00:0A:00:00:00:00;1722643591;03/08/24;00:06:31;1.013;-0.122;0.138;-0.38606682419776917;0.012217304669320583;-0.036651913076639175
01:00:0A:00:00:00:00;1722643592;03/08/24;00:06:32;1.015;-0.023;0.077;-0.3433062732219696;0.010995574295520782;-0.12217304855585098
01:00:0A:00:00:00:00;1722643593;03/08/24;00:06:33;1.006;-0.003;0.096;-0.3799581527709961;0.0024434609804302454;0.010995574295520782
01:00:0A:00:00:00:00;1722643594;03/08/24;00:06:34;1.014;-0.057;0.061;-0.3677408695220947;-0.05375614017248154;-0.04642575979232788
01:00:0A:00:00:00:00;1722643595;03/08/24;00:06:35;1.013;-0.007;0.058;-0.3323107063770294;0.0036651913542300463;-0.080634206533432
01:00:0A:00:00:00:00;1722643596;03/08/24;00:06:36;0.999;-0.013;0.126;-0.3787364363670349;0.009773843921720982;0.02321287989616394
01:00:0A:00:00:00:00;1722643597;03/08/24;00:06:37;0.996;-0.052;0.084;-0.39584067463874817;-0.05375614017248154;-0.05742133408784866
01:00:0A:00:00:00:00;1722643598;03/08/24;00:06:38;1.017;-0.013;0.095;-0.38240164518356323;0.00855211354792118;-0.08552113175392151
01:00:0A:00:00:00:00;1722643599;03/08/24;00:06:39;1.024;-0.018;0.129;-0.4202752709388733;-0.004886921960860491;-0.0036651913542300463
01:00:0A:00:00:00:00;1722643600;03/08/24;00:06:40;1.012;-0.057;0.102;-0.3995058536529541;0.024434609338641167;0.004886921960860491
01:00:0A:00:00:00:00;1722643601;03/08/24;00:06:41;0.997;-0.021;0.098;-0.3701843321323395;0.042760565876960754;-0.06230825558304787
01:00:0A:00:00:00:00;1722643602;03/08/24;00:06:42;0.997;-0.02;0.081;-0.3848450779914856;-0.04886921867728233;-0.018325956538319588
01:00:0A:00:00:00:00;1722643603;03/08/24;00:06:43;1.018;-0.029;0.081;-0.33964109420776367;0.04764748737215996;-0.08796459436416626
01:00:0A:00:00:00:00;1722643604;03/08/24;00:06:44;1.038;-0.024;0.117;-0.35185837745666504;-0.019547687843441963;-0.040317103266716
01:00:0A:00:00:00:00;1722643605;03/08/24;00:06:45;1.037;-0.035;0.079;-0.3677408695220947;-0.042760565876960754;0.01710422709584236
01:00:0A:00:00:00:00;1722643606;03/08/24;00:06:46;1.007;-0.021;0.091;-0.35552355647087097;0.014660765416920185;-0.0024434609804302454
01:00:0A:00:00:00:00;1722643607;03/08/24;00:06:47;0.987;-0.026;0.117;-0.3689626157283783;-0.012217304669320583;0.018325956538319588
01:00:0A:00:00:00:00;1722643608;03/08/24;00:06:48;0.995;-0.036;0.114;-0.3848450779914856;-0.06841690838336945;-0.03787364438176155
01:00:0A:00:00:00:00;1722643609;03/08/24;00:06:49;1.009;-0.033;0.125;-0.3897320330142975;0.036651913076639175;0.0024434609804302454
01:00:0A:00:00:00:00;1722643610;03/08/24;00:06:50;1.014;-0.06;0.128;-0.39217546582221985;0.025656338781118393;-0.042760565876960754
01:00:0A:00:00:00:00;1722643611;03/08/24;00:06:51;1.015;-0.045;0.107;-0.39584067463874817;0.004886921960860491;-0.025656338781118393
01:00:0A:00:00:00:00;1722643612;03/08/24;00:06:52;1.009;-0.031;0.099;-0.3885102868080139;-0.0012217304902151227;0.010995574295520782
01:00:0A:00:00:00:00;1722643613;03/08/24;00:06:53;1.01;-0.047;0.101;-0.3530800938606262;0.02687807008624077;-0.040317103266716
01:00:0A:00:00:00:00;1722643614;03/08/24;00:06:54;1.014;-0.022;0.104;-0.32498031854629517;-0.012217304669320583;-0.07696902006864548
01:00:0A:00:00:00:00;1722643615;03/08/24;00:06:55;1.014;-0.012;0.1;-0.313984751701355;-0.006108652334660292;0.009773843921720982
01:00:0A:00:00:00:00;1722643616;03/08/24;00:06:56;1.017;-0.041;0.098;-0.2883284091949463;-0.0036651913542300463;-0.018325956538319588
01:00:0A:00:00:00:00;1722643617;03/08/24;00:06:57;1.018;-0.022;0.125;-0.28099802136421204;-0.024434609338641167;-0.04764748737215996
01:00:0A:00:00:00:00;1722643618;03/08/24;00:06:58;1.022;-0.013;0.112;-0.29565879702568054;-0.0024434609804302454;-0.00855211354792118
01:00:0A:00:00:00:00;1722643619;03/08/24;00:06:59;1.018;-0.038;0.095;-0.2883284091949463;0.02321287989616394;-0.0073303827084600925
01:00:0A:00:00:00:00;1722643620;03/08/24;00:07:00;1.009;-0.026;0.122;-0.313984751701355;-0.015882495790719986;-0.019547687843441963
01:00:0A:00:00:00:00;1722643621;03/08/24;00:07:01;1.009;-0.036;0.108;-0.3347541391849518;-0.03298672288656235;-0.0024434609804302454
01:00:0A:00:00:00:00;1722643622;03/08/24;00:07:02;1.016;-0.057;0.11;-0.32131510972976685;0.0012217304902151227;-0.036651913076639175
01:00:0A:00:00:00:00;1722643623;03/08/24;00:07:03;1.017;-0.044;0.12;-0.3237585723400116;0.0;-0.030543262138962746
01:00:0A:00:00:00:00;1722643624;03/08/24;00:07:04;1.014;-0.052;0.093;-0.3237585723400116;-0.013439035043120384;0.009773843921720982
01:00:0A:00:00:00:00;1722643625;03/08/24;00:07:05;1.003;-0.049;0.103;-0.3042108714580536;-0.009773843921720982;-0.0024434609804302454
01:00:0A:00:00:00:00;1722643626;03/08/24;00:07:06;1.006;-0.036;0.102;-0.29565879702568054;-0.03298672288656235;-0.0024434609804302454
01:00:0A:00:00:00:00;1722643627;03/08/24;00:07:07;1.017;-0.04;0.107;-0.2785545289516449;0.0012217304902151227;-0.010995574295520782
01:00:0A:00:00:00:00;1722643628;03/08/24;00:07:08;1.021;-0.019;0.108;-0.2773328125476837;-0.0073303827084600925;0.0036651913542300463
01:00:0A:00:00:00:00;1722643629;03/08/24;00:07:09;1.016;-0.039;0.1;-0.2773328125476837;-0.00855211354792118;0.0024434609804302454
01:00:0A:00:00:00:00;1722643630;03/08/24;00:07:10;1.011;-0.022;0.103;-0.2773328125476837;-0.02076941914856434;-0.0036651913542300463
01:00:0A:00:00:00:00;1722643631;03/08/24;00:07:11;1.005;-0.025;0.109;-0.28588491678237915;-0.0024434609804302454;-0.0012217304902151227
01:00:0A:00:00:00:00;1722643632;03/08/24;00:07:12;1.008;-0.029;0.104;-0.2834414541721344;-0.0012217304902151227;-0.0024434609804302454
01:00:0A:00:00:00:00;1722643633;03/08/24;00:07:13;1.016;-0.037;0.108;-0.28588491678237915;-0.024434609338641167;-0.039095375686883926
01:00:0A:00:00:00:00;1722643634;03/08/24;00:07:14;1.023;-0.024;0.097;-0.2919935882091522;-0.01710422709584236;-0.021991148591041565
01:00:0A:00:00:00:00;1722643635;03/08/24;00:07:15;1.02;-0.052;0.109;-0.2883284091949463;0.012217304669320583;0.0
01:00:0A:00:00:00:00;1722643636;03/08/24;00:07:16;1.008;-0.039;0.11;-0.27977627515792847;-0.009773843921720982;-0.04153883829712868
01:00:0A:00:00:00:00;1722643637;03/08/24;00:07:17;1.003;-0.044;0.095;-0.28099802136421204;-0.010995574295520782;-0.0036651913542300463
01:00:0A:00:00:00:00;1722643638;03/08/24;00:07:18;1.002;-0.052;0.093;-0.25534167885780334;0.006108652334660292;-0.018325956538319588
01:00:0A:00:00:00:00;1722643639;03/08/24;00:07:19;1.005;-0.041;0.095;-0.25045475363731384;-0.03787364438176155;-0.02076941914856434
01:00:0A:00:00:00:00;1722643640;03/08/24;00:07:20;1.007;-0.042;0.092;-0.23457224667072296;-0.025656338781118393;-0.018325956538319588
01:00:0A:00:00:00:00;1722643641;03/08/24;00:07:21;1.007;-0.027;0.104;-0.21868975460529327;-0.009773843921720982;-0.03420845419168472
01:00:0A:00:00:00:00;1722643642;03/08/24;00:07:22;1.005;-0.031;0.092;-0.21624629199504852;-0.02321287989616394;-0.0073303827084600925
01:00:0A:00:00:00:00;1722643643;03/08/24;00:07:23;1.007;-0.031;0.103;-0.20402899384498596;0.012217304669320583;-0.028099799528717995
01:00:0A:00:00:00:00;1722643644;03/08/24;00:07:24;1.009;-0.03;0.099;-0.20647244155406952;-0.02687807008624077;-0.036651913076639175
01:00:0A:00:00:00:00;1722643645;03/08/24;00:07:25;1.016;-0.027;0.094;-0.20891590416431427;0.0036651913542300463;0.0012217304902151227
01:00:0A:00:00:00:00;1722643646;03/08/24;00:07:26;1.019;-0.032;0.109;-0.2076941877603531;-0.013439035043120384;-0.014660765416920185
01:00:0A:00:00:00:00;1722643647;03/08/24;00:07:27;1.021;-0.019;0.102;-0.21013763546943665;-0.010995574295520782;-0.028099799528717995
01:00:0A:00:00:00:00;1722643648;03/08/24;00:07:28;1.017;-0.032;0.109;-0.21991148591041565;-0.010995574295520782;-0.004886921960860491
01:00:0A:00:00:00:00;1722643649;03/08/24;00:07:29;1.01;-0.022;0.103;-0.21991148591041565;-0.0036651913542300463;-0.02076941914856434
01:00:0A:00:00:00:00;1722643650;03/08/24;00:07:30;1.002;-0.025;0.104;-0.22968533635139465;-0.0073303827084600925;-0.03298672288656235
01:00:0A:00:00:00:00;1722643651;03/08/24;00:07:31;1.003;-0.029;0.101;-0.23945917189121246;-0.015882495790719986;-0.028099799528717995
01:00:0A:00:00:00:00;1722643652;03/08/24;00:07:32;1.016;-0.045;0.109;-0.24923302233219147;-0.010995574295520782;-0.021991148591041565
01:00:0A:00:00:00:00;1722643653;03/08/24;00:07:33;1.022;-0.044;0.11;-0.2528982162475586;-0.009773843921720982;-0.03298672288656235
01:00:0A:00:00:00:00;1722643654;03/08/24;00:07:34;1.016;-0.039;0.117;-0.26145032048225403;-0.013439035043120384;-0.010995574295520782
01:00:0A:00:00:00:00;1722643655;03/08/24;00:07:35;1.011;-0.042;0.095;-0.2577851116657257;-0.021991148591041565;-0.018325956538319588
01:00:0A:00:00:00:00;1722643656;03/08/24;00:07:36;1.007;-0.044;0.104;-0.24068090319633484;-0.0036651913542300463;-0.021991148591041565
01:00:0A:00:00:00:00;1722643657;03/08/24;00:07:37;1.012;-0.03;0.109;-0.23335053026676178;-0.0024434609804302454;-0.02321287989616394
01:00:0A:00:00:00:00;1722643658;03/08/24;00:07:38;1.018;-0.04;0.098;-0.2272418737411499;-0.012217304669320583;-0.00855211354792118
01:00:0A:00:00:00:00;1722643659;03/08/24;00:07:39;1.014;-0.035;0.101;-0.2076941877603531;0.0073303827084600925;-0.02076941914856434
01:00:0A:00:00:00:00;1722643660;03/08/24;00:07:40;1.012;-0.033;0.098;-0.2028072476387024;-0.018325956538319588;-0.013439035043120384
01:00:0A:00:00:00:00;1722643661;03/08/24;00:07:41;1.013;-0.032;0.096;-0.18814648687839508;0.0024434609804302454;-0.014660765416920185
01:00:0A:00:00:00:00;1722643662;03/08/24;00:07:42;1.016;-0.02;0.098;-0.17837265133857727;-0.0036651913542300463;-0.00855211354792118
01:00:0A:00:00:00:00;1722643663;03/08/24;00:07:43;1.013;-0.024;0.103;-0.1722639948129654;-0.004886921960860491;-0.014660765416920185
01:00:0A:00:00:00:00;1722643664;03/08/24;00:07:44;1.009;-0.025;0.103;-0.1661553531885147;0.00855211354792118;-0.02076941914856434
01:00:0A:00:00:00:00;1722643665;03/08/24;00:07:45;1.007;-0.024;0.098;-0.16371189057826996;0.006108652334660292;-0.010995574295520782
01:00:0A:00:00:00:00;1722643666;03/08/24;00:07:46;1.008;-0.033;0.102;-0.16004669666290283;-0.0073303827084600925;-0.025656338781118393
01:00:0A:00:00:00:00;1722643667;03/08/24;00:07:47;1.015;-0.031;0.096;-0.16004669666290283;-0.010995574295520782;-0.013439035043120384
01:00:0A:00:00:00:00;1722643668;03/08/24;00:07:48;1.017;-0.039;0.096;-0.1576032191514969;-0.009773843921720982;-0.006108652334660292
01:00:0A:00:00:00:00;1722643669;03/08/24;00:07:49;1.017;-0.031;0.099;-0.15393804013729095;-0.021991148591041565;-0.00855211354792118
01:00:0A:00:00:00:00;1722643670;03/08/24;00:07:50;1.018;-0.033;0.105;-0.15027284622192383;-0.009773843921720982;-0.01710422709584236
01:00:0A:00:00:00:00;1722643671;03/08/24;00:07:51;1.019;-0.031;0.104;-0.14782939851284027;0.0024434609804302454;-0.004886921960860491
01:00:0A:00:00:00:00;1722643672;03/08/24;00:07:52;1.013;-0.03;0.103;-0.1514945775270462;0.0;0.0012217304902151227
01:00:0A:00:00:00:00;1722643673;03/08/24;00:07:53;1.006;-0.025;0.092;-0.15515977144241333;-0.012217304669320583;0.006108652334660292
01:00:0A:00:00:00:00;1722643674;03/08/24;00:07:54;1.0;-0.027;0.105;-0.1563815027475357;0.0024434609804302454;-0.004886921960860491
01:00:0A:00:00:00:00;1722643675;03/08/24;00:07:55;1.003;-0.028;0.102;-0.16371189057826996;-0.012217304669320583;-0.021991148591041565
01:00:0A:00:00:00:00;1722643676;03/08/24;00:07:56;1.011;-0.032;0.101;-0.16859880089759827;-0.014660765416920185;-0.01710422709584236
01:00:0A:00:00:00:00;1722643677;03/08/24;00:07:57;1.013;-0.037;0.108;-0.1722639948129654;-0.006108652334660292;-0.019547687843441963
01:00:0A:00:00:00:00;1722643678;03/08/24;00:07:58;1.011;-0.033;0.102;-0.1771509200334549;-0.019547687843441963;-0.012217304669320583
01:00:0A:00:00:00:00;1722643679;03/08/24;00:07:59;1.013;-0.035;0.106;-0.17348572611808777;-0.006108652334660292;-0.02076941914856434
01:00:0A:00:00:00:00;1722643680;03/08/24;00:08:00;1.016;-0.033;0.106;-0.17348572611808777;-0.012217304669320583;-0.01710422709584236
01:00:0A:00:00:00:00;1722643681;03/08/24;00:08:01;1.016;-0.046;0.106;-0.16859880089759827;-0.010995574295520782;-0.012217304669320583
01:00:0A:00:00:00:00;1722643682;03/08/24;00:08:02;1.016;-0.035;0.105;-0.16249015927314758;-0.0073303827084600925;-0.012217304669320583
01:00:0A:00:00:00:00;1722643683;03/08/24;00:08:03;1.013;-0.04;0.103;-0.16004669666290283;-0.014660765416920185;0.009773843921720982
01:00:0A:00:00:00:00;1722643684;03/08/24;00:08:04;1.012;-0.039;0.105;-0.14294245839118958;-0.0073303827084600925;-0.015882495790719986
01:00:0A:00:00:00:00;1722643685;03/08/24;00:08:05;1.013;-0.031;0.103;-0.13805554807186127;-0.012217304669320583;-0.0073303827084600925
01:00:0A:00:00:00:00;1722643686;03/08/24;00:08:06;1.013;-0.038;0.104;-0.12828169763088226;-0.004886921960860491;-0.0073303827084600925
01:00:0A:00:00:00:00;1722643687;03/08/24;00:08:07;1.01;-0.032;0.1;-0.11850785464048386;-0.006108652334660292;-0.010995574295520782
01:00:0A:00:00:00:00;1722643688;03/08/24;00:08:08;1.008;-0.039;0.097;-0.11239919811487198;-0.0073303827084600925;-0.0073303827084600925
01:00:0A:00:00:00:00;1722643689;03/08/24;00:08:09;1.007;-0.037;0.096;-0.09651670604944229;0.0;-0.01710422709584236
01:00:0A:00:00:00:00;1722643690;03/08/24;00:08:10;1.013;-0.038;0.102;-0.09285151958465576;-0.01710422709584236;-0.0073303827084600925
01:00:0A:00:00:00:00;1722643691;03/08/24;00:08:11;1.016;-0.035;0.094;-0.08185594528913498;-0.013439035043120384;-0.006108652334660292
01:00:0A:00:00:00:00;1722643692;03/08/24;00:08:12;1.017;-0.038;0.099;-0.0757472887635231;-0.018325956538319588;-0.0036651913542300463
01:00:0A:00:00:00:00;1722643693;03/08/24;00:08:13;1.019;-0.031;0.094;-0.0659734457731247;-0.019547687843441963;-0.00855211354792118
01:00:0A:00:00:00:00;1722643694;03/08/24;00:08:14;1.02;-0.035;0.099;-0.06108652427792549;-0.00855211354792118;0.009773843921720982
01:00:0A:00:00:00:00;1722643695;03/08/24;00:08:15;1.015;-0.03;0.098;-0.05375614017248154;-0.009773843921720982;0.0024434609804302454
01:00:0A:00:00:00:00;1722643696;03/08/24;00:08:16;1.015;-0.032;0.068;-0.05375614017248154;-0.04642575979232788;0.009773843921720982
01:00:0A:00:00:00:00;1722643697;03/08/24;00:08:17;1.013;-0.032;0.04;0.04764748737215996;-0.02321287989616394;-0.0073303827084600925
01:00:0A:00:00:00:00;1722643698;03/08/24;00:08:18;1.015;-0.019;0.034;0.04153883829712868;0.024434609338641167;0.012217304669320583
01:00:0A:00:00:00:00;1722643699;03/08/24;00:08:19;1.015;-0.018;0.079;-0.0024434609804302454;0.04886921867728233;0.012217304669320583
01:00:0A:00:00:00:00;1722643700;03/08/24;00:08:20;1.013;-0.04;0.119;-0.02321287989616394;-0.013439035043120384;0.025656338781118393
01:00:0A:00:00:00:00;1722643701;03/08/24;00:08:21;1.018;-0.04;0.087;-0.014660765416920185;-0.05009094998240471;-0.014660765416920185
01:00:0A:00:00:00:00;1722643702;03/08/24;00:08:22;1.019;-0.025;0.088;0.0036651913542300463;0.013439035043120384;0.009773843921720982
01:00:0A:00:00:00:00;1722643703;03/08/24;00:08:23;1.016;-0.045;0.121;-0.006108652334660292;0.006108652334660292;0.02932153083384037
01:00:0A:00:00:00:00;1722643704;03/08/24;00:08:24;1.013;-0.039;0.094;-0.006108652334660292;-0.042760565876960754;-0.0012217304902151227
01:00:0A:00:00:00:00;1722643705;03/08/24;00:08:25;1.011;-0.024;0.091;0.013439035043120384;0.015882495790719986;0.0024434609804302454
01:00:0A:00:00:00:00;1722643706;03/08/24;00:08:26;1.005;-0.035;0.116;0.0012217304902151227;-0.0036651913542300463;0.02932153083384037
01:00:0A:00:00:00:00;1722643707;03/08/24;00:08:27;1.005;-0.035;0.091;0.006108652334660292;-0.039095375686883926;-0.014660765416920185
01:00:0A:00:00:00:00;1722643708;03/08/24;00:08:28;1.005;-0.022;0.095;0.01710422709584236;0.012217304669320583;0.0036651913542300463
01:00:0A:00:00:00:00;1722643709;03/08/24;00:08:29;1.006;-0.038;0.112;0.006108652334660292;-0.019547687843441963;0.009773843921720982
01:00:0A:00:00:00:00;1722643710;03/08/24;00:08:30;1.014;-0.039;0.095;0.00855211354792118;-0.030543262138962746;-0.0073303827084600925
01:00:0A:00:00:00:00;1722643711;03/08/24;00:08:31;1.016;-0.027;0.095;0.014660765416920185;0.0012217304902151227;0.006108652334660292
01:00:0A:00:00:00:00;1722643712;03/08/24;00:08:32;1.018;-0.036;0.073;0.036651913076639175;-0.04764748737215996;0.01710422709584236
01:00:0A:00:00:00:00;1722643713;03/08/24;00:08:33;1.015;-0.04;0.079;0.05619959905743599;-0.0024434609804302454;0.010995574295520782
01:00:0A:00:00:00:00;1722643714;03/08/24;00:08:34;1.011;-0.035;0.094;0.0659734457731247;0.0;0.0
01:00:0A:00:00:00:00;1722643715;03/08/24;00:08:35;1.009;-0.03;0.111;0.05253440886735916;0.0;0.012217304669320583
01:00:0A:00:00:00:00;1722643716;03/08/24;00:08:36;1.009;-0.036;0.099;0.039095375686883926;-0.025656338781118393;0.009773843921720982
01:00:0A:00:00:00:00;1722643717;03/08/24;00:08:37;1.008;-0.033;0.094;0.04764748737215996;0.006108652334660292;-0.0024434609804302454
01:00:0A:00:00:00:00;1722643718;03/08/24;00:08:38;1.006;-0.03;0.108;0.036651913076639175;-0.012217304669320583;0.0036651913542300463
01:00:0A:00:00:00:00;1722643719;03/08/24;00:08:39;1.009;-0.035;0.095;0.028099799528717995;-0.030543262138962746;0.0073303827084600925
01:00:0A:00:00:00:00;1722643720;03/08/24;00:08:40;1.016;-0.036;0.097;0.036651913076639175;-0.0073303827084600925;-0.00855211354792118
01:00:0A:00:00:00:00;1722643721;03/08/24;00:08:41;1.016;-0.028;0.106;0.02687807008624077;-0.012217304669320583;0.00855211354792118
01:00:0A:00:00:00:00;1722643722;03/08/24;00:08:42;1.016;-0.038;0.1;0.02076941914856434;-0.018325956538319588;0.00855211354792118
01:00:0A:00:00:00:00;1722643723;03/08/24;00:08:43;1.015;-0.034;0.097;0.025656338781118393;-0.004886921960860491;0.0
01:00:0A:00:00:00:00;1722643724;03/08/24;00:08:44;1.014;-0.032;0.105;0.021991148591041565;-0.0036651913542300463;0.00855211354792118
01:00:0A:00:00:00:00;1722643725;03/08/24;00:08:45;1.013;-0.034;0.102;0.014660765416920185;-0.015882495790719986;0.012217304669320583
01:00:0A:00:00:00:00;1722643726;03/08/24;00:08:46;1.008;-0.036;0.098;0.02076941914856434;-0.006108652334660292;-0.0036651913542300463
01:00:0A:00:00:00:00;1722643727;03/08/24;00:08:47;1.007;-0.027;0.106;0.015882495790719986;-0.012217304669320583;0.0024434609804302454
01:00:0A:00:00:00:00;1722643728;03/08/24;00:08:48;1.011;-0.037;0.1;0.010995574295520782;-0.024434609338641167;0.0024434609804302454
01:00:0A:00:00:00:00;1722643729;03/08/24;00:08:49;1.017;-0.034;0.097;0.01710422709584236;-0.006108652334660292;-0.006108652334660292
01:00:0A:00:00:00:00;1722643730;03/08/24;00:08:50;1.019;-0.034;0.107;0.010995574295520782;-0.014660765416920185;0.0024434609804302454
01:00:0A:00:00:00:00;1722643731;03/08/24;00:08:51;1.018;-0.036;0.097;0.0073303827084600925;-0.015882495790719986;0.00855211354792118
01:00:0A:00:00:00:00;1722643732;03/08/24;00:08:52;1.016;-0.039;0.104;0.010995574295520782;-0.0073303827084600925;0.006108652334660292
01:00:0A:00:00:00:00;1722643733;03/08/24;00:08:53;1.014;-0.028;0.103;0.02932153083384037;-0.010995574295520782;-0.006108652334660292
01:00:0A:00:00:00:00;1722643734;03/08/24;00:08:54;1.015;-0.024;0.102;0.05619959905743599;-0.009773843921720982;0.012217304669320583
01:00:0A:00:00:00:00;1722643735;03/08/24;00:08:55;1.016;-0.036;0.1;0.04764748737215996;-0.010995574295520782;0.02687807008624077
01:00:0A:00:00:00:00;1722643736;03/08/24;00:08:56;1.011;-0.042;0.103;0.05497787147760391;-0.00855211354792118;-0.0024434609804302454
01:00:0A:00:00:00:00;1722643737;03/08/24;00:08:57;1.011;-0.024;0.098;0.04886921867728233;-0.02076941914856434;-0.0024434609804302454
01:00:0A:00:00:00:00;1722643738;03/08/24;00:08:58;1.013;-0.037;0.098;0.04398229718208313;-0.006108652334660292;0.024434609338641167
01:00:0A:00:00:00:00;1722643739;03/08/24;00:08:59;1.015;-0.04;0.106;0.04764748737215996;-0.013439035043120384;-0.006108652334660292
01:00:0A:00:00:00:00;1722643740;03/08/24;00:09:00;1.015;-0.027;0.1;0.04398229718208313;-0.015882495790719986;0.0036651913542300463
01:00:0A:00:00:00:00;1722643741;03/08/24;00:09:01;1.013;-0.035;0.101;0.04153883829712868;-0.006108652334660292;0.02076941914856434
01:00:0A:00:00:00:00;1722643742;03/08/24;00:09:02;1.013;-0.038;0.104;0.04153883829712868;-0.018325956538319588;0.004886921960860491
01:00:0A:00:00:00:00;1722643743;03/08/24;00:09:03;1.016;-0.03;0.098;0.04153883829712868;-0.010995574295520782;0.0036651913542300463
01:00:0A:00:00:00:00;1722643744;03/08/24;00:09:04;1.012;-0.033;0.104;0.03787364438176155;-0.004886921960860491;0.021991148591041565
01:00:0A:00:00:00:00;1722643745;03/08/24;00:09:05;1.01;-0.038;0.104;0.03787364438176155;-0.012217304669320583;0.0036651913542300463
01:00:0A:00:00:00:00;1722643746;03/08/24;00:09:06;1.008;-0.027;0.1;0.03787364438176155;-0.013439035043120384;0.0036651913542300463
01:00:0A:00:00:00:00;1722643747;03/08/24;00:09:07;1.009;-0.036;0.101;0.0354301817715168;-0.0073303827084600925;0.013439035043120384
01:00:0A:00:00:00:00;1722643748;03/08/24;00:09:08;1.011;-0.037;0.105;0.03787364438176155;-0.012217304669320583;-0.0036651913542300463
01:00:0A:00:00:00:00;1722643749;03/08/24;00:09:09;1.014;-0.03;0.1;0.03298672288656235;-0.018325956538319588;0.0073303827084600925
01:00:0A:00:00:00:00;1722643750;03/08/24;00:09:10;1.014;-0.036;0.102;0.03420845419168472;-0.0073303827084600925;0.012217304669320583
01:00:0A:00:00:00:00;1722643751;03/08/24;00:09:11;1.013;-0.036;0.106;0.03176499158143997;-0.013439035043120384;0.004886921960860491
01:00:0A:00:00:00:00;1722643752;03/08/24;00:09:12;1.012;-0.032;0.098;0.030543262138962746;-0.013439035043120384;0.0036651913542300463
01:00:0A:00:00:00:00;1722643753;03/08/24;00:09:13;1.012;-0.034;0.103;0.03176499158143997;-0.0012217304902151227;0.009773843921720982
01:00:0A:00:00:00:00;1722643754;03/08/24;00:09:14;1.009;-0.035;0.104;0.02687807008624077;-0.018325956538319588;0.004886921960860491
01:00:0A:00:00:00:00;1722643755;03/08/24;00:09:15;1.009;-0.032;0.099;0.028099799528717995;-0.009773843921720982;0.004886921960860491
01:00:0A:00:00:00:00;1722643756;03/08/24;00:09:16;1.009;-0.034;0.102;0.025656338781118393;-0.013439035043120384;0.0073303827084600925
01:00:0A:00:00:00:00;1722643757;03/08/24;00:09:17;1.01;-0.036;0.104;0.02687807008624077;-0.009773843921720982;0.0024434609804302454
01:00:0A:00:00:00:00;1722643758;03/08/24;00:09:18;1.013;-0.031;0.102;0.024434609338641167;-0.014660765416920185;0.0
01:00:0A:00:00:00:00;1722643759;03/08/24;00:09:19;1.013;-0.035;0.101;0.02321287989616394;-0.0073303827084600925;0.009773843921720982
01:00:0A:00:00:00:00;1722643760;03/08/24;00:09:20;1.013;-0.037;0.106;0.02321287989616394;-0.014660765416920185;-0.0012217304902151227
01:00:0A:00:00:00:00;1722643761;03/08/24;00:09:21;1.015;-0.034;0.098;0.02076941914856434;-0.014660765416920185;0.00855211354792118
01:00:0A:00:00:00:00;1722643762;03/08/24;00:09:22;1.014;-0.035;0.103;0.02076941914856434;-0.0073303827084600925;0.0036651913542300463
01:00:0A:00:00:00:00;1722643763;03/08/24;00:09:23;1.013;-0.032;0.103;0.018325956538319588;-0.013439035043120384;0.0036651913542300463
01:00:0A:00:00:00:00;1722643764;03/08/24;00:09:24;1.013;-0.036;0.102;0.018325956538319588;-0.014660765416920185;0.004886921960860491
01:00:0A:00:00:00:00;1722643765;03/08/24;00:09:25;1.013;-0.033;0.1;0.019547687843441963;-0.00855211354792118;0.004886921960860491
01:00:0A:00:00:00:00;1722643766;03/08/24;00:09:26;1.012;-0.037;0.105;0.01710422709584236;-0.013439035043120384;0.0036651913542300463
01:00:0A:00:00:00:00;1722643767;03/08/24;00:09:27;1.012;-0.033;0.1;0.01710422709584236;-0.009773843921720982;0.0012217304902151227
01:00:0A:00:00:00:00;1722643768;03/08/24;00:09:28;1.012;-0.036;0.103;0.014660765416920185;-0.012217304669320583;0.00855211354792118
01:00:0A:00:00:00:00;1722643769;03/08/24;00:09:29;1.016;-0.035;0.102;0.014660765416920185;-0.012217304669320583;0.0036651913542300463
01:00:0A:00:00:00:00;1722643770;03/08/24;00:09:30;1.015;-0.034;0.102;0.014660765416920185;-0.010995574295520782;0.004886921960860491
01:00:0A:00:00:00:00;1722643771;03/08/24;00:09:31;1.013;-0.034;0.1;0.014660765416920185;-0.009773843921720982;0.0073303827084600925
01:00:0A:00:00:00:00;1722643772;03/08/24;00:09:32;1.014;-0.034;0.104;0.014660765416920185;-0.010995574295520782;0.004886921960860491
01:00:0A:00:00:00:00;1722643773;03/08/24;00:09:33;1.014;-0.035;0.1;0.013439035043120384;-0.013439035043120384;0.00855211354792118
01:00:0A:00:00:00:00;1722643774;03/08/24;00:09:34;1.013;-0.035;0.102;0.014660765416920185;-0.006108652334660292;0.004886921960860491
01:00:0A:00:00:00:00;1722643775;03/08/24;00:09:35;1.013;-0.035;0.103;0.012217304669320583;-0.014660765416920185;0.006108652334660292
01:00:0A:00:00:00:00;1722643776;03/08/24;00:09:36;1.012;-0.035;0.1;0.014660765416920185;-0.009773843921720982;0.004886921960860491
01:00:0A:00:00:00:00;1722643777;03/08/24;00:09:37;1.012;-0.034;0.102;0.013439035043120384;-0.012217304669320583;0.004886921960860491
01:00:0A:00:00:00:00;1722643778;03/08/24;00:09:38;1.014;-0.038;0.101;0.013439035043120384;-0.012217304669320583;0.0073303827084600925
01:00:0A:00:00:00:00;1722643779;03/08/24;00:09:39;1.014;-0.034;0.102;0.014660765416920185;-0.010995574295520782;0.0036651913542300463
01:00:0A:00:00:00:00;1722643780;03/08/24;00:09:40;1.015;-0.035;0.101;0.013439035043120384;-0.00855211354792118;0.0073303827084600925
01:00:0A:00:00:00:00;1722643781;03/08/24;00:09:41;1.011;-0.035;0.104;0.013439035043120384;-0.009773843921720982;0.0036651913542300463
01:00:0A:00:00:00:00;1722643782;03/08/24;00:09:42;1.013;-0.032;0.102;0.012217304669320583;-0.010995574295520782;0.004886921960860491
01:00:0A:00:00:00:00;1722643783;03/08/24;00:09:43;1.012;-0.037;0.104;0.012217304669320583;-0.009773843921720982;0.006108652334660292
01:00:0A:00:00:00:00;1722643784;03/08/24;00:09:44;1.012;-0.033;0.102;0.009773843921720982;-0.012217304669320583;0.006108652334660292
01:00:0A:00:00:00:00;1722643785;03/08/24;00:09:45;1.011;-0.034;0.102;0.00855211354792118;-0.012217304669320583;0.006108652334660292
01:00:0A:00:00:00:00;1722643786;03/08/24;00:09:46;1.01;-0.062;0.101;0.05742133408784866;-0.015882495790719986;0.02321287989616394
01:00:0A:00:00:00:00;1722643787;03/08/24;00:09:47;1.01;-0.076;0.108;0.1319468915462494;-0.010995574295520782;0.019547687843441963
01:00:0A:00:00:00:00;1722643788;03/08/24;00:09:48;1.012;-0.066;0.102;0.14416420459747314;-0.025656338781118393;-0.0073303827084600925
01:00:0A:00:00:00:00;1722643789;03/08/24;00:09:49;1.013;-0.036;0.099;0.13927726447582245;-0.01710422709584236;-0.01710422709584236
01:00:0A:00:00:00:00;1722643790;03/08/24;00:09:50;1.012;-0.02;0.1;0.1270599663257599;-0.006108652334660292;0.019547687843441963
01:00:0A:00:00:00:00;1722643791;03/08/24;00:09:51;1.011;-0.04;0.109;0.11484266817569733;-0.009773843921720982;0.030543262138962746
01:00:0A:00:00:00:00;1722643792;03/08/24;00:09:52;1.014;-0.038;0.099;0.1160643920302391;-0.02687807008624077;-0.0073303827084600925
01:00:0A:00:00:00:00;1722643793;03/08/24;00:09:53;1.012;-0.022;0.098;0.11362093687057495;-0.0024434609804302454;0.014660765416920185
01:00:0A:00:00:00:00;1722643794;03/08/24;00:09:54;1.01;-0.04;0.109;0.10384709388017654;-0.009773843921720982;0.030543262138962746
01:00:0A:00:00:00:00;1722643795;03/08/24;00:09:55;1.011;-0.036;0.101;0.1062905490398407;-0.02687807008624077;-0.006108652334660292
01:00:0A:00:00:00:00;1722643796;03/08/24;00:09:56;1.012;-0.024;0.097;0.10384709388017654;-0.006108652334660292;0.014660765416920185
01:00:0A:00:00:00:00;1722643797;03/08/24;00:09:57;1.011;-0.038;0.107;0.09896016865968704;-0.004886921960860491;0.021991148591041565
01:00:0A:00:00:00:00;1722643798;03/08/24;00:09:58;1.012;-0.034;0.101;0.09529497474431992;-0.02932153083384037;0.0036651913542300463
01:00:0A:00:00:00:00;1722643799;03/08/24;00:09:59;1.012;-0.029;0.096;0.09773843735456467;-0.004886921960860491;0.009773843921720982
01:00:0A:00:00:00:00;1722643800;03/08/24;00:10:00;1.012;-0.035;0.109;0.09162978082895279;-0.009773843921720982;0.018325956538319588
01:00:0A:00:00:00:00;1722643801;03/08/24;00:10:01;1.013;-0.038;0.102;0.08796459436416626;-0.024434609338641167;0.0036651913542300463
01:00:0A:00:00:00:00;1722643802;03/08/24;00:10:02;1.014;-0.029;0.098;0.08918632566928864;-0.00855211354792118;0.010995574295520782
01:00:0A:00:00:00:00;1722643803;03/08/24;00:10:03;1.011;-0.034;0.106;0.08674286305904388;-0.004886921960860491;0.01710422709584236
01:00:0A:00:00:00:00;1722643804;03/08/24;00:10:04;1.01;-0.035;0.102;0.08185594528913498;-0.02321287989616394;0.0073303827084600925
01:00:0A:00:00:00:00;1722643805;03/08/24;00:10:05;1.013;-0.032;0.097;0.08552113175392151;-0.009773843921720982;0.006108652334660292
01:00:0A:00:00:00:00;1722643806;03/08/24;00:10:06;1.013;-0.033;0.107;0.08185594528913498;-0.0073303827084600925;0.014660765416920185
01:00:0A:00:00:00:00;1722643807;03/08/24;00:10:07;1.014;-0.036;0.102;0.07696902006864548;-0.021991148591041565;0.009773843921720982
01:00:0A:00:00:00:00;1722643808;03/08/24;00:10:08;1.013;-0.031;0.098;0.08185594528913498;-0.0073303827084600925;0.0073303827084600925
01:00:0A:00:00:00:00;1722643809;03/08/24;00:10:09;1.012;-0.033;0.106;0.07819075137376785;-0.00855211354792118;0.013439035043120384
01:00:0A:00:00:00:00;1722643810;03/08/24;00:10:10;1.013;-0.034;0.103;0.08429940044879913;0.004886921960860491;-0.013439035043120384
01:00:0A:00:00:00:00;1722643811;03/08/24;00:10:11;1.011;-0.012;0.122;0.0708603635430336;-0.0012217304902151227;-0.0024434609804302454
01:00:0A:00:00:00:00;1722643812;03/08/24;00:10:12;1.012;-0.009;0.114;0.06475171446800232;-0.03176499158143997;0.018325956538319588
01:00:0A:00:00:00:00;1722643813;03/08/24;00:10:13;1.012;-0.032;0.098;0.0708603635430336;-0.01710422709584236;0.03787364438176155
01:00:0A:00:00:00:00;1722643814;03/08/24;00:10:14;1.012;-0.045;0.102;0.08185594528913498;-0.006108652334660292;0.0012217304902151227
01:00:0A:00:00:00:00;1722643815;03/08/24;00:10:15;1.013;-0.025;0.104;0.080634206533432;-0.014660765416920185;-0.00855211354792118
01:00:0A:00:00:00:00;1722643816;03/08/24;00:10:16;1.013;-0.032;0.098;0.06719517707824707;-0.013439035043120384;0.030543262138962746
01:00:0A:00:00:00:00;1722643817;03/08/24;00:10:17;1.013;-0.043;0.102;0.0757472887635231;-0.006108652334660292;0.004886921960860491
01:00:0A:00:00:00:00;1722643818;03/08/24;00:10:18;1.013;-0.024;0.105;0.0708603635430336;-0.018325956538319588;-0.0024434609804302454
01:00:0A:00:00:00:00;1722643819;03/08/24;00:10:19;1.013;-0.028;0.095;0.039095375686883926;-0.02076941914856434;0.013439035043120384
01:00:0A:00:00:00:00;1722643820;03/08/24;00:10:20;1.012;-0.037;0.102;0.03787364438176155;-0.0012217304902151227;0.0036651913542300463
01:00:0A:00:00:00:00;1722643821;03/08/24;00:10:21;1.012;-0.03;0.106;0.0354301817715168;-0.014660765416920185;0.0024434609804302454
01:00:0A:00:00:00:00;1722643822;03/08/24;00:10:22;1.013;-0.032;0.099;0.03176499158143997;-0.015882495790719986;0.010995574295520782
01:00:0A:00:00:00:00;1722643823;03/08/24;00:10:23;1.012;-0.035;0.101;0.036651913076639175;-0.004886921960860491;0.0036651913542300463
01:00:0A:00:00:00:00;1722643824;03/08/24;00:10:24;1.011;-0.033;0.107;0.03298672288656235;-0.014660765416920185;0.0036651913542300463
01:00:0A:00:00:00:00;1722643825;03/08/24;00:10:25;1.014;-0.029;0.097;0.019547687843441963;-0.02321287989616394;0.0
01:00:0A:00:00:00:00;1722643826;03/08/24;00:10:26;1.012;-0.033;0.1;0.02321287989616394;0.0012217304902151227;0.012217304669320583
01:00:0A:00:00:00:00;1722643827;03/08/24;00:10:27;1.013;-0.034;0.107;0.03298672288656235;-0.019547687843441963;-0.0012217304902151227
01:00:0A:00:00:00:00;1722643828;03/08/24;00:10:28;1.014;-0.03;0.097;0.02932153083384037;-0.015882495790719986;0.0073303827084600925
01:00:0A:00:00:00:00;1722643829;03/08/24;00:10:29;1.013;-0.034;0.1;0.0354301817715168;-0.010995574295520782;0.0024434609804302454
01:00:0A:00:00:00:00;1722643830;03/08/24;00:10:30;1.012;-0.029;0.103;0.03298672288656235;-0.009773843921720982;0.00855211354792118
01:00:0A:00:00:00:00;1722643831;03/08/24;00:10:31;1.012;-0.036;0.101;0.030543262138962746;-0.014660765416920185;0.009773843921720982
01:00:0A:00:00:00:00;1722643832;03/08/24;00:10:32;1.011;-0.033;0.103;0.03176499158143997;-0.00855211354792118;0.0012217304902151227
01:00:0A:00:00:00:00;1722643833;03/08/24;00:10:33;1.013;-0.031;0.101;0.028099799528717995;-0.013439035043120384;0.00855211354792118
01:00:0A:00:00:00:00;1722643834;03/08/24;00:10:34;1.012;-0.035;0.101;0.028099799528717995;-0.009773843921720982;0.00855211354792118
01:00:0A:00:00:00:00;1722643835;03/08/24;00:10:35;1.013;-0.033;0.102;0.02687807008624077;-0.013439035043120384;0.0012217304902151227
01:00:0A:00:00:00:00;1722643836;03/08/24;00:10:36;1.012;-0.032;0.101;0.025656338781118393;-0.010995574295520782;0.0073303827084600925
01:00:0A:00:00:00:00;1722643837;03/08/24;00:10:37;1.013;-0.034;0.103;0.024434609338641167;-0.012217304669320583;0.0073303827084600925
01:00:0A:00:00:00:00;1722643838;03/08/24;00:10:38;1.012;-0.033;0.102;0.024434609338641167;-0.010995574295520782;0.0036651913542300463
01:00:0A:00:00:00:00;1722643839;03/08/24;00:10:39;1.013;-0.031;0.101;0.02321287989616394;-0.012217304669320583;0.004886921960860491
01:00:0A:00:00:00:00;1722643840;03/08/24;00:10:40;1.013;-0.034;0.101;0.02321287989616394;-0.010995574295520782;0.00855211354792118
01:00:0A:00:00:00:00;1722643841;03/08/24;00:10:41;1.012;-0.033;0.103;0.024434609338641167;-0.012217304669320583;0.0024434609804302454
01:00:0A:00:00:00:00;1722643842;03/08/24;00:10:42;1.013;-0.031;0.101;0.021991148591041565;-0.012217304669320583;0.006108652334660292
01:00:0A:00:00:00:00;1722643843;03/08/24;00:10:43;1.013;-0.035;0.102;0.021991148591041565;-0.010995574295520782;0.0073303827084600925
01:00:0A:00:00:00:00;1722643844;03/08/24;00:10:44;1.013;-0.033;0.102;0.021991148591041565;-0.012217304669320583;0.0012217304902151227
01:00:0A:00:00:00:00;1722643845;03/08/24;00:10:45;1.013;-0.031;0.102;0.02076941914856434;-0.012217304669320583;0.006108652334660292
01:00:0A:00:00:00:00;1722643846;03/08/24;00:10:46;1.013;-0.034;0.102;0.019547687843441963;-0.012217304669320583;0.006108652334660292
01:00:0A:00:00:00:00;1722643847;03/08/24;00:10:47;1.012;-0.033;0.103;0.019547687843441963;-0.010995574295520782;0.004886921960860491
01:00:0A:00:00:00:00;1722643848;03/08/24;00:10:48;1.011;-0.033;0.102;0.018325956538319588;-0.012217304669320583;0.006108652334660292
01:00:0A:00:00:00:00;1722643849;03/08/24;00:10:49;1.012;-0.032;0.103;0.018325956538319588;-0.009773843921720982;0.006108652334660292
01:00:0A:00:00:00:00;1722643850;03/08/24;00:10:50;1.013;-0.034;0.102;0.01710422709584236;-0.013439035043120384;0.0036651913542300463
01:00:0A:00:00:00:00;1722643851;03/08/24;00:10:51;1.013;-0.032;0.1;0.01710422709584236;-0.010995574295520782;0.004886921960860491
01:00:0A:00:00:00:00;1722643852;03/08/24;00:10:52;1.013;-0.033;0.102;0.014660765416920185;-0.012217304669320583;0.0073303827084600925
01:00:0A:00:00:00:00;1722643853;03/08/24;00:10:53;1.013;-0.033;0.101;0.015882495790719986;-0.009773843921720982;0.0024434609804302454
01:00:0A:00:00:00:00;1722643854;03/08/24;00:10:54;1.013;-0.032;0.103;0.014660765416920185;-0.012217304669320583;0.006108652334660292
01:00:0A:00:00:00:00;1722643855;03/08/24;00:10:55;1.013;-0.034;0.101;0.014660765416920185;-0.009773843921720982;0.006108652334660292
01:00:0A:00:00:00:00;1722643856;03/08/24;00:10:56;1.013;-0.033;0.102;0.014660765416920185;-0.012217304669320583;0.004886921960860491
01:00:0A:00:00:00:00;1722643857;03/08/24;00:10:57;1.013;-0.033;0.102;0.014660765416920185;-0.009773843921720982;0.006108652334660292
01:00:0A:00:00:00:00;1722643858;03/08/24;00:10:58;1.012;-0.033;0.104;0.014660765416920185;-0.010995574295520782;0.0036651913542300463
01:00:0A:00:00:00:00;1722643859;03/08/24;00:10:59;1.013;-0.033;0.101;0.013439035043120384;-0.010995574295520782;0.006108652334660292
01:00:0A:00:00:00:00;1722643860;03/08/24;00:11:00;1.012;-0.033;0.103;0.013439035043120384;-0.010995574295520782;0.004886921960860491
01:00:0A:00:00:00:00;1722643861;03/08/24;00:11:01;1.012;-0.034;0.102;0.013439035043120384;-0.010995574295520782;0.006108652334660292
01:00:0A:00:00:00:00;1722643862;03/08/24;00:11:02;1.013;-0.033;0.103;0.013439035043120384;-0.010995574295520782;0.0036651913542300463
01:00:0A:00:00:00:00;1722643863;03/08/24;00:11:03;1.013;-0.033;0.101;0.012217304669320583;-0.010995574295520782;0.0036651913542300463
01:00:0A:00:00:00:00;1722643864;03/08/24;00:11:04;1.011;-0.033;0.103;0.010995574295520782;-0.009773843921720982;0.006108652334660292
01:00:0A:00:00:00:00;1722643865;03/08/24;00:11:05;1.013;-0.033;0.101;0.012217304669320583;-0.012217304669320583;0.0036651913542300463
01:00:0A:00:00:00:00;1722643866;03/08/24;00:11:06;1.013;-0.034;0.103;0.010995574295520782;-0.009773843921720982;0.0073303827084600925
01:00:0A:00:00:00:00;1722643867;03/08/24;00:11:07;1.012;-0.033;0.101;0.010995574295520782;-0.012217304669320583;0.0036651913542300463
01:00:0A:00:00:00:00;1722643868;03/08/24;00:11:08;1.013;-0.033;0.102;0.010995574295520782;-0.010995574295520782;0.0036651913542300463
01:00:0A:00:00:00:00;1722643869;03/08/24;00:11:09;1.012;-0.033;0.102;0.009773843921720982;-0.012217304669320583;0.006108652334660292
01:00:0A:00:00:00:00;1722643870;03/08/24;00:11:10;1.013;-0.034;0.103;0.010995574295520782;-0.009773843921720982;0.004886921960860491
01:00:0A:00:00:00:00;1722643871;03/08/24;00:11:11;1.011;-0.034;0.102;0.009773843921720982;-0.012217304669320583;0.004886921960860491
01:00:0A:00:00:00:00;1722643872;03/08/24;00:11:12;1.012;-0.033;0.103;0.009773843921720982;-0.010995574295520782;0.0024434609804302454
01:00:0A:00:00:00:00;1722643873;03/08/24;00:11:13;1.013;-0.033;0.103;0.00855211354792118;-0.012217304669320583;0.006108652334660292
01:00:0A:00:00:00:00;1722643874;03/08/24;00:11:14;1.013;-0.034;0.101;0.009773843921720982;-0.009773843921720982;0.0036651913542300463
01:00:0A:00:00:00:00;1722643875;03/08/24;00:11:15;1.012;-0.033;0.103;0.00855211354792118;-0.012217304669320583;0.004886921960860491
01:00:0A:00:00:00:00;1722643876;03/08/24;00:11:16;1.012;-0.034;0.101;0.00855211354792118;-0.010995574295520782;0.004886921960860491
01:00:0A:00:00:00:00;1722643877;03/08/24;00:11:17;1.012;-0.033;0.104;0.0073303827084600925;-0.012217304669320583;0.0024434609804302454
01:00:0A:00:00:00:00;1722643878;03/08/24;00:11:18;1.012;-0.034;0.102;0.0073303827084600925;-0.010995574295520782;0.006108652334660292
01:00:0A:00:00:00:00;1722643879;03/08/24;00:11:19;1.012;-0.034;0.102;0.0073303827084600925;-0.010995574295520782;0.0036651913542300463
01:00:0A:00:00:00:00;1722643880;03/08/24;00:11:20;1.013;-0.034;0.101;0.006108652334660292;-0.012217304669320583;0.004886921960860491
01:00:0A:00:00:00:00;1722643881;03/08/24;00:11:21;1.012;-0.033;0.102;0.004886921960860491;-0.010995574295520782;0.0036651913542300463
01:00:0A:00:00:00:00;1722643882;03/08/24;00:11:22;1.012;-0.034;0.101;0.004886921960860491;-0.012217304669320583;0.0036651913542300463
01:00:0A:00:00:00:00;1722643883;03/08/24;00:11:23;1.012;-0.034;0.103;0.0036651913542300463;-0.010995574295520782;0.004886921960860491
01:00:0A:00:00:00:00;1722643884;03/08/24;00:11:24;1.012;-0.035;0.101;0.0036651913542300463;-0.012217304669320583;0.0024434609804302454
01:00:0A:00:00:00:00;1722643885;03/08/24;00:11:25;1.012;-0.032;0.102;0.0024434609804302454;-0.009773843921720982;0.004886921960860491
01:00:0A:00:00:00:00;1722643886;03/08/24;00:11:26;1.013;-0.034;0.101;0.0024434609804302454;-0.012217304669320583;0.0024434609804302454
01:00:0A:00:00:00:00;1722643887;03/08/24;00:11:27;1.013;-0.033;0.103;0.0012217304902151227;-0.009773843921720982;0.0036651913542300463
01:00:0A:00:00:00:00;1722643888;03/08/24;00:11:28;1.012;-0.035;0.102;0.0;-0.012217304669320583;0.0036651913542300463
01:00:0A:00:00:00:00;1722643889;03/08/24;00:11:29;1.013;-0.033;0.101;0.0012217304902151227;-0.009773843921720982;0.0024434609804302454
01:00:0A:00:00:00:00;1722643890;03/08/24;00:11:30;1.013;-0.033;0.102;0.0;-0.012217304669320583;0.004886921960860491
01:00:0A:00:00:00:00;1722643891;03/08/24;00:11:31;1.012;-0.034;0.102;0.0;-0.009773843921720982;0.0024434609804302454
01:00:0A:00:00:00:00;1722643892;03/08/24;00:11:32;1.014;-0.034;0.103;-0.0012217304902151227;-0.012217304669320583;0.004886921960860491
01:00:0A:00:00:00:00;1722643893;03/08/24;00:11:33;1.013;-0.034;0.101;-0.0012217304902151227;-0.009773843921720982;0.0036651913542300463
01:00:0A:00:00:00:00;1722643894;03/08/24;00:11:34;1.012;-0.033;0.103;-0.0024434609804302454;-0.012217304669320583;0.0036651913542300463
01:00:0A:00:00:00:00;1722643895;03/08/24;00:11:35;1.012;-0.034;0.101;-0.0024434609804302454;-0.009773843921720982;0.0036651913542300463
01:00:0A:00:00:00:00;1722643896;03/08/24;00:11:36;1.011;-0.032;0.104;-0.0024434609804302454;-0.012217304669320583;0.0024434609804302454
01:00:0A:00:00:00:00;1722643897;03/08/24;00:11:37;1.013;-0.033;0.102;-0.0024434609804302454;-0.010995574295520782;0.004886921960860491
01:00:0A:00:00:00:00;1722643898;03/08/24;00:11:38;1.012;-0.034;0.103;-0.0024434609804302454;-0.010995574295520782;0.0024434609804302454
01:00:0A:00:00:00:00;1722643899;03/08/24;00:11:39;1.013;-0.033;0.101;-0.0024434609804302454;-0.009773843921720982;0.0036651913542300463
01:00:0A:00:00:00:00;1722643900;03/08/24;00:11:40;1.012;-0.036;0.102;-0.0024434609804302454;-0.010995574295520782;0.004886921960860491
01:00:0A:00:00:00:00;1722643901;03/08/24;00:11:41;1.013;-0.032;0.101;-0.0036651913542300463;-0.010995574295520782;0.0036651913542300463
01:00:0A:00:00:00:00;1722643902;03/08/24;00:11:42;1.013;-0.033;0.102;-0.0024434609804302454;-0.010995574295520782;0.0036651913542300463
01:00:0A:00:00:00:00;1722643903;03/08/24;00:11:43;1.014;-0.033;0.101;-0.0024434609804302454;-0.010995574295520782;0.0024434609804302454
01:00:0A:00:00:00:00;1722643904;03/08/24;00:11:44;1.013;-0.034;0.102;-0.0036651913542300463;-0.010995574295520782;0.004886921960860491
01:00:0A:00:00:00:00;1722643905;03/08/24;00:11:45;1.011;-0.034;0.102;-0.0036651913542300463;-0.010995574295520782;0.0024434609804302454
01:00:0A:00:00:00:00;1722643906;03/08/24;00:11:46;1.013;-0.034;0.102;-0.0036651913542300463;-0.010995574295520782;0.0036651913542300463
01:00:0A:00:00:00:00;1722643907;03/08/24;00:11:47;1.012;-0.035;0.101;-0.0036651913542300463;-0.012217304669320583;0.0036651913542300463
01:00:0A:00:00:00:00;1722643908;03/08/24;00:11:48;1.013;-0.034;0.103;-0.004886921960860491;-0.009773843921720982;0.0036651913542300463
01:00:0A:00:00:00:00;1722643909;03/08/24;00:11:49;1.012;-0.033;0.102;-0.006108652334660292;-0.012217304669320583;0.0036651913542300463
01:00:0A:00:00:00:00;1722643910;03/08/24;00:11:50;1.013;-0.033;0.101;-0.006108652334660292;-0.010995574295520782;0.0024434609804302454
01:00:0A:00:00:00:00;1722643911;03/08/24;00:11:51;1.014;-0.034;0.101;-0.0073303827084600925;-0.010995574295520782;0.0036651913542300463
01:00:0A:00:00:00:00;1722643912;03/08/24;00:11:52;1.013;-0.033;0.102;-0.006108652334660292;-0.010995574295520782;0.0024434609804302454
01:00:0A:00:00:00:00;1722643913;03/08/24;00:11:53;1.013;-0.033;0.103;-0.00855211354792118;-0.010995574295520782;0.0036651913542300463
01:00:0A:00:00:00:00;1722643914;03/08/24;00:11:54;1.013;-0.033;0.101;-0.00855211354792118;-0.010995574295520782;0.0036651913542300463
01:00:0A:00:00:00:00;1722643915;03/08/24;00:11:55;1.012;-0.032;0.102;-0.00855211354792118;-0.010995574295520782;0.0024434609804302454
01:00:0A:00:00:00:00;1722643916;03/08/24;00:11:56;1.013;-0.033;0.101;-0.00855211354792118;-0.010995574295520782;0.0036651913542300463
01:00:0A:00:00:00:00;1722643917;03/08/24;00:11:57;1.013;-0.033;0.102;-0.00855211354792118;-0.010995574295520782;0.0024434609804302454
01:00:0A:00:00:00:00;1722643918;03/08/24;00:11:58;1.013;-0.032;0.101;-0.009773843921720982;-0.012217304669320583;0.004886921960860491
01:00:0A:00:00:00:00;1722643919;03/08/24;00:11:59;1.013;-0.033;0.102;-0.009773843921720982;-0.009773843921720982;0.0024434609804302454
01:00:0A:00:00:00:00;1722643920;03/08/24;00:12:00;1.013;-0.032;0.102;-0.009773843921720982;-0.010995574295520782;0.0024434609804302454
01:00:0A:00:00:00:00;1722643921;03/08/24;00:12:01;1.013;-0.033;0.101;-0.009773843921720982;-0.009773843921720982;0.0036651913542300463
01:00:0A:00:00:00:00;1722643922;03/08/24;00:12:02;1.014;-0.034;0.101;-0.009773843921720982;-0.012217304669320583;0.0024434609804302454
01:00:0A:00:00:00:00;1722643923;03/08/24;00:12:03;1.012;-0.035;0.101;-0.009773843921720982;-0.009773843921720982;0.004886921960860491
01:00:0A:00:00:00:00;1722643924;03/08/24;00:12:04;1.012;-0.035;0.101;-0.00855211354792118;-0.010995574295520782;0.0012217304902151227
01:00:0A:00:00:00:00;1722643925;03/08/24;00:12:05;1.012;-0.034;0.101;-0.009773843921720982;-0.009773843921720982;0.004886921960860491
01:00:0A:00:00:00:00;1722643926;03/08/24;00:12:06;1.013;-0.035;0.102;-0.009773843921720982;-0.012217304669320583;0.0024434609804302454
01:00:0A:00:00:00:00;1722643927;03/08/24;00:12:07;1.012;-0.034;0.102;-0.009773843921720982;-0.009773843921720982;0.0036651913542300463
01:00:0A:00:00:00:00;1722643928;03/08/24;00:12:08;1.012;-0.035;0.102;-0.009773843921720982;-0.012217304669320583;0.0024434609804302454
01:00:0A:00:00:00:00;1722643929;03/08/24;00:12:09;1.011;-0.034;0.101;-0.00855211354792118;-0.009773843921720982;0.0036651913542300463
01:00:0A:00:00:00:00;1722643930;03/08/24;00:12:10;1.013;-0.034;0.102;-0.009773843921720982;-0.012217304669320583;0.0024434609804302454
01:00:0A:00:00:00:00;1722643931;03/08/24;00:12:11;1.011;-0.034;0.102;-0.00855211354792118;-0.009773843921720982;0.0024434609804302454
01:00:0A:00:00:00:00;1722643932;03/08/24;00:12:12;1.013;-0.034;0.102;-0.009773843921720982;-0.012217304669320583;0.0036651913542300463
01:00:0A:00:00:00:00;1722643933;03/08/24;00:12:13;1.013;-0.035;0.101;-0.009773843921720982;-0.009773843921720982;0.0036651913542300463
01:00:0A:00:00:00:00;1722643934;03/08/24;00:12:14;1.013;-0.035;0.104;-0.00855211354792118;-0.010995574295520782;0.0024434609804302454
01:00:0A:00:00:00:00;1722643935;03/08/24;00:12:15;1.013;-0.034;0.102;-0.009773843921720982;-0.010995574295520782;0.004886921960860491
01:00:0A:00:00:00:00;1722643936;03/08/24;00:12:16;1.012;-0.035;0.102;-0.00855211354792118;-0.010995574295520782;0.0024434609804302454
01:00:0A:00:00:00:00;1722643937;03/08/24;00:12:17;1.013;-0.035;0.102;-0.009773843921720982;-0.010995574295520782;0.004886921960860491
01:00:0A:00:00:00:00;1722643938;03/08/24;00:12:18;1.011;-0.035;0.102;-0.00855211354792118;-0.010995574295520782;0.0024434609804302454
01:00:0A:00:00:00:00;1722643939;03/08/24;00:12:19;1.013;-0.033;0.101;-0.009773843921720982;-0.010995574295520782;0.0036651913542300463
01:00:0A:00:00:00:00;1722643940;03/08/24;00:12:20;1.013;-0.035;0.102;-0.009773843921720982;-0.010995574295520782;0.0036651913542300463
01:00:0A:00:00:00:00;1722643941;03/08/24;00:12:21;1.013;-0.034;0.102;-0.00855211354792118;-0.010995574295520782;0.0024434609804302454
01:00:0A:00:00:00:00;1722643942;03/08/24;00:12:22;1.013;-0.035;0.101;-0.009773843921720982;-0.010995574295520782;0.0036651913542300463
01:00:0A:00:00:00:00;1722643943;03/08/24;00:12:23;1.012;-0.034;0.102;-0.00855211354792118;-0.009773843921720982;0.0024434609804302454
01:00:0A:00:00:00:00;1722643944;03/08/24;00:12:24;1.013;-0.034;0.102;-0.009773843921720982;-0.010995574295520782;0.0036651913542300463
01:00:0A:00:00:00:00;1722643945;03/08/24;00:12:25;1.012;-0.034;0.101;-0.00855211354792118;-0.010995574295520782;0.0036651913542300463
01:00:0A:00:00:00:00;1722643946;03/08/24;00:12:26;1.013;-0.034;0.102;-0.009773843921720982;-0.010995574295520782;0.0036651913542300463
01:00:0A:00:00:00:00;1722643947;03/08/24;00:12:27;1.013;-0.034;0.101;-0.00855211354792118;-0.010995574295520782;0.0024434609804302454
01:00:0A:00:00:00:00;1722643948;03/08/24;00:12:28;1.013;-0.034;0.101;-0.00855211354792118;-0.009773843921720982;0.0024434609804302454
01:00:0A:00:00:00:00;1722643949;03/08/24;00:12:29;1.011;-0.033;0.102;-0.009773843921720982;-0.012217304669320583;0.0036651913542300463
01:00:0A:00:00:00:00;1722643950;03/08/24;00:12:30;1.013;-0.034;0.102;-0.00855211354792118;-0.009773843921720982;0.0036651913542300463
01:00:0A:00:00:00:00;1722643951;03/08/24;00:12:31;1.012;-0.035;0.102;-0.00855211354792118;-0.010995574295520782;0.0036651913542300463
01:00:0A:00:00:00:00;1722643952;03/08/24;00:12:32;1.013;-0.033;0.102;-0.00855211354792118;-0.010995574295520782;0.0036651913542300463
01:00:0A:00:00:00:00;1722643953;03/08/24;00:12:33;1.012;-0.034;0.103;-0.00855211354792118;-0.010995574295520782;0.0024434609804302454
01:00:0A:00:00:00:00;1722643954;03/08/24;00:12:34;1.013;-0.034;0.102;-0.00855211354792118;-0.012217304669320583;0.0036651913542300463
01:00:0A:00:00:00:00;1722643955;03/08/24;00:12:35;1.013;-0.034;0.102;-0.0073303827084600925;-0.010995574295520782;0.0024434609804302454
01:00:0A:00:00:00:00;1722643956;03/08/24;00:12:36;1.013;-0.034;0.1;-0.0073303827084600925;-0.010995574295520782;0.0036651913542300463
01:00:0A:00:00:00:00;1722643957;03/08/24;00:12:37;1.013;-0.035;0.102;-0.0073303827084600925;-0.009773843921720982;0.0036651913542300463
01:00:0A:00:00:00:00;1722643958;03/08/24;00:12:38;1.012;-0.032;0.101;-0.0073303827084600925;-0.010995574295520782;0.0036651913542300463
01:00:0A:00:00:00:00;1722643959;03/08/24;00:12:39;1.013;-0.033;0.102;-0.0073303827084600925;-0.010995574295520782;0.0036651913542300463
01:00:0A:00:00:00:00;1722643960;03/08/24;00:12:40;1.014;-0.033;0.102;-0.0073303827084600925;-0.010995574295520782;0.0024434609804302454
01:00:0A:00:00:00:00;1722643961;03/08/24;00:12:41;1.014;-0.034;0.102;-0.0073303827084600925;-0.010995574295520782;0.0036651913542300463
01:00:0A:00:00:00:00;1722643962;03/08/24;00:12:42;1.013;-0.034;0.102;-0.006108652334660292;-0.010995574295520782;0.0024434609804302454
01:00:0A:00:00:00:00;1722643963;03/08/24;00:12:43;1.013;-0.034;0.102;-0.0073303827084600925;-0.010995574295520782;0.004886921960860491
01:00:0A:00:00:00:00;1722643964;03/08/24;00:12:44;1.012;-0.034;0.101;-0.006108652334660292;-0.012217304669320583;0.0024434609804302454
01:00:0A:00:00:00:00;1722643965;03/08/24;00:12:45;1.013;-0.034;0.102;-0.006108652334660292;-0.010995574295520782;0.0036651913542300463
01:00:0A:00:00:00:00;1722643966;03/08/24;00:12:46;1.013;-0.033;0.1;-0.006108652334660292;-0.010995574295520782;0.0024434609804302454
01:00:0A:00:00:00:00;1722643967;03/08/24;00:12:47;1.013;-0.033;0.102;-0.006108652334660292;-0.010995574295520782;0.0036651913542300463
01:00:0A:00:00:00:00;1722643968;03/08/24;00:12:48;1.013;-0.033;0.102;-0.006108652334660292;-0.012217304669320583;0.0036651913542300463
01:00:0A:00:00:00:00;1722643969;03/08/24;00:12:49;1.012;-0.035;0.102;-0.004886921960860491;-0.009773843921720982;0.0036651913542300463
01:00:0A:00:00:00:00;1722643970;03/08/24;00:12:50;1.012;-0.034;0.101;-0.006108652334660292;-0.010995574295520782;0.0036651913542300463
01:00:0A:00:00:00:00;1722643971;03/08/24;00:12:51;1.012;-0.035;0.101;-0.004886921960860491;-0.010995574295520782;0.0036651913542300463
01:00:0A:00:00:00:00;1722643972;03/08/24;00:12:52;1.013;-0.035;0.102;-0.006108652334660292;-0.010995574295520782;0.0036651913542300463
01:00:0A:00:00:00:00;1722643973;03/08/24;00:12:53;1.013;-0.034;0.1;-0.006108652334660292;-0.010995574295520782;0.0036651913542300463
01:00:0A:00:00:00:00;1722643974;03/08/24;00:12:54;1.013;-0.034;0.103;-0.004886921960860491;-0.010995574295520782;0.0024434609804302454
01:00:0A:00:00:00:00;1722643975;03/08/24;00:12:55;1.012;-0.033;0.102;-0.004886921960860491;-0.010995574295520782;0.0036651913542300463
01:00:0A:00:00:00:00;1722643976;03/08/24;00:12:56;1.012;-0.035;0.101;-0.004886921960860491;-0.010995574295520782;0.0036651913542300463
01:00:0A:00:00:00:00;1722643977;03/08/24;00:12:57;1.013;-0.035;0.103;-0.004886921960860491;-0.012217304669320583;0.0036651913542300463
01:00:0A:00:00:00:00;1722643978;03/08/24;00:12:58;1.012;-0.034;0.102;-0.004886921960860491;-0.010995574295520782;0.0036651913542300463
01:00:0A:00:00:00:00;1722643979;03/08/24;00:12:59;1.014;-0.034;0.102;-0.004886921960860491;-0.010995574295520782;0.0036651913542300463
01:00:0A:00:00:00:00;1722643980;03/08/24;00:13:00;1.012;-0.035;0.101;-0.004886921960860491;-0.010995574295520782;0.0036651913542300463
01:00:0A:00:00:00:00;1722643981;03/08/24;00:13:01;1.013;-0.033;0.101;-0.004886921960860491;-0.010995574295520782;0.0024434609804302454
01:00:0A:00:00:00:00;1722643982;03/08/24;00:13:02;1.012;-0.033;0.102;-0.004886921960860491;-0.010995574295520782;0.004886921960860491
01:00:0A:00:00:00:00;1722643983;03/08/24;00:13:03;1.012;-0.033;0.101;-0.0036651913542300463;-0.010995574295520782;0.0024434609804302454
01:00:0A:00:00:00:00;1722643984;03/08/24;00:13:04;1.013;-0.034;0.103;-0.004886921960860491;-0.010995574295520782;0.0036651913542300463
01:00:0A:00:00:00:00;1722643985;03/08/24;00:13:05;1.012;-0.034;0.102;-0.0036651913542300463;-0.010995574295520782;0.0024434609804302454
01:00:0A:00:00:00:00;1722643986;03/08/24;00:13:06;1.013;-0.035;0.102;-0.004886921960860491;-0.010995574295520782;0.0036651913542300463
01:00:0A:00:00:00:00;1722643987;03/08/24;00:13:07;1.014;-0.034;0.101;-0.0036651913542300463;-0.010995574295520782;0.0024434609804302454
01:00:0A:00:00:00:00;1722643988;03/08/24;00:13:08;1.012;-0.034;0.102;-0.0036651913542300463;-0.009773843921720982;0.0036651913542300463
01:00:0A:00:00:00:00;1722643989;03/08/24;00:13:09;1.012;-0.035;0.102;-0.0036651913542300463;-0.012217304669320583;0.0036651913542300463
01:00:0A:00:00:00:00;1722643990;03/08/24;00:13:10;1.011;-0.033;0.103;-0.0036651913542300463;-0.010995574295520782;0.0036651913542300463
01:00:0A:00:00:00:00;1722643991;03/08/24;00:13:11;1.013;-0.036;0.104;-0.0036651913542300463;-0.010995574295520782;0.0036651913542300463
01:00:0A:00:00:00:00;1722643992;03/08/24;00:13:12;1.011;-0.033;0.101;-0.0036651913542300463;-0.010995574295520782;0.0036651913542300463
01:00:0A:00:00:00:00;1722643993;03/08/24;00:13:13;1.012;-0.035;0.102;-0.0036651913542300463;-0.010995574295520782;0.0036651913542300463
01:00:0A:00:00:00:00;1722643994;03/08/24;00:13:14;1.012;-0.034;0.102;-0.0036651913542300463;-0.012217304669320583;0.0036651913542300463
01:00:0A:00:00:00:00;1722643995;03/08/24;00:13:15;1.013;-0.034;0.102;-0.0036651913542300463;-0.010995574295520782;0.0036651913542300463
01:00:0A:00:00:00:00;1722643996;03/08/24;00:13:16;1.013;-0.034;0.103;-0.0036651913542300463;-0.010995574295520782;0.0036651913542300463
01:00:0A:00:00:00:00;1722643997;03/08/24;00:13:17;1.012;-0.034;0.102;-0.0036651913542300463;-0.010995574295520782;0.0036651913542300463
01:00:0A:00:00:00:00;1722643998;03/08/24;00:13:18;1.012;-0.033;0.103;-0.0036651913542300463;-0.010995574295520782;0.0036651913542300463
01:00:0A:00:00:00:00;1722643999;03/08/24;00:13:19;1.013;-0.034;0.102;-0.0036651913542300463;-0.010995574295520782;0.0036651913542300463
01:00:0A:00:00:00:00;1722644000;03/08/24;00:13:20;1.013;-0.033;0.103;-0.0036651913542300463;-0.010995574295520782;0.0036651913542300463
01:00:0A:00:00:00:00;1722644001;03/08/24;00:13:21;1.013;-0.034;0.101;-0.0036651913542300463;-0.012217304669320583;0.004886921960860491
01:00:0A:00:00:00:00;1722644002;03/08/24;00:13:22;1.011;-0.033;0.102;-0.0036651913542300463;-0.010995574295520782;0.0024434609804302454
01:00:0A:00:00:00:00;1722644003;03/08/24;00:13:23;1.012;-0.034;0.103;-0.0036651913542300463;-0.012217304669320583;0.0036651913542300463
01:00:0A:00:00:00:00;1722644004;03/08/24;00:13:24;1.013;-0.034;0.103;-0.0024434609804302454;-0.010995574295520782;0.0036651913542300463
01:00:0A:00:00:00:00;1722644005;03/08/24;00:13:25;1.013;-0.034;0.102;-0.0036651913542300463;-0.010995574295520782;0.0036651913542300463
01:00:0A:00:00:00:00;1722644006;03/08/24;00:13:26;1.013;-0.034;0.102;-0.0036651913542300463;-0.010995574295520782;0.0036651913542300463
01:00:0A:00:00:00:00;1722644007;03/08/24;00:13:27;1.011;-0.034;0.102;-0.0024434609804302454;-0.010995574295520782;0.0036651913542300463
01:00:0A:00:00:00:00;1722644008;03/08/24;00:13:28;1.012;-0.033;0.101;-0.0036651913542300463;-0.012217304669320583;0.0036651913542300463
01:00:0A:00:00:00:00;1722644009;03/08/24;00:13:29;1.012;-0.033;0.1;-0.0024434609804302454;-0.010995574295520782;0.0036651913542300463
01:00:0A:00:00:00:00;1722644010;03/08/24;00:13:30;1.013;-0.034;0.102;-0.0036651913542300463;-0.010995574295520782;0.0036651913542300463
01:00:0A:00:00:00:00;1722644011;03/08/24;00:13:31;1.013;-0.033;0.103;-0.0024434609804302454;-0.010995574295520782;0.0036651913542300463
01:00:0A:00:00:00:00;1722644012;03/08/24;00:13:32;1.013;-0.034;0.103;-0.0024434609804302454;-0.010995574295520782;0.0036651913542300463
01:00:0A:00:00:00:00;1722644013;03/08/24;00:13:33;1.012;-0.033;0.102;-0.0024434609804302454;-0.010995574295520782;0.0036651913542300463
01:00:0A:00:00:00:00;1722644014;03/08/24;00:13:34;1.013;-0.035;0.101;-0.0024434609804302454;-0.010995574295520782;0.0036651913542300463
01:00:0A:00:00:00:00;1722644015;03/08/24;00:13:35;1.013;-0.034;0.102;-0.0024434609804302454;-0.010995574295520782;0.0036651913542300463
01:00:0A:00:00:00:00;1722644016;03/08/24;00:13:36;1.012;-0.034;0.101;-0.0024434609804302454;-0.010995574295520782;0.0036651913542300463
01:00:0A:00:00:00:00;1722644017;03/08/24;00:13:37;1.013;-0.034;0.102;-0.0024434609804302454;-0.010995574295520782;0.0036651913542300463
01:00:0A:00:00:00:00;1722644018;03/08/24;00:13:38;1.012;-0.034;0.102;-0.0024434609804302454;-0.010995574295520782;0.004886921960860491
01:00:0A:00:00:00:00;1722644019;03/08/24;00:13:39;1.013;-0.034;0.101;-0.0024434609804302454;-0.010995574295520782;0.0036651913542300463
01:00:0A:00:00:00:00;1722644020;03/08/24;00:13:40;1.014;-0.035;0.102;-0.0024434609804302454;-0.010995574295520782;0.0036651913542300463
01:00:0A:00:00:00:00;1722644021;03/08/24;00:13:41;1.013;-0.034;0.103;-0.0024434609804302454;-0.010995574295520782;0.0024434609804302454
01:00:0A:00:00:00:00;1722644022;03/08/24;00:13:42;1.013;-0.034;0.102;-0.0024434609804302454;-0.010995574295520782;0.004886921960860491
01:00:0A:00:00:00:00;1722644023;03/08/24;00:13:43;1.013;-0.034;0.102;-0.0024434609804302454;-0.010995574295520782;0.0036651913542300463
01:00:0A:00:00:00:00;1722644024;03/08/24;00:13:44;1.012;-0.034;0.102;-0.0024434609804302454;-0.010995574295520782;0.004886921960860491
01:00:0A:00:00:00:00;1722644025;03/08/24;00:13:45;1.012;-0.033;0.102;-0.0024434609804302454;-0.010995574295520782;0.0036651913542300463
01:00:0A:00:00:00:00;1722644026;03/08/24;00:13:46;1.013;-0.033;0.102;-0.0024434609804302454;-0.010995574295520782;0.0036651913542300463
01:00:0A:00:00:00:00;1722644027;03/08/24;00:13:47;1.012;-0.034;0.102;-0.0024434609804302454;-0.012217304669320583;0.0036651913542300463
01:00:0A:00:00:00:00;1722644028;03/08/24;00:13:48;1.013;-0.034;0.101;-0.0024434609804302454;-0.010995574295520782;0.0036651913542300463
01:00:0A:00:00:00:00;1722644029;03/08/24;00:13:49;1.012;-0.034;0.101;-0.0024434609804302454;-0.010995574295520782;0.0036651913542300463
01:00:0A:00:00:00:00;1722644030;03/08/24;00:13:50;1.012;-0.034;0.102;-0.0024434609804302454;-0.010995574295520782;0.0036651913542300463
01:00:0A:00:00:00:00;1722644031;03/08/24;00:13:51;1.013;-0.035;0.102;-0.0024434609804302454;-0.010995574295520782;0.0036651913542300463
01:00:0A:00:00:00:00;1722644032;03/08/24;00:13:52;1.013;-0.034;0.102;-0.0024434609804302454;-0.010995574295520782;0.0036651913542300463
01:00:0A:00:00:00:00;1722644033;03/08/24;00:13:53;1.012;-0.033;0.103;-0.0024434609804302454;-0.010995574295520782;0.0036651913542300463
01:00:0A:00:00:00:00;1722644034;03/08/24;00:13:54;1.013;-0.034;0.102;-0.0024434609804302454;-0.010995574295520782;0.0036651913542300463
01:00:0A:00:00:00:00;1722644035;03/08/24;00:13:55;1.012;-0.034;0.102;-0.0024434609804302454;-0.010995574295520782;0.0036651913542300463
01:00:0A:00:00:00:00;1722644036;03/08/24;00:13:56;1.012;-0.034;0.103;-0.0024434609804302454;-0.010995574295520782;0.0036651913542300463
01:00:0A:00:00:00:00;1722644037;03/08/24;00:13:57;1.011;-0.034;0.102;-0.0024434609804302454;-0.010995574295520782;0.0036651913542300463
01:00:0A:00:00:00:00;1722644038;03/08/24;00:13:58;1.012;-0.034;0.102;-0.0024434609804302454;-0.010995574295520782;0.0036651913542300463
01:00:0A:00:00:00:00;1722644039;03/08/24;00:13:59;1.012;-0.034;0.102;-0.0024434609804302454;-0.012217304669320583;0.0036651913542300463
01:00:0A:00:00:00:00;1722644040;03/08/24;00:14:00;1.013;-0.033;0.101;-0.0024434609804302454;-0.010995574295520782;0.0036651913542300463
01:00:0A:00:00:00:00;1722644041;03/08/24;00:14:01;1.013;-0.034;0.101;-0.0024434609804302454;-0.010995574295520782;0.004886921960860491
01:00:0A:00:00:00:00;1722644042;03/08/24;00:14:02;1.013;-0.033;0.101;-0.0012217304902151227;-0.010995574295520782;0.0036651913542300463
01:00:0A:00:00:00:00;1722644043;03/08/24;00:14:03;1.013;-0.033;0.102;-0.0024434609804302454;-0.010995574295520782;0.0036651913542300463
01:00:0A:00:00:00:00;1722644044;03/08/24;00:14:04;1.012;-0.034;0.102;-0.0024434609804302454;-0.010995574295520782;0.0036651913542300463
01:00:0A:00:00:00:00;1722644045;03/08/24;00:14:05;1.012;-0.034;0.101;-0.0012217304902151227;-0.010995574295520782;0.0036651913542300463
01:00:0A:00:00:00:00;1722644046;03/08/24;00:14:06;1.013;-0.033;0.101;-0.0012217304902151227;-0.010995574295520782;0.0036651913542300463
01:00:0A:00:00:00:00;1722644047;03/08/24;00:14:07;1.012;-0.034;0.102;-0.0012217304902151227;-0.010995574295520782;0.0036651913542300463
01:00:0A:00:00:00:00;1722644048;03/08/24;00:14:08;1.012;-0.035;0.103;-0.0012217304902151227;-0.010995574295520782;0.0036651913542300463
01:00:0A:00:00:00:00;1722644049;03/08/24;00:14:09;1.013;-0.034;0.101;-0.0012217304902151227;-0.010995574295520782;0.0036651913542300463
01:00:0A:00:00:00:00;1722644050;03/08/24;00:14:10;1.012;-0.034;0.102;-0.0012217304902151227;-0.010995574295520782;0.0036651913542300463
01:00:0A:00:00:00:00;1722644051;03/08/24;00:14:11;1.013;-0.034;0.101;-0.0012217304902151227;-0.010995574295520782;0.0036651913542300463
01:00:0A:00:00:00:00;1722644052;03/08/24;00:14:12;1.011;-0.033;0.102;-0.0012217304902151227;-0.010995574295520782;0.0036651913542300463
01:00:0A:00:00:00:00;1722644053;03/08/24;00:14:13;1.012;-0.034;0.101;-0.0012217304902151227;-0.012217304669320583;0.0036651913542300463
01:00:0A:00:00:00:00;1722644054;03/08/24;00:14:14;1.013;-0.033;0.102;-0.0012217304902151227;-0.010995574295520782;0.0036651913542300463
01:00:0A:00:00:00:00;1722644055;03/08/24;00:14:15;1.012;-0.033;0.101;0.0;-0.010995574295520782;0.0036651913542300463
01:00:0A:00:00:00:00;1722644056;03/08/24;00:14:16;1.013;-0.035;0.102;-0.0012217304902151227;-0.010995574295520782;0.0036651913542300463
01:00:0A:00:00:00:00;1722644057;03/08/24;00:14:17;1.012;-0.033;0.103;0.0;-0.010995574295520782;0.0036651913542300463
01:00:0A:00:00:00:00;1722644058;03/08/24;00:14:18;1.012;-0.035;0.101;-0.0012217304902151227;-0.012217304669320583;0.0036651913542300463
01:00:0A:00:00:00:00;1722644059;03/08/24;00:14:19;1.013;-0.033;0.101;0.0;-0.010995574295520782;0.0036651913542300463
01:00:0A:00:00:00:00;1722644060;03/08/24;00:14:20;1.012;-0.035;0.101;0.0;-0.010995574295520782;0.004886921960860491
01:00:0A:00:00:00:00;1722644061;03/08/24;00:14:21;1.012;-0.035;0.102;0.0;-0.010995574295520782;0.0036651913542300463
01:00:0A:00:00:00:00;1722644062;03/08/24;00:14:22;1.013;-0.034;0.102;0.0;-0.012217304669320583;0.0036651913542300463
01:00:0A:00:00:00:00;1722644063;03/08/24;00:14:23;1.013;-0.035;0.101;0.0;-0.010995574295520782;0.0036651913542300463
01:00:0A:00:00:00:00;1722644064;03/08/24;00:14:24;1.013;-0.035;0.102;0.0;-0.010995574295520782;0.0036651913542300463
01:00:0A:00:00:00:00;1722644065;03/08/24;00:14:25;1.013;-0.034;0.101;0.0;-0.010995574295520782;0.0036651913542300463
01:00:0A:00:00:00:00;1722644066;03/08/24;00:14:26;1.012;-0.034;0.102;0.0;-0.010995574295520782;0.0036651913542300463
01:00:0A:00:00:00:00;1722644067;03/08/24;00:14:27;1.012;-0.034;0.101;0.0;-0.012217304669320583;0.0036651913542300463
01:00:0A:00:00:00:00;1722644068;03/08/24;00:14:28;1.014;-0.034;0.101;0.0;-0.010995574295520782;0.004886921960860491
01:00:0A:00:00:00:00;1722644069;03/08/24;00:14:29;1.013;-0.034;0.102;0.0;-0.010995574295520782;0.0036651913542300463
01:00:0A:00:00:00:00;1722644070;03/08/24;00:14:30;1.013;-0.033;0.101;0.0;-0.010995574295520782;0.0036651913542300463
01:00:0A:00:00:00:00;1722644071;03/08/24;00:14:31;1.013;-0.034;0.102;0.0;-0.010995574295520782;0.0036651913542300463
01:00:0A:00:00:00:00;1722644072;03/08/24;00:14:32;1.013;-0.034;0.1;0.0;-0.012217304669320583;0.0036651913542300463
01:00:0A:00:00:00:00;1722644073;03/08/24;00:14:33;1.013;-0.033;0.102;0.0012217304902151227;-0.010995574295520782;0.004886921960860491
01:00:0A:00:00:00:00;1722644074;03/08/24;00:14:34;1.012;-0.034;0.101;0.0;-0.010995574295520782;0.0036651913542300463
01:00:0A:00:00:00:00;1722644075;03/08/24;00:14:35;1.012;-0.034;0.102;0.0;-0.010995574295520782;0.0036651913542300463
01:00:0A:00:00:00:00;1722644076;03/08/24;00:14:36;1.012;-0.034;0.101;0.0;-0.010995574295520782;0.0036651913542300463
01:00:0A:00:00:00:00;1722644077;03/08/24;00:14:37;1.012;-0.034;0.101;0.0;-0.010995574295520782;0.0036651913542300463
01:00:0A:00:00:00:00;1722644078;03/08/24;00:14:38;1.013;-0.034;0.102;0.0012217304902151227;-0.010995574295520782;0.0036651913542300463
01:00:0A:00:00:00:00;1722644079;03/08/24;00:14:39;1.012;-0.034;0.102;0.0012217304902151227;-0.010995574295520782;0.0036651913542300463
01:00:0A:00:00:00:00;1722644080;03/08/24;00:14:40;1.013;-0.034;0.101;0.0012217304902151227;-0.010995574295520782;0.0036651913542300463
01:00:0A:00:00:00:00;1722644081;03/08/24;00:14:41;1.013;-0.033;0.102;0.0012217304902151227;-0.012217304669320583;0.0036651913542300463
01:00:0A:00:00:00:00;1722644082;03/08/24;00:14:42;1.012;-0.034;0.102;0.0012217304902151227;-0.010995574295520782;0.0036651913542300463
01:00:0A:00:00:00:00;1722644083;03/08/24;00:14:43;1.012;-0.034;0.101;0.0012217304902151227;-0.010995574295520782;0.004886921960860491
01:00:0A:00:00:00:00;1722644084;03/08/24;00:14:44;1.013;-0.032;0.101;0.0012217304902151227;-0.010995574295520782;0.0036651913542300463
01:00:0A:00:00:00:00;1722644085;03/08/24;00:14:45;1.012;-0.034;0.101;0.0012217304902151227;-0.010995574295520782;0.0036651913542300463
01:00:0A:00:00:00:00;1722644086;03/08/24;00:14:46;1.013;-0.034;0.102;0.0012217304902151227;-0.010995574295520782;0.0036651913542300463
01:00:0A:00:00:00:00;1722644087;03/08/24;00:14:47;1.012;-0.033;0.101;0.0012217304902151227;-0.010995574295520782;0.0036651913542300463
01:00:0A:00:00:00:00;1722644088;03/08/24;00:14:48;1.014;-0.035;0.102;0.0012217304902151227;-0.010995574295520782;0.0036651913542300463
01:00:0A:00:00:00:00;1722644089;03/08/24;00:14:49;1.012;-0.033;0.102;0.0;-0.010995574295520782;0.0036651913542300463
01:00:0A:00:00:00:00;1722644090;03/08/24;00:14:50;1.012;-0.034;0.101;0.0012217304902151227;-0.010995574295520782;0.0036651913542300463
01:00:0A:00:00:00:00;1722644091;03/08/24;00:14:51;1.012;-0.033;0.102;0.0012217304902151227;-0.010995574295520782;0.0036651913542300463
01:00:0A:00:00:00:00;1722644092;03/08/24;00:14:52;1.013;-0.034;0.102;0.0;-0.010995574295520782;0.0036651913542300463
01:00:0A:00:00:00:00;1722644093;03/08/24;00:14:53;1.013;-0.034;0.102;0.0;-0.012217304669320583;0.0036651913542300463
01:00:0A:00:00:00:00;1722644094;03/08/24;00:14:54;1.013;-0.033;0.101;0.0;-0.010995574295520782;0.0036651913542300463
01:00:0A:00:00:00:00;1722644095;03/08/24;00:14:55;1.013;-0.033;0.102;0.0;-0.010995574295520782;0.0036651913542300463
01:00:0A:00:00:00:00;1722644096;03/08/24;00:14:56;1.012;-0.034;0.102;0.0;-0.010995574295520782;0.0036651913542300463
01:00:0A:00:00:00:00;1722644097;03/08/24;00:14:57;1.012;-0.033;0.102;0.0;-0.010995574295520782;0.0036651913542300463
01:00:0A:00:00:00:00;1722644098;03/08/24;00:14:58;1.012;-0.033;0.102;0.0;-0.012217304669320583;0.0036651913542300463
01:00:0A:00:00:00:00;1722644099;03/08/24;00:14:59;1.012;-0.034;0.102;0.0;-0.010995574295520782;0.0036651913542300463
01:00:0A:00:00:00:00;1722644100;03/08/24;00:15:00;1.012;-0.035;0.101;0.0;-0.012217304669320583;0.0036651913542300463
01:00:0A:00:00:00:00;1722644101;03/08/24;00:15:01;1.013;-0.034;0.102;0.0;-0.010995574295520782;0.0036651913542300463
01:00:0A:00:00:00:00;1722644102;03/08/24;00:15:02;1.012;-0.034;0.102;-0.0012217304902151227;-0.010995574295520782;0.0036651913542300463
01:00:0A:00:00:00:00;1722644103;03/08/24;00:15:03;1.013;-0.034;0.102;0.0;-0.010995574295520782;0.0036651913542300463
01:00:0A:00:00:00:00;1722644104;03/08/24;00:15:04;1.012;-0.034;0.102;-0.0012217304902151227;-0.010995574295520782;0.004886921960860491
01:00:0A:00:00:00:00;1722644105;03/08/24;00:15:05;1.012;-0.035;0.101;-0.0012217304902151227;-0.010995574295520782;0.0036651913542300463
01:00:0A:00:00:00:00;1722644106;03/08/24;00:15:06;1.012;-0.033;0.101;-0.0012217304902151227;-0.010995574295520782;0.0036651913542300463
01:00:0A:00:00:00:00;1722644107;03/08/24;00:15:07;1.011;-0.035;0.101;-0.0012217304902151227;-0.012217304669320583;0.0036651913542300463
01:00:0A:00:00:00:00;1722644108;03/08/24;00:15:08;1.012;-0.033;0.101;-0.0012217304902151227;-0.010995574295520782;0.0036651913542300463
01:00:0A:00:00:00:00;1722644109;03/08/24;00:15:09;1.012;-0.034;0.102;-0.0012217304902151227;-0.010995574295520782;0.0036651913542300463
01:00:0A:00:00:00:00;1722644110;03/08/24;00:15:10;1.013;-0.033;0.101;-0.0012217304902151227;-0.010995574295520782;0.0036651913542300463
