Source;Epoch timestamp (UTC);Date;Time (UTC);Accel X (G);Accel Y (G);Accel Z (G);Gyro X (rad/s);Gyro Y (rad/s);Gyro Z (rad/s)
01:00:0A:00:00:00:00;1725321604;03/09/24;00:00:04;1.012;-0.036;0.085;0.0354301817715168;0.0;-0.009773843921720982
01:00:0A:00:00:00:00;1725321605;03/09/24;00:00:05;1.013;-0.027;0.09;0.028099799528717995;-0.0073303827084600925;0.0012217304902151227
01:00:0A:00:00:00:00;1725321606;03/09/24;00:00:06;1.016;-0.034;0.084;0.019547687843441963;-0.013439035043120384;0.00855211354792118
01:00:0A:00:00:00:00;1725321607;03/09/24;00:00:07;1.016;-0.035;0.08;0.025656338781118393;-0.013439035043120384;0.0024434609804302454
01:00:0A:00:00:00:00;1725321608;03/09/24;00:00:08;1.014;-0.025;0.089;0.01710422709584236;-0.019547687843441963;0.010995574295520782
01:00:0A:00:00:00:00;1725321609;03/09/24;00:00:09;1.015;-0.035;0.086;0.014660765416920185;-0.018325956538319588;0.0073303827084600925
01:00:0A:00:00:00:00;1725321610;03/09/24;00:00:10;1.018;-0.038;0.084;0.025656338781118393;-0.0012217304902151227;-0.0012217304902151227
01:00:0A:00:00:00:00;1725321611;03/09/24;00:00:11;1.02;-0.027;0.091;0.018325956538319588;-0.0036651913542300463;0.015882495790719986
01:00:0A:00:00:00:00;1725321612;03/09/24;00:00:12;1.014;-0.033;0.083;0.013439035043120384;-0.014660765416920185;0.024434609338641167
01:00:0A:00:00:00:00;1725321613;03/09/24;00:00:13;1.008;-0.032;0.085;0.02687807008624077;0.0;-0.0012217304902151227
01:00:0A:00:00:00:00;1725321614;03/09/24;00:00:14;1.002;-0.027;0.087;0.019547687843441963;-0.02076941914856434;0.00855211354792118
01:00:0A:00:00:00:00;1725321615;03/09/24;00:00:15;1.005;-0.035;0.088;0.02076941914856434;-0.028099799528717995;0.004886921960860491
01:00:0A:00:00:00:00;1725321616;03/09/24;00:00:16;1.016;-0.032;0.089;0.03420845419168472;-0.0073303827084600925;-0.015882495790719986
01:00:0A:00:00:00:00;1725321617;03/09/24;00:00:17;1.02;-0.027;0.093;0.028099799528717995;-0.009773843921720982;0.0
01:00:0A:00:00:00:00;1725321618;03/09/24;00:00:18;1.024;-0.037;0.083;0.030543262138962746;-0.010995574295520782;0.0036651913542300463
01:00:0A:00:00:00:00;1725321619;03/09/24;00:00:19;1.016;-0.035;0.086;0.040317103266716;-0.013439035043120384;-0.0073303827084600925
01:00:0A:00:00:00:00;1725321620;03/09/24;00:00:20;1.012;-0.03;0.089;0.03420845419168472;-0.02076941914856434;0.009773843921720982
01:00:0A:00:00:00:00;1725321621;03/09/24;00:00:21;1.009;-0.037;0.086;0.0354301817715168;-0.014660765416920185;0.013439035043120384
01:00:0A:00:00:00:00;1725321622;03/09/24;00:00:22;1.012;-0.03;0.087;0.04153883829712868;-0.0012217304902151227;0.006108652334660292
01:00:0A:00:00:00:00;1725321623;03/09/24;00:00:23;1.015;-0.023;0.085;0.0354301817715168;-0.010995574295520782;0.012217304669320583
01:00:0A:00:00:00:00;1725321624;03/09/24;00:00:24;1.016;-0.03;0.081;0.036651913076639175;-0.014660765416920185;0.00855211354792118
01:00:0A:00:00:00:00;1725321625;03/09/24;00:00:25;1.014;-0.027;0.082;0.040317103266716;-0.019547687843441963;-0.009773843921720982
01:00:0A:00:00:00:00;1725321626;03/09/24;00:00:26;1.01;-0.029;0.086;0.03176499158143997;-0.02321287989616394;0.0024434609804302454
01:00:0A:00:00:00:00;1725321627;03/09/24;00:00:27;1.009;-0.037;0.091;0.03420845419168472;-0.012217304669320583;0.0036651913542300463
01:00:0A:00:00:00:00;1725321628;03/09/24;00:00:28;1.012;-0.032;0.089;0.03420845419168472;-0.0036651913542300463;0.0024434609804302454
01:00:0A:00:00:00:00;1725321629;03/09/24;00:00:29;1.014;-0.031;0.084;0.02687807008624077;-0.012217304669320583;0.00855211354792118
01:00:0A:00:00:00:00;1725321630;03/09/24;00:00:30;1.017;-0.035;0.085;0.028099799528717995;-0.018325956538319588;0.0012217304902151227
01:00:0A:00:00:00:00;1725321631;03/09/24;00:00:31;1.022;-0.034;0.091;0.028099799528717995;-0.01710422709584236;0.0
01:00:0A:00:00:00:00;1725321632;03/09/24;00:00:32;1.026;-0.037;0.096;0.02321287989616394;-0.004886921960860491;0.015882495790719986
01:00:0A:00:00:00:00;1725321633;03/09/24;00:00:33;1.02;-0.04;0.094;0.025656338781118393;0.0036651913542300463;0.02321287989616394
01:00:0A:00:00:00:00;1725321634;03/09/24;00:00:34;1.001;-0.031;0.09;0.028099799528717995;0.004886921960860491;0.0073303827084600925
01:00:0A:00:00:00:00;1725321635;03/09/24;00:00:35;0.992;-0.032;0.086;0.02321287989616394;-0.009773843921720982;0.0024434609804302454
01:00:0A:00:00:00:00;1725321636;03/09/24;00:00:36;1.001;-0.032;0.089;0.019547687843441963;-0.03787364438176155;-0.018325956538319588
01:00:0A:00:00:00:00;1725321637;03/09/24;00:00:37;1.025;-0.041;0.099;0.01710422709584236;-0.021991148591041565;-0.0073303827084600925
01:00:0A:00:00:00:00;1725321638;03/09/24;00:00:38;1.035;-0.043;0.098;0.013439035043120384;-0.0073303827084600925;0.00855211354792118
01:00:0A:00:00:00:00;1725321639;03/09/24;00:00:39;1.031;-0.04;0.092;0.009773843921720982;0.0;0.019547687843441963
01:00:0A:00:00:00:00;1725321640;03/09/24;00:00:40;1.018;-0.036;0.089;0.0073303827084600925;0.0024434609804302454;0.02687807008624077
01:00:0A:00:00:00:00;1725321641;03/09/24;00:00:41;0.996;-0.033;0.087;0.006108652334660292;-0.009773843921720982;0.004886921960860491
01:00:0A:00:00:00:00;1725321642;03/09/24;00:00:42;0.991;-0.032;0.089;0.004886921960860491;-0.024434609338641167;-0.0036651913542300463
01:00:0A:00:00:00:00;1725321643;03/09/24;00:00:43;1.005;-0.034;0.092;0.004886921960860491;-0.02687807008624077;-0.015882495790719986
01:00:0A:00:00:00:00;1725321644;03/09/24;00:00:44;1.019;-0.037;0.096;0.0036651913542300463;-0.013439035043120384;-0.00855211354792118
01:00:0A:00:00:00:00;1725321645;03/09/24;00:00:45;1.028;-0.038;0.093;0.0;-0.0024434609804302454;0.0036651913542300463
01:00:0A:00:00:00:00;1725321646;03/09/24;00:00:46;1.023;-0.035;0.085;-0.0036651913542300463;-0.009773843921720982;0.010995574295520782
01:00:0A:00:00:00:00;1725321647;03/09/24;00:00:47;1.018;-0.035;0.09;-0.004886921960860491;-0.00855211354792118;0.013439035043120384
01:00:0A:00:00:00:00;1725321648;03/09/24;00:00:48;1.011;-0.031;0.091;-0.006108652334660292;-0.009773843921720982;0.0073303827084600925
01:00:0A:00:00:00:00;1725321649;03/09/24;00:00:49;1.01;-0.028;0.087;-0.00855211354792118;-0.006108652334660292;0.006108652334660292
01:00:0A:00:00:00:00;1725321650;03/09/24;00:00:50;1.005;-0.03;0.087;-0.009773843921720982;0.0;0.004886921960860491
01:00:0A:00:00:00:00;1725321651;03/09/24;00:00:51;1.007;-0.03;0.084;-0.010995574295520782;-0.012217304669320583;-0.0036651913542300463
01:00:0A:00:00:00:00;1725321652;03/09/24;00:00:52;1.012;-0.031;0.082;-0.012217304669320583;-0.021991148591041565;-0.006108652334660292
01:00:0A:00:00:00:00;1725321653;03/09/24;00:00:53;1.015;-0.032;0.088;-0.013439035043120384;-0.02076941914856434;-0.0073303827084600925
01:00:0A:00:00:00:00;1725321654;03/09/24;00:00:54;1.021;-0.037;0.092;-0.012217304669320583;-0.015882495790719986;-0.0024434609804302454
01:00:0A:00:00:00:00;1725321655;03/09/24;00:00:55;1.02;-0.034;0.087;-0.013439035043120384;-0.0036651913542300463;0.010995574295520782
01:00:0A:00:00:00:00;1725321656;03/09/24;00:00:56;1.018;-0.033;0.091;-0.014660765416920185;-0.0012217304902151227;0.015882495790719986
01:00:0A:00:00:00:00;1725321657;03/09/24;00:00:57;1.014;-0.03;0.086;-0.013439035043120384;-0.00855211354792118;0.0073303827084600925
01:00:0A:00:00:00:00;1725321658;03/09/24;00:00:58;1.011;-0.029;0.083;-0.010995574295520782;-0.010995574295520782;0.0012217304902151227
01:00:0A:00:00:00:00;1725321659;03/09/24;00:00:59;1.011;-0.032;0.089;-0.012217304669320583;-0.014660765416920185;0.0
01:00:0A:00:00:00:00;1725321660;03/09/24;00:01:00;1.013;-0.031;0.09;-0.012217304669320583;-0.01710422709584236;-0.004886921960860491
01:00:0A:00:00:00:00;1725321661;03/09/24;00:01:01;1.014;-0.032;0.086;-0.0073303827084600925;-0.0024434609804302454;-0.00855211354792118
01:00:0A:00:00:00:00;1725321662;03/09/24;00:01:02;1.014;-0.036;0.086;-0.009773843921720982;-0.009773843921720982;0.0024434609804302454
01:00:0A:00:00:00:00;1725321663;03/09/24;00:01:03;1.013;-0.034;0.083;-0.009773843921720982;-0.021991148591041565;0.004886921960860491
01:00:0A:00:00:00:00;1725321664;03/09/24;00:01:04;1.015;-0.031;0.086;-0.006108652334660292;-0.015882495790719986;0.0036651913542300463
01:00:0A:00:00:00:00;1725321665;03/09/24;00:01:05;1.014;-0.031;0.09;-0.006108652334660292;-0.013439035043120384;0.004886921960860491
01:00:0A:00:00:00:00;1725321666;03/09/24;00:01:06;1.014;-0.033;0.086;-0.004886921960860491;-0.013439035043120384;0.0
01:00:0A:00:00:00:00;1725321667;03/09/24;00:01:07;1.013;-0.031;0.086;-0.0012217304902151227;-0.004886921960860491;0.0024434609804302454
01:00:0A:00:00:00:00;1725321668;03/09/24;00:01:08;1.013;-0.03;0.088;-0.0024434609804302454;-0.012217304669320583;0.004886921960860491
01:00:0A:00:00:00:00;1725321669;03/09/24;00:01:09;1.016;-0.034;0.085;-0.0012217304902151227;-0.02076941914856434;-0.0012217304902151227
01:00:0A:00:00:00:00;1725321670;03/09/24;00:01:10;1.02;-0.03;0.09;0.0024434609804302454;-0.010995574295520782;-0.0012217304902151227
01:00:0A:00:00:00:00;1725321671;03/09/24;00:01:11;1.022;-0.034;0.093;0.0;-0.009773843921720982;0.0073303827084600925
01:00:0A:00:00:00:00;1725321672;03/09/24;00:01:12;1.016;-0.036;0.088;0.0012217304902151227;-0.0024434609804302454;0.013439035043120384
01:00:0A:00:00:00:00;1725321673;03/09/24;00:01:13;1.007;-0.03;0.084;0.004886921960860491;0.0024434609804302454;0.006108652334660292
01:00:0A:00:00:00:00;1725321674;03/09/24;00:01:14;1.005;-0.03;0.085;0.0;-0.00855211354792118;0.00855211354792118
01:00:0A:00:00:00:00;1725321675;03/09/24;00:01:15;1.006;-0.035;0.082;0.0036651913542300463;-0.02076941914856434;-0.004886921960860491
01:00:0A:00:00:00:00;1725321676;03/09/24;00:01:16;1.009;-0.032;0.087;0.0073303827084600925;-0.019547687843441963;-0.004886921960860491
01:00:0A:00:00:00:00;1725321677;03/09/24;00:01:17;1.017;-0.033;0.095;0.0024434609804302454;-0.018325956538319588;0.006108652334660292
01:00:0A:00:00:00:00;1725321678;03/09/24;00:01:18;1.021;-0.039;0.091;0.00855211354792118;-0.00855211354792118;0.0036651913542300463
01:00:0A:00:00:00:00;1725321679;03/09/24;00:01:19;1.02;-0.03;0.091;0.009773843921720982;0.0073303827084600925;0.009773843921720982
01:00:0A:00:00:00:00;1725321680;03/09/24;00:01:20;1.015;-0.029;0.088;0.006108652334660292;-0.0024434609804302454;0.014660765416920185
01:00:0A:00:00:00:00;1725321681;03/09/24;00:01:21;1.01;-0.034;0.083;0.012217304669320583;-0.012217304669320583;-0.0024434609804302454
01:00:0A:00:00:00:00;1725321682;03/09/24;00:01:22;1.012;-0.03;0.089;0.014660765416920185;-0.013439035043120384;-0.0073303827084600925
01:00:0A:00:00:00:00;1725321683;03/09/24;00:01:23;1.013;-0.035;0.089;0.00855211354792118;-0.015882495790719986;0.006108652334660292
01:00:0A:00:00:00:00;1725321684;03/09/24;00:01:24;1.013;-0.038;0.085;0.014660765416920185;-0.009773843921720982;0.0012217304902151227
01:00:0A:00:00:00:00;1725321685;03/09/24;00:01:25;1.014;-0.033;0.086;0.015882495790719986;-0.006108652334660292;0.0036651913542300463
01:00:0A:00:00:00:00;1725321686;03/09/24;00:01:26;1.015;-0.031;0.086;0.00855211354792118;-0.019547687843441963;0.01710422709584236
01:00:0A:00:00:00:00;1725321687;03/09/24;00:01:27;1.015;-0.034;0.083;0.015882495790719986;-0.018325956538319588;0.0012217304902151227
01:00:0A:00:00:00:00;1725321688;03/09/24;00:01:28;1.016;-0.029;0.089;0.018325956538319588;-0.014660765416920185;-0.004886921960860491
01:00:0A:00:00:00:00;1725321689;03/09/24;00:01:29;1.015;-0.033;0.091;0.009773843921720982;-0.019547687843441963;0.010995574295520782
01:00:0A:00:00:00:00;1725321690;03/09/24;00:01:30;1.015;-0.035;0.087;0.015882495790719986;-0.006108652334660292;0.0012217304902151227
01:00:0A:00:00:00:00;1725321691;03/09/24;00:01:31;1.016;-0.03;0.089;0.01710422709584236;-0.0036651913542300463;-0.0024434609804302454
01:00:0A:00:00:00:00;1725321692;03/09/24;00:01:32;1.016;-0.032;0.086;0.009773843921720982;-0.009773843921720982;0.010995574295520782
01:00:0A:00:00:00:00;1725321693;03/09/24;00:01:33;1.014;-0.037;0.081;0.015882495790719986;-0.013439035043120384;0.0036651913542300463
01:00:0A:00:00:00:00;1725321694;03/09/24;00:01:34;1.011;-0.028;0.09;0.015882495790719986;-0.012217304669320583;0.0012217304902151227
01:00:0A:00:00:00:00;1725321695;03/09/24;00:01:35;1.012;-0.033;0.089;0.009773843921720982;-0.015882495790719986;0.010995574295520782
01:00:0A:00:00:00:00;1725321696;03/09/24;00:01:36;1.011;-0.035;0.087;0.018325956538319588;-0.0036651913542300463;-0.0024434609804302454
01:00:0A:00:00:00:00;1725321697;03/09/24;00:01:37;1.015;-0.029;0.089;0.015882495790719986;-0.009773843921720982;0.0
01:00:0A:00:00:00:00;1725321698;03/09/24;00:01:38;1.018;-0.032;0.088;0.00855211354792118;-0.019547687843441963;0.012217304669320583
01:00:0A:00:00:00:00;1725321699;03/09/24;00:01:39;1.018;-0.035;0.087;0.018325956538319588;-0.0073303827084600925;0.0
01:00:0A:00:00:00:00;1725321700;03/09/24;00:01:40;1.016;-0.03;0.09;0.018325956538319588;-0.004886921960860491;0.0012217304902151227
01:00:0A:00:00:00:00;1725321701;03/09/24;00:01:41;1.012;-0.034;0.087;0.010995574295520782;-0.014660765416920185;0.015882495790719986
01:00:0A:00:00:00:00;1725321702;03/09/24;00:01:42;1.013;-0.038;0.087;0.02076941914856434;-0.0073303827084600925;0.0024434609804302454
01:00:0A:00:00:00:00;1725321703;03/09/24;00:01:43;1.014;-0.03;0.091;0.02076941914856434;-0.009773843921720982;0.0036651913542300463
01:00:0A:00:00:00:00;1725321704;03/09/24;00:01:44;1.015;-0.035;0.086;0.015882495790719986;-0.019547687843441963;0.013439035043120384
01:00:0A:00:00:00:00;1725321705;03/09/24;00:01:45;1.014;-0.037;0.086;0.025656338781118393;-0.009773843921720982;0.0024434609804302454
01:00:0A:00:00:00:00;1725321706;03/09/24;00:01:46;1.013;-0.026;0.09;0.024434609338641167;-0.013439035043120384;0.0036651913542300463
01:00:0A:00:00:00:00;1725321707;03/09/24;00:01:47;1.014;-0.032;0.084;0.02076941914856434;-0.018325956538319588;0.010995574295520782
01:00:0A:00:00:00:00;1725321708;03/09/24;00:01:48;1.014;-0.035;0.085;0.030543262138962746;-0.012217304669320583;-0.0073303827084600925
01:00:0A:00:00:00:00;1725321709;03/09/24;00:01:49;1.016;-0.032;0.091;0.02687807008624077;-0.012217304669320583;0.0024434609804302454
01:00:0A:00:00:00:00;1725321710;03/09/24;00:01:50;1.018;-0.036;0.087;0.02321287989616394;-0.013439035043120384;0.018325956538319588
01:00:0A:00:00:00:00;1725321711;03/09/24;00:01:51;1.014;-0.035;0.087;0.03176499158143997;-0.0012217304902151227;0.0036651913542300463
01:00:0A:00:00:00:00;1725321712;03/09/24;00:01:52;1.009;-0.027;0.086;0.02932153083384037;-0.004886921960860491;0.0073303827084600925
01:00:0A:00:00:00:00;1725321713;03/09/24;00:01:53;1.009;-0.033;0.082;0.025656338781118393;-0.015882495790719986;0.013439035043120384
01:00:0A:00:00:00:00;1725321714;03/09/24;00:01:54;1.011;-0.034;0.085;0.0354301817715168;-0.015882495790719986;-0.006108652334660292
01:00:0A:00:00:00:00;1725321715;03/09/24;00:01:55;1.016;-0.027;0.091;0.030543262138962746;-0.02076941914856434;-0.0012217304902151227
01:00:0A:00:00:00:00;1725321716;03/09/24;00:01:56;1.018;-0.037;0.09;0.028099799528717995;-0.012217304669320583;0.0073303827084600925
01:00:0A:00:00:00:00;1725321717;03/09/24;00:01:57;1.019;-0.039;0.09;0.03420845419168472;-0.0012217304902151227;0.0024434609804302454
01:00:0A:00:00:00:00;1725321718;03/09/24;00:01:58;1.016;-0.028;0.086;0.028099799528717995;-0.0036651913542300463;0.009773843921720982
01:00:0A:00:00:00:00;1725321719;03/09/24;00:01:59;1.015;-0.035;0.083;0.024434609338641167;-0.006108652334660292;0.018325956538319588
01:00:0A:00:00:00:00;1725321720;03/09/24;00:02:00;1.008;-0.032;0.085;0.030543262138962746;-0.010995574295520782;-0.0024434609804302454
01:00:0A:00:00:00:00;1725321721;03/09/24;00:02:01;1.007;-0.026;0.086;0.02321287989616394;-0.02076941914856434;0.0073303827084600925
01:00:0A:00:00:00:00;1725321722;03/09/24;00:02:02;1.01;-0.03;0.087;0.019547687843441963;-0.014660765416920185;0.010995574295520782
01:00:0A:00:00:00:00;1725321723;03/09/24;00:02:03;1.015;-0.03;0.089;0.02687807008624077;-0.013439035043120384;-0.010995574295520782
01:00:0A:00:00:00:00;1725321724;03/09/24;00:02:04;1.021;-0.025;0.087;0.019547687843441963;-0.014660765416920185;0.0012217304902151227
01:00:0A:00:00:00:00;1725321725;03/09/24;00:02:05;1.019;-0.034;0.085;0.01710422709584236;-0.010995574295520782;0.009773843921720982
01:00:0A:00:00:00:00;1725321726;03/09/24;00:02:06;1.016;-0.035;0.089;0.021991148591041565;-0.013439035043120384;-0.006108652334660292
01:00:0A:00:00:00:00;1725321727;03/09/24;00:02:07;1.015;-0.027;0.088;0.014660765416920185;-0.014660765416920185;0.00855211354792118
01:00:0A:00:00:00:00;1725321728;03/09/24;00:02:08;1.012;-0.036;0.088;0.014660765416920185;-0.00855211354792118;0.014660765416920185
01:00:0A:00:00:00:00;1725321729;03/09/24;00:02:09;1.012;-0.033;0.089;0.021991148591041565;-0.00855211354792118;-0.0036651913542300463
01:00:0A:00:00:00:00;1725321730;03/09/24;00:02:10;1.016;-0.025;0.085;0.015882495790719986;-0.013439035043120384;0.00855211354792118
01:00:0A:00:00:00:00;1725321731;03/09/24;00:02:11;1.015;-0.036;0.086;0.014660765416920185;-0.010995574295520782;0.014660765416920185
01:00:0A:00:00:00:00;1725321732;03/09/24;00:02:12;1.012;-0.03;0.088;0.019547687843441963;-0.014660765416920185;-0.0036651913542300463
01:00:0A:00:00:00:00;1725321733;03/09/24;00:02:13;1.01;-0.027;0.087;0.013439035043120384;-0.01710422709584236;0.0036651913542300463
01:00:0A:00:00:00:00;1725321734;03/09/24;00:02:14;1.013;-0.036;0.089;0.012217304669320583;-0.010995574295520782;0.00855211354792118
01:00:0A:00:00:00:00;1725321735;03/09/24;00:02:15;1.016;-0.034;0.09;0.01710422709584236;-0.010995574295520782;-0.0073303827084600925
01:00:0A:00:00:00:00;1725321736;03/09/24;00:02:16;1.018;-0.028;0.087;0.009773843921720982;-0.009773843921720982;0.0073303827084600925
01:00:0A:00:00:00:00;1725321737;03/09/24;00:02:17;1.017;-0.036;0.087;0.00855211354792118;-0.0073303827084600925;0.012217304669320583
01:00:0A:00:00:00:00;1725321738;03/09/24;00:02:18;1.014;-0.033;0.089;0.013439035043120384;-0.012217304669320583;-0.0036651913542300463
01:00:0A:00:00:00:00;1725321739;03/09/24;00:02:19;1.013;-0.028;0.088;0.006108652334660292;-0.010995574295520782;0.009773843921720982
01:00:0A:00:00:00:00;1725321740;03/09/24;00:02:20;1.011;-0.036;0.088;0.0073303827084600925;-0.006108652334660292;0.009773843921720982
01:00:0A:00:00:00:00;1725321741;03/09/24;00:02:21;1.011;-0.033;0.089;0.012217304669320583;-0.010995574295520782;-0.0036651913542300463
01:00:0A:00:00:00:00;1725321742;03/09/24;00:02:22;1.015;-0.027;0.085;0.0073303827084600925;-0.013439035043120384;0.0036651913542300463
01:00:0A:00:00:00:00;1725321743;03/09/24;00:02:23;1.015;-0.037;0.086;0.009773843921720982;-0.010995574295520782;0.0024434609804302454
01:00:0A:00:00:00:00;1725321744;03/09/24;00:02:24;1.014;-0.032;0.088;0.012217304669320583;-0.01710422709584236;-0.0036651913542300463
01:00:0A:00:00:00:00;1725321745;03/09/24;00:02:25;1.014;-0.028;0.086;0.00855211354792118;-0.015882495790719986;0.004886921960860491
01:00:0A:00:00:00:00;1725321746;03/09/24;00:02:26;1.015;-0.037;0.089;0.010995574295520782;-0.010995574295520782;0.0024434609804302454
01:00:0A:00:00:00:00;1725321747;03/09/24;00:02:27;1.018;-0.036;0.09;0.014660765416920185;-0.00855211354792118;-0.0024434609804302454
01:00:0A:00:00:00:00;1725321748;03/09/24;00:02:28;1.02;-0.031;0.087;0.009773843921720982;-0.006108652334660292;0.014660765416920185
01:00:0A:00:00:00:00;1725321749;03/09/24;00:02:29;1.016;-0.035;0.085;0.010995574295520782;-0.004886921960860491;0.012217304669320583
01:00:0A:00:00:00:00;1725321750;03/09/24;00:02:30;1.012;-0.031;0.087;0.014660765416920185;-0.010995574295520782;0.0
01:00:0A:00:00:00:00;1725321751;03/09/24;00:02:31;1.006;-0.03;0.086;0.009773843921720982;-0.013439035043120384;0.013439035043120384
01:00:0A:00:00:00:00;1725321752;03/09/24;00:02:32;1.007;-0.033;0.086;0.012217304669320583;-0.012217304669320583;0.0073303827084600925
01:00:0A:00:00:00:00;1725321753;03/09/24;00:02:33;1.013;-0.03;0.089;0.015882495790719986;-0.015882495790719986;-0.006108652334660292
01:00:0A:00:00:00:00;1725321754;03/09/24;00:02:34;1.018;-0.03;0.087;0.012217304669320583;-0.013439035043120384;0.0024434609804302454
01:00:0A:00:00:00:00;1725321755;03/09/24;00:02:35;1.02;-0.037;0.088;0.013439035043120384;-0.010995574295520782;0.0036651913542300463
01:00:0A:00:00:00:00;1725321756;03/09/24;00:02:36;1.018;-0.033;0.089;0.014660765416920185;-0.012217304669320583;0.0024434609804302454
01:00:0A:00:00:00:00;1725321757;03/09/24;00:02:37;1.015;-0.031;0.088;0.010995574295520782;-0.009773843921720982;0.012217304669320583
01:00:0A:00:00:00:00;1725321758;03/09/24;00:02:38;1.01;-0.034;0.088;0.014660765416920185;-0.006108652334660292;0.006108652334660292
01:00:0A:00:00:00:00;1725321759;03/09/24;00:02:39;1.012;-0.031;0.087;0.015882495790719986;-0.009773843921720982;-0.0012217304902151227
01:00:0A:00:00:00:00;1725321760;03/09/24;00:02:40;1.012;-0.032;0.086;0.012217304669320583;-0.010995574295520782;0.0073303827084600925
01:00:0A:00:00:00:00;1725321761;03/09/24;00:02:41;1.014;-0.033;0.087;0.014660765416920185;-0.012217304669320583;0.0024434609804302454
01:00:0A:00:00:00:00;1725321762;03/09/24;00:02:42;1.014;-0.029;0.087;0.015882495790719986;-0.01710422709584236;-0.0024434609804302454
01:00:0A:00:00:00:00;1725321763;03/09/24;00:02:43;1.015;-0.032;0.088;0.012217304669320583;-0.013439035043120384;0.006108652334660292
01:00:0A:00:00:00:00;1725321764;03/09/24;00:02:44;1.014;-0.035;0.09;0.014660765416920185;-0.010995574295520782;0.0024434609804302454
01:00:0A:00:00:00:00;1725321765;03/09/24;00:02:45;1.016;-0.031;0.088;0.014660765416920185;-0.013439035043120384;0.0012217304902151227
01:00:0A:00:00:00:00;1725321766;03/09/24;00:02:46;1.016;-0.032;0.086;0.012217304669320583;-0.012217304669320583;0.0073303827084600925
01:00:0A:00:00:00:00;1725321767;03/09/24;00:02:47;1.014;-0.036;0.088;0.013439035043120384;-0.013439035043120384;0.006108652334660292
01:00:0A:00:00:00:00;1725321768;03/09/24;00:02:48;1.014;-0.031;0.088;0.013439035043120384;-0.014660765416920185;0.0073303827084600925
01:00:0A:00:00:00:00;1725321769;03/09/24;00:02:49;1.014;-0.031;0.086;0.012217304669320583;-0.009773843921720982;0.00855211354792118
01:00:0A:00:00:00:00;1725321770;03/09/24;00:02:50;1.014;-0.032;0.089;0.013439035043120384;-0.00855211354792118;0.0012217304902151227
01:00:0A:00:00:00:00;1725321771;03/09/24;00:02:51;1.012;-0.031;0.087;0.014660765416920185;-0.009773843921720982;-0.0012217304902151227
01:00:0A:00:00:00:00;1725321772;03/09/24;00:02:52;1.013;-0.033;0.084;0.010995574295520782;-0.014660765416920185;0.006108652334660292
01:00:0A:00:00:00:00;1725321773;03/09/24;00:02:53;1.014;-0.034;0.087;0.013439035043120384;-0.015882495790719986;0.0012217304902151227
01:00:0A:00:00:00:00;1725321774;03/09/24;00:02:54;1.014;-0.031;0.088;0.012217304669320583;-0.015882495790719986;0.0012217304902151227
01:00:0A:00:00:00:00;1725321775;03/09/24;00:02:55;1.014;-0.033;0.088;0.010995574295520782;-0.010995574295520782;0.004886921960860491
01:00:0A:00:00:00:00;1725321776;03/09/24;00:02:56;1.016;-0.034;0.089;0.012217304669320583;-0.00855211354792118;0.0024434609804302454
01:00:0A:00:00:00:00;1725321777;03/09/24;00:02:57;1.016;-0.032;0.088;0.012217304669320583;-0.00855211354792118;0.0024434609804302454
01:00:0A:00:00:00:00;1725321778;03/09/24;00:02:58;1.016;-0.032;0.086;0.009773843921720982;-0.009773843921720982;0.0073303827084600925
01:00:0A:00:00:00:00;1725321779;03/09/24;00:02:59;1.014;-0.033;0.087;0.010995574295520782;-0.012217304669320583;0.0036651913542300463
01:00:0A:00:00:00:00;1725321780;03/09/24;00:03:00;1.014;-0.031;0.089;0.009773843921720982;-0.012217304669320583;0.004886921960860491
01:00:0A:00:00:00:00;1725321781;03/09/24;00:03:01;1.014;-0.031;0.088;0.00855211354792118;-0.0073303827084600925;0.0036651913542300463
01:00:0A:00:00:00:00;1725321782;03/09/24;00:03:02;1.012;-0.033;0.087;0.009773843921720982;-0.00855211354792118;0.0
01:00:0A:00:00:00:00;1725321783;03/09/24;00:03:03;1.011;-0.032;0.085;0.00855211354792118;-0.014660765416920185;0.0012217304902151227
01:00:0A:00:00:00:00;1725321784;03/09/24;00:03:04;1.013;-0.034;0.086;0.00855211354792118;-0.014660765416920185;0.0036651913542300463
01:00:0A:00:00:00:00;1725321785;03/09/24;00:03:05;1.017;-0.032;0.088;0.0073303827084600925;-0.019547687843441963;0.0036651913542300463
01:00:0A:00:00:00:00;1725321786;03/09/24;00:03:06;1.02;-0.032;0.089;0.00855211354792118;-0.013439035043120384;0.006108652334660292
01:00:0A:00:00:00:00;1725321787;03/09/24;00:03:07;1.016;-0.032;0.091;0.0073303827084600925;-0.004886921960860491;0.00855211354792118
01:00:0A:00:00:00:00;1725321788;03/09/24;00:03:08;1.013;-0.03;0.088;0.00855211354792118;-0.0036651913542300463;0.004886921960860491
01:00:0A:00:00:00:00;1725321789;03/09/24;00:03:09;1.008;-0.031;0.084;0.00855211354792118;-0.009773843921720982;0.004886921960860491
01:00:0A:00:00:00:00;1725321790;03/09/24;00:03:10;1.009;-0.032;0.086;0.00855211354792118;-0.015882495790719986;0.0012217304902151227
01:00:0A:00:00:00:00;1725321791;03/09/24;00:03:11;1.012;-0.032;0.086;0.00855211354792118;-0.019547687843441963;-0.0024434609804302454
01:00:0A:00:00:00:00;1725321792;03/09/24;00:03:12;1.018;-0.033;0.088;0.0073303827084600925;-0.01710422709584236;0.0024434609804302454
01:00:0A:00:00:00:00;1725321793;03/09/24;00:03:13;1.019;-0.034;0.09;0.0073303827084600925;-0.009773843921720982;0.004886921960860491
01:00:0A:00:00:00:00;1725321794;03/09/24;00:03:14;1.016;-0.033;0.089;0.00855211354792118;-0.004886921960860491;0.006108652334660292
01:00:0A:00:00:00:00;1725321795;03/09/24;00:03:15;1.012;-0.032;0.091;0.00855211354792118;0.045204028487205505;0.014660765416920185
01:00:0A:00:00:00:00;1725321796;03/09/24;00:03:16;1.013;-0.05;0.083;0.20036379992961884;-0.02687807008624077;0.02076941914856434
01:00:0A:00:00:00:00;1725321797;03/09/24;00:03:17;1.015;-0.025;0.084;0.20402899384498596;-0.012217304669320583;-0.015882495790719986
01:00:0A:00:00:00:00;1725321798;03/09/24;00:03:18;1.015;-0.023;0.088;0.17592918872833252;-0.004886921960860491;0.036651913076639175
01:00:0A:00:00:00:00;1725321799;03/09/24;00:03:19;1.014;-0.046;0.089;0.17348572611808777;-0.015882495790719986;0.02321287989616394
01:00:0A:00:00:00:00;1725321800;03/09/24;00:03:20;1.01;-0.037;0.093;0.1576032191514969;-0.0354301817715168;-0.02076941914856434
01:00:0A:00:00:00:00;1725321801;03/09/24;00:03:21;1.013;0.001;0.039;-0.04398229718208313;-0.024434609338641167;0.0024434609804302454
01:00:0A:00:00:00:00;1725321802;03/09/24;00:03:22;1.015;-0.029;0.062;-0.1576032191514969;0.030543262138962746;0.03298672288656235
01:00:0A:00:00:00:00;1725321803;03/09/24;00:03:23;1.014;-0.052;0.111;-0.11972958594560623;0.024434609338641167;-0.0024434609804302454
01:00:0A:00:00:00:00;1725321804;03/09/24;00:03:24;1.018;-0.026;0.094;-0.12339477241039276;-0.059864792972803116;-0.039095375686883926
01:00:0A:00:00:00:00;1725321805;03/09/24;00:03:25;1.019;-0.018;0.063;-0.1258382350206375;0.0012217304902151227;0.021991148591041565
01:00:0A:00:00:00:00;1725321806;03/09/24;00:03:26;1.014;-0.052;0.104;-0.10995574295520782;0.030543262138962746;0.013439035043120384
01:00:0A:00:00:00:00;1725321807;03/09/24;00:03:27;1.009;-0.028;0.092;-0.09896016865968704;-0.04642575979232788;-0.039095375686883926
01:00:0A:00:00:00:00;1725321808;03/09/24;00:03:28;1.011;-0.021;0.07;-0.09773843735456467;-0.00855211354792118;0.010995574295520782
01:00:0A:00:00:00:00;1725321809;03/09/24;00:03:29;1.013;-0.042;0.096;-0.08918632566928864;0.0073303827084600925;0.0012217304902151227
01:00:0A:00:00:00:00;1725321810;03/09/24;00:03:30;1.018;-0.032;0.094;-0.09040805697441101;-0.03420845419168472;-0.028099799528717995
01:00:0A:00:00:00:00;1725321811;03/09/24;00:03:31;1.019;-0.023;0.076;-0.09773843735456467;-0.004886921960860491;0.013439035043120384
01:00:0A:00:00:00:00;1725321812;03/09/24;00:03:32;1.016;-0.043;0.095;-0.09040805697441101;0.013439035043120384;0.013439035043120384
01:00:0A:00:00:00:00;1725321813;03/09/24;00:03:33;1.014;-0.028;0.089;-0.08674286305904388;-0.028099799528717995;-0.025656338781118393
01:00:0A:00:00:00:00;1725321814;03/09/24;00:03:34;1.012;-0.022;0.08;-0.09529497474431992;-0.006108652334660292;0.013439035043120384
01:00:0A:00:00:00:00;1725321815;03/09/24;00:03:35;1.012;-0.043;0.092;-0.08796459436416626;0.004886921960860491;0.006108652334660292
01:00:0A:00:00:00:00;1725321816;03/09/24;00:03:36;1.012;-0.03;0.089;-0.08185594528913498;-0.024434609338641167;-0.028099799528717995
01:00:0A:00:00:00:00;1725321817;03/09/24;00:03:37;1.015;-0.022;0.081;-0.09285151958465576;-0.012217304669320583;0.010995574295520782
01:00:0A:00:00:00:00;1725321818;03/09/24;00:03:38;1.014;-0.042;0.091;-0.08429940044879913;-0.0012217304902151227;0.0024434609804302454
01:00:0A:00:00:00:00;1725321819;03/09/24;00:03:39;1.013;-0.029;0.09;-0.07819075137376785;-0.019547687843441963;-0.02687807008624077
01:00:0A:00:00:00:00;1725321820;03/09/24;00:03:40;1.015;-0.026;0.084;-0.09285151958465576;-0.013439035043120384;0.013439035043120384
01:00:0A:00:00:00:00;1725321821;03/09/24;00:03:41;1.014;-0.042;0.089;-0.08307767659425735;0.0;0.004886921960860491
01:00:0A:00:00:00:00;1725321822;03/09/24;00:03:42;1.016;-0.026;0.09;-0.07819075137376785;-0.013439035043120384;-0.019547687843441963
01:00:0A:00:00:00:00;1725321823;03/09/24;00:03:43;1.015;-0.028;0.084;-0.09040805697441101;-0.012217304669320583;0.012217304669320583
01:00:0A:00:00:00:00;1725321824;03/09/24;00:03:44;1.012;-0.04;0.085;-0.080634206533432;-0.004886921960860491;-0.0012217304902151227
01:00:0A:00:00:00:00;1725321825;03/09/24;00:03:45;1.015;-0.028;0.09;-0.07696902006864548;-0.014660765416920185;-0.01710422709584236
01:00:0A:00:00:00:00;1725321826;03/09/24;00:03:46;1.016;-0.028;0.085;-0.08796459436416626;-0.015882495790719986;0.012217304669320583
01:00:0A:00:00:00:00;1725321827;03/09/24;00:03:47;1.016;-0.04;0.086;-0.07696902006864548;-0.0024434609804302454;-0.0024434609804302454
01:00:0A:00:00:00:00;1725321828;03/09/24;00:03:48;1.015;-0.027;0.092;-0.0757472887635231;-0.009773843921720982;-0.012217304669320583
01:00:0A:00:00:00:00;1725321829;03/09/24;00:03:49;1.016;-0.029;0.085;-0.08552113175392151;-0.01710422709584236;0.00855211354792118
01:00:0A:00:00:00:00;1725321830;03/09/24;00:03:50;1.016;-0.039;0.086;-0.07452555745840073;-0.0012217304902151227;-0.0036651913542300463
01:00:0A:00:00:00:00;1725321831;03/09/24;00:03:51;1.012;-0.029;0.091;-0.07452555745840073;-0.0073303827084600925;-0.0073303827084600925
01:00:0A:00:00:00:00;1725321832;03/09/24;00:03:52;1.013;-0.031;0.083;-0.08429940044879913;-0.019547687843441963;0.010995574295520782
01:00:0A:00:00:00:00;1725321833;03/09/24;00:03:53;1.014;-0.035;0.085;-0.07330382615327835;-0.004886921960860491;-0.0036651913542300463
01:00:0A:00:00:00:00;1725321834;03/09/24;00:03:54;1.014;-0.027;0.092;-0.07452555745840073;-0.010995574295520782;-0.006108652334660292
01:00:0A:00:00:00:00;1725321835;03/09/24;00:03:55;1.014;-0.03;0.083;-0.080634206533432;-0.01710422709584236;0.0024434609804302454
01:00:0A:00:00:00:00;1725321836;03/09/24;00:03:56;1.015;-0.034;0.084;-0.0708603635430336;-0.0024434609804302454;-0.0073303827084600925
01:00:0A:00:00:00:00;1725321837;03/09/24;00:03:57;1.016;-0.03;0.093;-0.07330382615327835;-0.012217304669320583;-0.004886921960860491
01:00:0A:00:00:00:00;1725321838;03/09/24;00:03:58;1.016;-0.032;0.084;-0.07941248267889023;-0.01710422709584236;0.00855211354792118
01:00:0A:00:00:00:00;1725321839;03/09/24;00:03:59;1.013;-0.031;0.087;-0.07208210229873657;0.0;0.0
01:00:0A:00:00:00:00;1725321840;03/09/24;00:04:00;1.013;-0.029;0.092;-0.07330382615327835;-0.010995574295520782;-0.004886921960860491
01:00:0A:00:00:00:00;1725321841;03/09/24;00:04:01;1.015;-0.031;0.084;-0.0757472887635231;-0.014660765416920185;-0.0024434609804302454
01:00:0A:00:00:00:00;1725321842;03/09/24;00:04:02;1.014;-0.034;0.087;-0.06963863223791122;0.0012217304902151227;-0.004886921960860491
01:00:0A:00:00:00:00;1725321843;03/09/24;00:04:03;1.015;-0.032;0.09;-0.07330382615327835;-0.012217304669320583;-0.0012217304902151227
01:00:0A:00:00:00:00;1725321844;03/09/24;00:04:04;1.015;-0.03;0.083;-0.07330382615327835;-0.01710422709584236;-0.0012217304902151227
01:00:0A:00:00:00:00;1725321845;03/09/24;00:04:05;1.013;-0.032;0.087;-0.06963863223791122;-0.004886921960860491;0.0012217304902151227
01:00:0A:00:00:00:00;1725321846;03/09/24;00:04:06;1.013;-0.033;0.092;-0.06963863223791122;-0.012217304669320583;-0.0036651913542300463
01:00:0A:00:00:00:00;1725321847;03/09/24;00:04:07;1.015;-0.031;0.085;-0.06963863223791122;-0.012217304669320583;-0.0024434609804302454
01:00:0A:00:00:00:00;1725321848;03/09/24;00:04:08;1.016;-0.03;0.087;-0.06719517707824707;-0.0024434609804302454;0.0024434609804302454
01:00:0A:00:00:00:00;1725321849;03/09/24;00:04:09;1.016;-0.033;0.089;-0.06719517707824707;-0.013439035043120384;-0.0024434609804302454
01:00:0A:00:00:00:00;1725321850;03/09/24;00:04:10;1.015;-0.03;0.084;-0.0659734457731247;-0.014660765416920185;-0.0012217304902151227
01:00:0A:00:00:00:00;1725321851;03/09/24;00:04:11;1.013;-0.031;0.088;-0.06475171446800232;-0.006108652334660292;0.0036651913542300463
01:00:0A:00:00:00:00;1725321852;03/09/24;00:04:12;1.012;-0.033;0.089;-0.06352998316287994;-0.013439035043120384;-0.004886921960860491
01:00:0A:00:00:00:00;1725321853;03/09/24;00:04:13;1.015;-0.031;0.085;-0.06108652427792549;-0.010995574295520782;-0.0073303827084600925
01:00:0A:00:00:00:00;1725321854;03/09/24;00:04:14;1.016;-0.033;0.087;-0.06230825558304787;-0.0073303827084600925;0.0036651913542300463
01:00:0A:00:00:00:00;1725321855;03/09/24;00:04:15;1.016;-0.032;0.088;-0.059864792972803116;-0.014660765416920185;0.0
01:00:0A:00:00:00:00;1725321856;03/09/24;00:04:16;1.016;-0.028;0.085;-0.05742133408784866;-0.010995574295520782;-0.004886921960860491
01:00:0A:00:00:00:00;1725321857;03/09/24;00:04:17;1.013;-0.033;0.087;-0.05864306166768074;-0.0073303827084600925;0.0036651913542300463
01:00:0A:00:00:00:00;1725321858;03/09/24;00:04:18;1.012;-0.034;0.087;-0.05619959905743599;-0.013439035043120384;-0.0024434609804302454
01:00:0A:00:00:00:00;1725321859;03/09/24;00:04:19;1.014;-0.029;0.085;-0.05619959905743599;-0.010995574295520782;-0.0012217304902151227
01:00:0A:00:00:00:00;1725321860;03/09/24;00:04:20;1.016;-0.032;0.089;-0.05742133408784866;-0.009773843921720982;0.004886921960860491
01:00:0A:00:00:00:00;1725321861;03/09/24;00:04:21;1.015;-0.033;0.087;-0.05375614017248154;-0.010995574295520782;-0.0024434609804302454
01:00:0A:00:00:00:00;1725321862;03/09/24;00:04:22;1.014;-0.03;0.087;-0.05253440886735916;-0.00855211354792118;-0.0024434609804302454
01:00:0A:00:00:00:00;1725321863;03/09/24;00:04:23;1.013;-0.031;0.087;-0.05497787147760391;-0.009773843921720982;0.004886921960860491
01:00:0A:00:00:00:00;1725321864;03/09/24;00:04:24;1.013;-0.033;0.086;-0.051312677562236786;-0.012217304669320583;-0.0036651913542300463
01:00:0A:00:00:00:00;1725321865;03/09/24;00:04:25;1.015;-0.03;0.087;-0.051312677562236786;-0.010995574295520782;-0.0024434609804302454
01:00:0A:00:00:00:00;1725321866;03/09/24;00:04:26;1.015;-0.032;0.087;-0.05375614017248154;-0.012217304669320583;0.0036651913542300463
01:00:0A:00:00:00:00;1725321867;03/09/24;00:04:27;1.016;-0.033;0.088;-0.04886921867728233;-0.010995574295520782;-0.0024434609804302454
01:00:0A:00:00:00:00;1725321868;03/09/24;00:04:28;1.014;-0.029;0.088;-0.05009094998240471;-0.006108652334660292;0.0
01:00:0A:00:00:00:00;1725321869;03/09/24;00:04:29;1.013;-0.033;0.087;-0.051312677562236786;-0.00855211354792118;0.004886921960860491
01:00:0A:00:00:00:00;1725321870;03/09/24;00:04:30;1.012;-0.033;0.084;-0.04764748737215996;-0.009773843921720982;-0.0036651913542300463
01:00:0A:00:00:00:00;1725321871;03/09/24;00:04:31;1.015;-0.029;0.088;-0.04886921867728233;-0.013439035043120384;0.0
01:00:0A:00:00:00:00;1725321872;03/09/24;00:04:32;1.016;-0.034;0.089;-0.05009094998240471;-0.013439035043120384;0.0036651913542300463
01:00:0A:00:00:00:00;1725321873;03/09/24;00:04:33;1.015;-0.033;0.087;-0.045204028487205505;-0.004886921960860491;-0.0012217304902151227
01:00:0A:00:00:00:00;1725321874;03/09/24;00:04:34;1.015;-0.03;0.088;-0.04764748737215996;-0.00855211354792118;0.0024434609804302454
01:00:0A:00:00:00:00;1725321875;03/09/24;00:04:35;1.013;-0.034;0.087;-0.04886921867728233;-0.014660765416920185;0.0036651913542300463
01:00:0A:00:00:00:00;1725321876;03/09/24;00:04:36;1.014;-0.033;0.087;-0.04398229718208313;-0.00855211354792118;-0.0024434609804302454
01:00:0A:00:00:00:00;1725321877;03/09/24;00:04:37;1.015;-0.03;0.09;-0.04642575979232788;-0.00855211354792118;0.0024434609804302454
01:00:0A:00:00:00:00;1725321878;03/09/24;00:04:38;1.016;-0.034;0.087;-0.04764748737215996;-0.014660765416920185;0.0024434609804302454
01:00:0A:00:00:00:00;1725321879;03/09/24;00:04:39;1.015;-0.033;0.086;-0.042760565876960754;-0.0073303827084600925;-0.0024434609804302454
01:00:0A:00:00:00:00;1725321880;03/09/24;00:04:40;1.012;-0.031;0.089;-0.04398229718208313;-0.00855211354792118;0.0012217304902151227
01:00:0A:00:00:00:00;1725321881;03/09/24;00:04:41;1.012;-0.034;0.086;-0.045204028487205505;-0.01710422709584236;0.0
01:00:0A:00:00:00:00;1725321882;03/09/24;00:04:42;1.015;-0.032;0.086;-0.04153883829712868;-0.009773843921720982;-0.0024434609804302454
01:00:0A:00:00:00:00;1725321883;03/09/24;00:04:43;1.016;-0.032;0.09;-0.042760565876960754;-0.012217304669320583;0.0024434609804302454
01:00:0A:00:00:00:00;1725321884;03/09/24;00:04:44;1.016;-0.033;0.087;-0.042760565876960754;-0.012217304669320583;0.0024434609804302454
01:00:0A:00:00:00:00;1725321885;03/09/24;00:04:45;1.015;-0.031;0.085;-0.040317103266716;-0.004886921960860491;0.0012217304902151227
01:00:0A:00:00:00:00;1725321886;03/09/24;00:04:46;1.012;-0.03;0.089;-0.04153883829712868;-0.00855211354792118;0.0024434609804302454
01:00:0A:00:00:00:00;1725321887;03/09/24;00:04:47;1.012;-0.032;0.085;-0.040317103266716;-0.014660765416920185;-0.0024434609804302454
01:00:0A:00:00:00:00;1725321888;03/09/24;00:04:48;1.014;-0.031;0.086;-0.03787364438176155;-0.009773843921720982;-0.0024434609804302454
01:00:0A:00:00:00:00;1725321889;03/09/24;00:04:49;1.015;-0.033;0.09;-0.039095375686883926;-0.009773843921720982;0.0036651913542300463
01:00:0A:00:00:00:00;1725321890;03/09/24;00:04:50;1.015;-0.032;0.086;-0.03787364438176155;-0.013439035043120384;-0.0012217304902151227
01:00:0A:00:00:00:00;1725321891;03/09/24;00:04:51;1.014;-0.031;0.086;-0.036651913076639175;-0.0073303827084600925;-0.0012217304902151227
01:00:0A:00:00:00:00;1725321892;03/09/24;00:04:52;1.014;-0.033;0.09;-0.03787364438176155;-0.009773843921720982;0.0024434609804302454
01:00:0A:00:00:00:00;1725321893;03/09/24;00:04:53;1.013;-0.032;0.087;-0.0354301817715168;-0.014660765416920185;-0.0012217304902151227
01:00:0A:00:00:00:00;1725321894;03/09/24;00:04:54;1.014;-0.031;0.087;-0.03420845419168472;-0.00855211354792118;0.0012217304902151227
01:00:0A:00:00:00:00;1725321895;03/09/24;00:04:55;1.016;-0.034;0.089;-0.0354301817715168;-0.012217304669320583;0.0012217304902151227
01:00:0A:00:00:00:00;1725321896;03/09/24;00:04:56;1.014;-0.031;0.086;-0.03298672288656235;-0.013439035043120384;-0.0024434609804302454
01:00:0A:00:00:00:00;1725321897;03/09/24;00:04:57;1.013;-0.03;0.087;-0.03298672288656235;-0.006108652334660292;0.0036651913542300463
01:00:0A:00:00:00:00;1725321898;03/09/24;00:04:58;1.013;-0.034;0.089;-0.03298672288656235;-0.010995574295520782;0.0012217304902151227
01:00:0A:00:00:00:00;1725321899;03/09/24;00:04:59;1.015;-0.032;0.086;-0.030543262138962746;-0.014660765416920185;-0.0024434609804302454
01:00:0A:00:00:00:00;1725321900;03/09/24;00:05:00;1.016;-0.03;0.087;-0.03176499158143997;-0.00855211354792118;0.004886921960860491
01:00:0A:00:00:00:00;1725321901;03/09/24;00:05:01;1.016;-0.035;0.088;-0.030543262138962746;-0.009773843921720982;0.0036651913542300463
01:00:0A:00:00:00:00;1725321902;03/09/24;00:05:02;1.015;-0.032;0.087;-0.028099799528717995;-0.012217304669320583;-0.0024434609804302454
01:00:0A:00:00:00:00;1725321903;03/09/24;00:05:03;1.014;-0.032;0.088;-0.02932153083384037;-0.0073303827084600925;0.006108652334660292
01:00:0A:00:00:00:00;1725321904;03/09/24;00:05:04;1.012;-0.035;0.089;-0.028099799528717995;-0.009773843921720982;0.0036651913542300463
01:00:0A:00:00:00:00;1725321905;03/09/24;00:05:05;1.013;-0.031;0.086;-0.025656338781118393;-0.013439035043120384;-0.004886921960860491
01:00:0A:00:00:00:00;1725321906;03/09/24;00:05:06;1.012;-0.031;0.086;-0.028099799528717995;-0.009773843921720982;0.006108652334660292
01:00:0A:00:00:00:00;1725321907;03/09/24;00:05:07;1.014;-0.035;0.089;-0.025656338781118393;-0.012217304669320583;0.0024434609804302454
01:00:0A:00:00:00:00;1725321908;03/09/24;00:05:08;1.016;-0.031;0.088;-0.02321287989616394;-0.012217304669320583;-0.0036651913542300463
01:00:0A:00:00:00:00;1725321909;03/09/24;00:05:09;1.015;-0.03;0.087;-0.025656338781118393;-0.0073303827084600925;0.0073303827084600925
01:00:0A:00:00:00:00;1725321910;03/09/24;00:05:10;1.014;-0.036;0.088;-0.02321287989616394;-0.009773843921720982;0.0036651913542300463
01:00:0A:00:00:00:00;1725321911;03/09/24;00:05:11;1.013;-0.031;0.086;-0.02076941914856434;-0.012217304669320583;-0.0036651913542300463
01:00:0A:00:00:00:00;1725321912;03/09/24;00:05:12;1.015;-0.031;0.086;-0.024434609338641167;-0.010995574295520782;0.006108652334660292
01:00:0A:00:00:00:00;1725321913;03/09/24;00:05:13;1.014;-0.036;0.088;-0.021991148591041565;-0.010995574295520782;0.0024434609804302454
01:00:0A:00:00:00:00;1725321914;03/09/24;00:05:14;1.015;-0.029;0.088;-0.019547687843441963;-0.012217304669320583;-0.0024434609804302454
01:00:0A:00:00:00:00;1725321915;03/09/24;00:05:15;1.016;-0.031;0.087;-0.02321287989616394;-0.009773843921720982;0.0073303827084600925
01:00:0A:00:00:00:00;1725321916;03/09/24;00:05:16;1.015;-0.035;0.087;-0.019547687843441963;-0.009773843921720982;0.0024434609804302454
01:00:0A:00:00:00:00;1725321917;03/09/24;00:05:17;1.013;-0.03;0.086;-0.018325956538319588;-0.010995574295520782;-0.0036651913542300463
01:00:0A:00:00:00:00;1725321918;03/09/24;00:05:18;1.012;-0.031;0.086;-0.021991148591041565;-0.012217304669320583;0.0073303827084600925
01:00:0A:00:00:00:00;1725321919;03/09/24;00:05:19;1.015;-0.035;0.088;-0.018325956538319588;-0.010995574295520782;0.0
01:00:0A:00:00:00:00;1725321920;03/09/24;00:05:20;1.016;-0.03;0.088;-0.01710422709584236;-0.010995574295520782;-0.0012217304902151227
01:00:0A:00:00:00:00;1725321921;03/09/24;00:05:21;1.014;-0.032;0.089;-0.02076941914856434;-0.00855211354792118;0.00855211354792118
01:00:0A:00:00:00:00;1725321922;03/09/24;00:05:22;1.013;-0.036;0.086;-0.01710422709584236;-0.009773843921720982;0.0
01:00:0A:00:00:00:00;1725321923;03/09/24;00:05:23;1.014;-0.03;0.087;-0.015882495790719986;-0.012217304669320583;-0.0012217304902151227
01:00:0A:00:00:00:00;1725321924;03/09/24;00:05:24;1.016;-0.032;0.086;-0.02076941914856434;-0.013439035043120384;0.0073303827084600925
01:00:0A:00:00:00:00;1725321925;03/09/24;00:05:25;1.016;-0.037;0.087;-0.015882495790719986;-0.010995574295520782;0.0
01:00:0A:00:00:00:00;1725321926;03/09/24;00:05:26;1.015;-0.028;0.088;-0.015882495790719986;-0.010995574295520782;0.0
01:00:0A:00:00:00:00;1725321927;03/09/24;00:05:27;1.014;-0.032;0.087;-0.019547687843441963;-0.010995574295520782;0.009773843921720982
01:00:0A:00:00:00:00;1725321928;03/09/24;00:05:28;1.012;-0.035;0.087;-0.013439035043120384;-0.00855211354792118;-0.0012217304902151227
01:00:0A:00:00:00:00;1725321929;03/09/24;00:05:29;1.013;-0.029;0.088;-0.014660765416920185;-0.012217304669320583;-0.0012217304902151227
01:00:0A:00:00:00:00;1725321930;03/09/24;00:05:30;1.015;-0.033;0.087;-0.018325956538319588;-0.013439035043120384;0.00855211354792118
01:00:0A:00:00:00:00;1725321931;03/09/24;00:05:31;1.015;-0.035;0.087;-0.012217304669320583;-0.009773843921720982;-0.0012217304902151227
01:00:0A:00:00:00:00;1725321932;03/09/24;00:05:32;1.016;-0.03;0.089;-0.013439035043120384;-0.009773843921720982;0.0012217304902151227
01:00:0A:00:00:00:00;1725321933;03/09/24;00:05:33;1.014;-0.032;0.087;-0.01710422709584236;-0.010995574295520782;0.010995574295520782
01:00:0A:00:00:00:00;1725321934;03/09/24;00:05:34;1.012;-0.034;0.086;-0.010995574295520782;-0.009773843921720982;-0.0012217304902151227
01:00:0A:00:00:00:00;1725321935;03/09/24;00:05:35;1.013;-0.029;0.087;-0.012217304669320583;-0.012217304669320583;0.0
01:00:0A:00:00:00:00;1725321936;03/09/24;00:05:36;1.015;-0.033;0.087;-0.015882495790719986;-0.014660765416920185;0.00855211354792118
01:00:0A:00:00:00:00;1725321937;03/09/24;00:05:37;1.015;-0.034;0.087;-0.009773843921720982;-0.00855211354792118;-0.0012217304902151227
01:00:0A:00:00:00:00;1725321938;03/09/24;00:05:38;1.014;-0.029;0.089;-0.010995574295520782;-0.009773843921720982;0.0
01:00:0A:00:00:00:00;1725321939;03/09/24;00:05:39;1.014;-0.035;0.085;-0.014660765416920185;-0.012217304669320583;0.00855211354792118
01:00:0A:00:00:00:00;1725321940;03/09/24;00:05:40;1.013;-0.034;0.086;-0.00855211354792118;-0.009773843921720982;-0.0012217304902151227
01:00:0A:00:00:00:00;1725321941;03/09/24;00:05:41;1.013;-0.029;0.089;-0.010995574295520782;-0.012217304669320583;0.0
01:00:0A:00:00:00:00;1725321942;03/09/24;00:05:42;1.015;-0.035;0.086;-0.013439035043120384;-0.014660765416920185;0.0073303827084600925
01:00:0A:00:00:00:00;1725321943;03/09/24;00:05:43;1.016;-0.035;0.087;-0.0073303827084600925;-0.0073303827084600925;-0.0012217304902151227
01:00:0A:00:00:00:00;1725321944;03/09/24;00:05:44;1.015;-0.029;0.09;-0.009773843921720982;-0.010995574295520782;0.0036651913542300463
01:00:0A:00:00:00:00;1725321945;03/09/24;00:05:45;1.014;-0.033;0.086;-0.012217304669320583;-0.012217304669320583;0.0073303827084600925
01:00:0A:00:00:00:00;1725321946;03/09/24;00:05:46;1.013;-0.033;0.085;-0.004886921960860491;-0.00855211354792118;-0.0036651913542300463
01:00:0A:00:00:00:00;1725321947;03/09/24;00:05:47;1.014;-0.029;0.087;-0.00855211354792118;-0.013439035043120384;0.0024434609804302454
01:00:0A:00:00:00:00;1725321948;03/09/24;00:05:48;1.015;-0.034;0.086;-0.009773843921720982;-0.013439035043120384;0.004886921960860491
01:00:0A:00:00:00:00;1725321949;03/09/24;00:05:49;1.016;-0.033;0.086;-0.0036651913542300463;-0.006108652334660292;-0.0012217304902151227
01:00:0A:00:00:00:00;1725321950;03/09/24;00:05:50;1.014;-0.03;0.088;-0.0073303827084600925;-0.009773843921720982;0.0036651913542300463
01:00:0A:00:00:00:00;1725321951;03/09/24;00:05:51;1.014;-0.033;0.085;-0.00855211354792118;-0.014660765416920185;0.0073303827084600925
01:00:0A:00:00:00:00;1725321952;03/09/24;00:05:52;1.014;-0.033;0.086;-0.0024434609804302454;-0.00855211354792118;-0.0024434609804302454
01:00:0A:00:00:00:00;1725321953;03/09/24;00:05:53;1.012;-0.03;0.088;-0.006108652334660292;-0.013439035043120384;0.0036651913542300463
01:00:0A:00:00:00:00;1725321954;03/09/24;00:05:54;1.015;-0.034;0.087;-0.0073303827084600925;-0.014660765416920185;0.006108652334660292
01:00:0A:00:00:00:00;1725321955;03/09/24;00:05:55;1.015;-0.033;0.086;-0.0012217304902151227;-0.0073303827084600925;-0.0024434609804302454
01:00:0A:00:00:00:00;1725321956;03/09/24;00:05:56;1.015;-0.029;0.089;-0.004886921960860491;-0.012217304669320583;0.004886921960860491
01:00:0A:00:00:00:00;1725321957;03/09/24;00:05:57;1.014;-0.034;0.085;-0.006108652334660292;-0.013439035043120384;0.006108652334660292
01:00:0A:00:00:00:00;1725321958;03/09/24;00:05:58;1.014;-0.032;0.086;0.0;-0.0073303827084600925;-0.0024434609804302454
01:00:0A:00:00:00:00;1725321959;03/09/24;00:05:59;1.014;-0.03;0.088;-0.004886921960860491;-0.013439035043120384;0.0036651913542300463
01:00:0A:00:00:00:00;1725321960;03/09/24;00:06:00;1.014;-0.034;0.085;-0.004886921960860491;-0.013439035043120384;0.004886921960860491
01:00:0A:00:00:00:00;1725321961;03/09/24;00:06:01;1.014;-0.033;0.087;0.0;-0.006108652334660292;-0.0012217304902151227
01:00:0A:00:00:00:00;1725321962;03/09/24;00:06:02;1.014;-0.032;0.09;-0.0036651913542300463;-0.012217304669320583;0.006108652334660292
01:00:0A:00:00:00:00;1725321963;03/09/24;00:06:03;1.014;-0.034;0.084;-0.0036651913542300463;-0.014660765416920185;0.006108652334660292
01:00:0A:00:00:00:00;1725321964;03/09/24;00:06:04;1.014;-0.031;0.087;0.0012217304902151227;-0.0073303827084600925;-0.0012217304902151227
01:00:0A:00:00:00:00;1725321965;03/09/24;00:06:05;1.015;-0.03;0.09;-0.0036651913542300463;-0.012217304669320583;0.004886921960860491
01:00:0A:00:00:00:00;1725321966;03/09/24;00:06:06;1.015;-0.034;0.085;-0.0024434609804302454;-0.013439035043120384;0.004886921960860491
01:00:0A:00:00:00:00;1725321967;03/09/24;00:06:07;1.015;-0.032;0.087;0.0012217304902151227;-0.0073303827084600925;0.0
01:00:0A:00:00:00:00;1725321968;03/09/24;00:06:08;1.014;-0.031;0.088;-0.0036651913542300463;-0.013439035043120384;0.006108652334660292
01:00:0A:00:00:00:00;1725321969;03/09/24;00:06:09;1.015;-0.034;0.085;-0.0024434609804302454;-0.012217304669320583;0.0036651913542300463
01:00:0A:00:00:00:00;1725321970;03/09/24;00:06:10;1.014;-0.03;0.087;0.0012217304902151227;-0.006108652334660292;-0.0012217304902151227
01:00:0A:00:00:00:00;1725321971;03/09/24;00:06:11;1.013;-0.032;0.089;-0.0036651913542300463;-0.014660765416920185;0.004886921960860491
01:00:0A:00:00:00:00;1725321972;03/09/24;00:06:12;1.015;-0.035;0.085;-0.0024434609804302454;-0.013439035043120384;0.0036651913542300463
01:00:0A:00:00:00:00;1725321973;03/09/24;00:06:13;1.015;-0.031;0.087;0.0012217304902151227;-0.006108652334660292;0.0
01:00:0A:00:00:00:00;1725321974;03/09/24;00:06:14;1.014;-0.032;0.089;-0.0036651913542300463;-0.012217304669320583;0.006108652334660292
01:00:0A:00:00:00:00;1725321975;03/09/24;00:06:15;1.012;-0.034;0.085;-0.0024434609804302454;-0.012217304669320583;0.0036651913542300463
01:00:0A:00:00:00:00;1725321976;03/09/24;00:06:16;1.015;-0.031;0.086;0.0012217304902151227;-0.0073303827084600925;0.0
01:00:0A:00:00:00:00;1725321977;03/09/24;00:06:17;1.015;-0.031;0.089;-0.0036651913542300463;-0.013439035043120384;0.004886921960860491
01:00:0A:00:00:00:00;1725321978;03/09/24;00:06:18;1.013;-0.035;0.085;-0.0024434609804302454;-0.013439035043120384;0.0024434609804302454
01:00:0A:00:00:00:00;1725321979;03/09/24;00:06:19;1.016;-0.031;0.087;0.0012217304902151227;-0.0073303827084600925;0.0012217304902151227
01:00:0A:00:00:00:00;1725321980;03/09/24;00:06:20;1.014;-0.03;0.089;-0.004886921960860491;-0.013439035043120384;0.0073303827084600925
01:00:0A:00:00:00:00;1725321981;03/09/24;00:06:21;1.015;-0.033;0.085;-0.0024434609804302454;-0.012217304669320583;0.0036651913542300463
01:00:0A:00:00:00:00;1725321982;03/09/24;00:06:22;1.014;-0.031;0.087;0.0;-0.006108652334660292;0.0
01:00:0A:00:00:00:00;1725321983;03/09/24;00:06:23;1.014;-0.032;0.089;-0.004886921960860491;-0.014660765416920185;0.006108652334660292
01:00:0A:00:00:00:00;1725321984;03/09/24;00:06:24;1.014;-0.033;0.085;-0.0036651913542300463;-0.013439035043120384;0.0024434609804302454
01:00:0A:00:00:00:00;1725321985;03/09/24;00:06:25;1.015;-0.031;0.088;0.0;-0.006108652334660292;0.0012217304902151227
01:00:0A:00:00:00:00;1725321986;03/09/24;00:06:26;1.014;-0.031;0.089;-0.004886921960860491;-0.013439035043120384;0.006108652334660292
01:00:0A:00:00:00:00;1725321987;03/09/24;00:06:27;1.014;-0.033;0.085;-0.0036651913542300463;-0.013439035043120384;0.0036651913542300463
01:00:0A:00:00:00:00;1725321988;03/09/24;00:06:28;1.013;-0.032;0.087;-0.0012217304902151227;-0.0073303827084600925;0.0
01:00:0A:00:00:00:00;1725321989;03/09/24;00:06:29;1.016;-0.031;0.09;-0.006108652334660292;-0.014660765416920185;0.004886921960860491
01:00:0A:00:00:00:00;1725321990;03/09/24;00:06:30;1.015;-0.034;0.085;-0.004886921960860491;-0.013439035043120384;0.0036651913542300463
01:00:0A:00:00:00:00;1725321991;03/09/24;00:06:31;1.015;-0.031;0.088;-0.0024434609804302454;-0.006108652334660292;0.0
01:00:0A:00:00:00:00;1725321992;03/09/24;00:06:32;1.013;-0.025;0.085;0.0024434609804302454;-0.01710422709584236;0.0
01:00:0A:00:00:00:00;1725321993;03/09/24;00:06:33;1.014;-0.026;0.081;0.0024434609804302454;-0.010995574295520782;0.0073303827084600925
01:00:0A:00:00:00:00;1725321994;03/09/24;00:06:34;1.014;-0.032;0.086;0.012217304669320583;-0.0024434609804302454;0.010995574295520782
01:00:0A:00:00:00:00;1725321995;03/09/24;00:06:35;1.014;-0.035;0.091;0.012217304669320583;-0.014660765416920185;0.0036651913542300463
01:00:0A:00:00:00:00;1725321996;03/09/24;00:06:36;1.016;-0.031;0.085;0.010995574295520782;-0.01710422709584236;0.0024434609804302454
01:00:0A:00:00:00:00;1725321997;03/09/24;00:06:37;1.015;-0.031;0.087;0.012217304669320583;-0.0036651913542300463;0.006108652334660292
01:00:0A:00:00:00:00;1725321998;03/09/24;00:06:38;1.013;-0.033;0.09;0.009773843921720982;-0.012217304669320583;0.0036651913542300463
01:00:0A:00:00:00:00;1725321999;03/09/24;00:06:39;1.014;-0.032;0.083;0.009773843921720982;-0.01710422709584236;0.0012217304902151227
01:00:0A:00:00:00:00;1725322000;03/09/24;00:06:40;1.014;-0.032;0.086;0.010995574295520782;-0.006108652334660292;0.006108652334660292
01:00:0A:00:00:00:00;1725322001;03/09/24;00:06:41;1.015;-0.033;0.092;0.00855211354792118;-0.013439035043120384;0.004886921960860491
01:00:0A:00:00:00:00;1725322002;03/09/24;00:06:42;1.016;-0.032;0.084;0.009773843921720982;-0.014660765416920185;0.0012217304902151227
01:00:0A:00:00:00:00;1725322003;03/09/24;00:06:43;1.014;-0.031;0.086;0.010995574295520782;-0.0036651913542300463;0.004886921960860491
01:00:0A:00:00:00:00;1725322004;03/09/24;00:06:44;1.014;-0.033;0.09;0.0073303827084600925;-0.013439035043120384;0.006108652334660292
01:00:0A:00:00:00:00;1725322005;03/09/24;00:06:45;1.013;-0.033;0.084;0.00855211354792118;-0.015882495790719986;0.0012217304902151227
01:00:0A:00:00:00:00;1725322006;03/09/24;00:06:46;1.015;-0.032;0.086;0.010995574295520782;-0.006108652334660292;0.0036651913542300463
01:00:0A:00:00:00:00;1725322007;03/09/24;00:06:47;1.014;-0.033;0.091;0.0073303827084600925;-0.014660765416920185;0.006108652334660292
01:00:0A:00:00:00:00;1725322008;03/09/24;00:06:48;1.015;-0.034;0.085;0.00855211354792118;-0.015882495790719986;0.0024434609804302454
01:00:0A:00:00:00:00;1725322009;03/09/24;00:06:49;1.016;-0.03;0.087;0.010995574295520782;-0.0036651913542300463;0.0036651913542300463
01:00:0A:00:00:00:00;1725322010;03/09/24;00:06:50;1.013;-0.032;0.089;0.006108652334660292;-0.013439035043120384;0.006108652334660292
01:00:0A:00:00:00:00;1725322011;03/09/24;00:06:51;1.014;-0.033;0.084;0.00855211354792118;-0.014660765416920185;0.0024434609804302454
01:00:0A:00:00:00:00;1725322012;03/09/24;00:06:52;1.015;-0.031;0.087;0.009773843921720982;-0.006108652334660292;0.0024434609804302454
01:00:0A:00:00:00:00;1725322013;03/09/24;00:06:53;1.016;-0.032;0.09;0.006108652334660292;-0.013439035043120384;0.006108652334660292
01:00:0A:00:00:00:00;1725322014;03/09/24;00:06:54;1.014;-0.034;0.085;0.0073303827084600925;-0.012217304669320583;0.0024434609804302454
01:00:0A:00:00:00:00;1725322015;03/09/24;00:06:55;1.015;-0.031;0.087;0.010995574295520782;-0.0036651913542300463;0.0024434609804302454
01:00:0A:00:00:00:00;1725322016;03/09/24;00:06:56;1.014;-0.032;0.09;0.004886921960860491;-0.014660765416920185;0.0073303827084600925
01:00:0A:00:00:00:00;1725322017;03/09/24;00:06:57;1.015;-0.034;0.085;0.00855211354792118;-0.014660765416920185;0.0024434609804302454
01:00:0A:00:00:00:00;1725322018;03/09/24;00:06:58;1.014;-0.029;0.087;0.010995574295520782;-0.006108652334660292;0.0012217304902151227
01:00:0A:00:00:00:00;1725322019;03/09/24;00:06:59;1.014;-0.032;0.089;0.006108652334660292;-0.014660765416920185;0.0073303827084600925
01:00:0A:00:00:00:00;1725322020;03/09/24;00:07:00;1.014;-0.034;0.084;0.00855211354792118;-0.013439035043120384;0.0024434609804302454
01:00:0A:00:00:00:00;1725322021;03/09/24;00:07:01;1.014;-0.03;0.088;0.010995574295520782;-0.006108652334660292;0.0012217304902151227
01:00:0A:00:00:00:00;1725322022;03/09/24;00:07:02;1.015;-0.032;0.089;0.006108652334660292;-0.014660765416920185;0.0073303827084600925
01:00:0A:00:00:00:00;1725322023;03/09/24;00:07:03;1.014;-0.033;0.084;0.00855211354792118;-0.013439035043120384;0.0024434609804302454
01:00:0A:00:00:00:00;1725322024;03/09/24;00:07:04;1.015;-0.031;0.087;0.010995574295520782;-0.006108652334660292;0.0012217304902151227
01:00:0A:00:00:00:00;1725322024;03/09/24;00:07:04;1.016;-0.032;0.09;0.004886921960860491;-0.014660765416920185;0.0073303827084600925
01:00:0A:00:00:00:00;1725322025;03/09/24;00:07:05;1.016;-0.035;0.085;0.0073303827084600925;-0.012217304669320583;0.0036651913542300463
01:00:0A:00:00:00:00;1725322026;03/09/24;00:07:06;1.013;-0.03;0.087;0.009773843921720982;-0.006108652334660292;0.0012217304902151227
01:00:0A:00:00:00:00;1725322027;03/09/24;00:07:07;1.014;-0.031;0.089;0.0036651913542300463;-0.015882495790719986;0.0073303827084600925
01:00:0A:00:00:00:00;1725322028;03/09/24;00:07:08;1.013;-0.034;0.085;0.0073303827084600925;-0.010995574295520782;0.0024434609804302454
01:00:0A:00:00:00:00;1725322029;03/09/24;00:07:09;1.013;-0.032;0.088;0.00855211354792118;-0.0073303827084600925;0.0
01:00:0A:00:00:00:00;1725322030;03/09/24;00:07:10;1.014;-0.032;0.088;0.0036651913542300463;-0.015882495790719986;0.0073303827084600925
01:00:0A:00:00:00:00;1725322031;03/09/24;00:07:11;1.015;-0.035;0.085;0.006108652334660292;-0.012217304669320583;0.0024434609804302454
01:00:0A:00:00:00:00;1725322032;03/09/24;00:07:12;1.015;-0.03;0.089;0.0073303827084600925;-0.0073303827084600925;0.0012217304902151227
01:00:0A:00:00:00:00;1725322033;03/09/24;00:07:13;1.014;-0.031;0.088;0.0024434609804302454;-0.014660765416920185;0.0073303827084600925
01:00:0A:00:00:00:00;1725322034;03/09/24;00:07:14;1.013;-0.034;0.085;0.004886921960860491;-0.012217304669320583;0.0024434609804302454
01:00:0A:00:00:00:00;1725322035;03/09/24;00:07:15;1.014;-0.031;0.088;0.006108652334660292;-0.0073303827084600925;0.0012217304902151227
01:00:0A:00:00:00:00;1725322036;03/09/24;00:07:16;1.015;-0.032;0.089;0.0012217304902151227;-0.015882495790719986;0.006108652334660292
01:00:0A:00:00:00:00;1725322037;03/09/24;00:07:17;1.016;-0.034;0.085;0.004886921960860491;-0.009773843921720982;0.0024434609804302454
01:00:0A:00:00:00:00;1725322038;03/09/24;00:07:18;1.014;-0.031;0.087;0.00855211354792118;-0.006108652334660292;0.0012217304902151227
01:00:0A:00:00:00:00;1725322039;03/09/24;00:07:19;1.014;-0.03;0.087;0.009773843921720982;-0.015882495790719986;0.006108652334660292
01:00:0A:00:00:00:00;1725322040;03/09/24;00:07:20;1.015;-0.032;0.084;0.014660765416920185;-0.00855211354792118;0.004886921960860491
01:00:0A:00:00:00:00;1725322041;03/09/24;00:07:21;1.014;-0.032;0.089;0.015882495790719986;-0.006108652334660292;0.0012217304902151227
01:00:0A:00:00:00:00;1725322042;03/09/24;00:07:22;1.014;-0.031;0.087;0.009773843921720982;-0.018325956538319588;0.004886921960860491
01:00:0A:00:00:00:00;1725322043;03/09/24;00:07:23;1.015;-0.033;0.084;0.012217304669320583;-0.009773843921720982;0.006108652334660292
01:00:0A:00:00:00:00;1725322044;03/09/24;00:07:24;1.014;-0.031;0.089;0.013439035043120384;-0.006108652334660292;0.0024434609804302454
01:00:0A:00:00:00:00;1725322045;03/09/24;00:07:25;1.013;-0.03;0.088;0.00855211354792118;-0.01710422709584236;0.004886921960860491
01:00:0A:00:00:00:00;1725322046;03/09/24;00:07:26;1.013;-0.032;0.084;0.010995574295520782;-0.009773843921720982;0.0036651913542300463
01:00:0A:00:00:00:00;1725322047;03/09/24;00:07:27;1.015;-0.032;0.089;0.010995574295520782;-0.00855211354792118;0.0024434609804302454
01:00:0A:00:00:00:00;1725322048;03/09/24;00:07:28;1.015;-0.031;0.087;0.006108652334660292;-0.015882495790719986;0.006108652334660292
01:00:0A:00:00:00:00;1725322049;03/09/24;00:07:29;1.015;-0.032;0.084;0.00855211354792118;-0.00855211354792118;0.0036651913542300463
01:00:0A:00:00:00:00;1725322050;03/09/24;00:07:30;1.014;-0.031;0.088;0.009773843921720982;-0.006108652334660292;0.0024434609804302454
01:00:0A:00:00:00:00;1725322051;03/09/24;00:07:31;1.015;-0.032;0.087;0.004886921960860491;-0.01710422709584236;0.006108652334660292
01:00:0A:00:00:00:00;1725322052;03/09/24;00:07:32;1.014;-0.032;0.085;0.00855211354792118;-0.009773843921720982;0.0036651913542300463
01:00:0A:00:00:00:00;1725322053;03/09/24;00:07:33;1.014;-0.031;0.09;0.00855211354792118;-0.00855211354792118;0.0024434609804302454
01:00:0A:00:00:00:00;1725322054;03/09/24;00:07:34;1.015;-0.033;0.087;0.0036651913542300463;-0.01710422709584236;0.006108652334660292
01:00:0A:00:00:00:00;1725322055;03/09/24;00:07:35;1.015;-0.033;0.084;0.0073303827084600925;-0.009773843921720982;0.0036651913542300463
01:00:0A:00:00:00:00;1725322056;03/09/24;00:07:36;1.014;-0.03;0.09;0.0073303827084600925;-0.0073303827084600925;0.0024434609804302454
01:00:0A:00:00:00:00;1725322057;03/09/24;00:07:37;1.013;-0.032;0.087;0.0024434609804302454;-0.015882495790719986;0.006108652334660292
01:00:0A:00:00:00:00;1725322058;03/09/24;00:07:38;1.014;-0.034;0.083;0.0073303827084600925;-0.009773843921720982;0.0012217304902151227
01:00:0A:00:00:00:00;1725322059;03/09/24;00:07:39;1.015;-0.031;0.09;0.0073303827084600925;-0.00855211354792118;0.0024434609804302454
01:00:0A:00:00:00:00;1725322060;03/09/24;00:07:40;1.016;-0.032;0.087;0.0024434609804302454;-0.01710422709584236;0.006108652334660292
01:00:0A:00:00:00:00;1725322061;03/09/24;00:07:41;1.014;-0.034;0.086;0.006108652334660292;-0.0073303827084600925;0.0024434609804302454
01:00:0A:00:00:00:00;1725322062;03/09/24;00:07:42;1.015;-0.031;0.09;0.004886921960860491;-0.00855211354792118;0.0036651913542300463
01:00:0A:00:00:00:00;1725322063;03/09/24;00:07:43;1.013;-0.032;0.085;0.0012217304902151227;-0.01710422709584236;0.006108652334660292
01:00:0A:00:00:00:00;1725322064;03/09/24;00:07:44;1.015;-0.034;0.084;0.006108652334660292;-0.00855211354792118;0.0012217304902151227
01:00:0A:00:00:00:00;1725322065;03/09/24;00:07:45;1.015;-0.03;0.09;0.004886921960860491;-0.00855211354792118;0.0024434609804302454
01:00:0A:00:00:00:00;1725322066;03/09/24;00:07:46;1.014;-0.033;0.086;0.0012217304902151227;-0.015882495790719986;0.0073303827084600925
01:00:0A:00:00:00:00;1725322067;03/09/24;00:07:47;1.014;-0.033;0.086;0.006108652334660292;-0.0073303827084600925;0.0012217304902151227
01:00:0A:00:00:00:00;1725322068;03/09/24;00:07:48;1.015;-0.03;0.089;0.004886921960860491;-0.009773843921720982;0.0036651913542300463
01:00:0A:00:00:00:00;1725322069;03/09/24;00:07:49;1.013;-0.033;0.086;0.0012217304902151227;-0.015882495790719986;0.006108652334660292
01:00:0A:00:00:00:00;1725322070;03/09/24;00:07:50;1.013;-0.033;0.085;0.006108652334660292;-0.00855211354792118;0.0012217304902151227
01:00:0A:00:00:00:00;1725322071;03/09/24;00:07:51;1.014;-0.031;0.09;0.0036651913542300463;-0.010995574295520782;0.0036651913542300463
01:00:0A:00:00:00:00;1725322072;03/09/24;00:07:52;1.016;-0.034;0.087;0.0;-0.015882495790719986;0.006108652334660292
01:00:0A:00:00:00:00;1725322073;03/09/24;00:07:53;1.013;-0.033;0.086;0.004886921960860491;-0.0073303827084600925;0.0012217304902151227
01:00:0A:00:00:00:00;1725322074;03/09/24;00:07:54;1.014;-0.03;0.091;0.0024434609804302454;-0.010995574295520782;0.0036651913542300463
01:00:0A:00:00:00:00;1725322075;03/09/24;00:07:55;1.015;-0.033;0.087;0.0;-0.01710422709584236;0.006108652334660292
01:00:0A:00:00:00:00;1725322076;03/09/24;00:07:56;1.015;-0.031;0.086;0.004886921960860491;-0.0073303827084600925;0.0
01:00:0A:00:00:00:00;1725322077;03/09/24;00:07:57;1.015;-0.032;0.091;0.0012217304902151227;-0.010995574295520782;0.0036651913542300463
01:00:0A:00:00:00:00;1725322078;03/09/24;00:07:58;1.014;-0.034;0.086;0.0;-0.014660765416920185;0.004886921960860491
01:00:0A:00:00:00:00;1725322079;03/09/24;00:07:59;1.014;-0.033;0.085;0.004886921960860491;-0.006108652334660292;0.0012217304902151227
01:00:0A:00:00:00:00;1725322080;03/09/24;00:08:00;1.014;-0.031;0.09;0.0;-0.012217304669320583;0.004886921960860491
01:00:0A:00:00:00:00;1725322081;03/09/24;00:08:01;1.014;-0.033;0.085;0.0;-0.014660765416920185;0.004886921960860491
01:00:0A:00:00:00:00;1725322082;03/09/24;00:08:02;1.015;-0.031;0.086;0.0036651913542300463;-0.0073303827084600925;0.0
01:00:0A:00:00:00:00;1725322083;03/09/24;00:08:03;1.016;-0.032;0.089;0.0;-0.012217304669320583;0.004886921960860491
01:00:0A:00:00:00:00;1725322084;03/09/24;00:08:04;1.016;-0.034;0.086;-0.0012217304902151227;-0.014660765416920185;0.004886921960860491
01:00:0A:00:00:00:00;1725322085;03/09/24;00:08:05;1.014;-0.032;0.086;0.0036651913542300463;-0.006108652334660292;0.0012217304902151227
01:00:0A:00:00:00:00;1725322086;03/09/24;00:08:06;1.014;-0.031;0.089;-0.0012217304902151227;-0.012217304669320583;0.004886921960860491
01:00:0A:00:00:00:00;1725322087;03/09/24;00:08:07;1.015;-0.032;0.085;-0.0012217304902151227;-0.014660765416920185;0.0036651913542300463
01:00:0A:00:00:00:00;1725322088;03/09/24;00:08:08;1.015;-0.03;0.086;0.0024434609804302454;-0.006108652334660292;0.0
01:00:0A:00:00:00:00;1725322089;03/09/24;00:08:09;1.014;-0.032;0.09;-0.0024434609804302454;-0.013439035043120384;0.004886921960860491
01:00:0A:00:00:00:00;1725322090;03/09/24;00:08:10;1.015;-0.033;0.084;-0.0024434609804302454;-0.013439035043120384;0.004886921960860491
01:00:0A:00:00:00:00;1725322091;03/09/24;00:08:11;1.014;-0.032;0.086;0.0012217304902151227;-0.006108652334660292;0.0012217304902151227
01:00:0A:00:00:00:00;1725322092;03/09/24;00:08:12;1.015;-0.031;0.09;-0.0036651913542300463;-0.013439035043120384;0.004886921960860491
01:00:0A:00:00:00:00;1725322093;03/09/24;00:08:13;1.014;-0.033;0.086;-0.0024434609804302454;-0.013439035043120384;0.0036651913542300463
01:00:0A:00:00:00:00;1725322094;03/09/24;00:08:14;1.014;-0.031;0.086;0.0012217304902151227;-0.006108652334660292;0.0012217304902151227
01:00:0A:00:00:00:00;1725322095;03/09/24;00:08:15;1.014;-0.032;0.09;-0.0036651913542300463;-0.013439035043120384;0.004886921960860491
01:00:0A:00:00:00:00;1725322096;03/09/24;00:08:16;1.015;-0.034;0.085;-0.0024434609804302454;-0.013439035043120384;0.0036651913542300463
01:00:0A:00:00:00:00;1725322097;03/09/24;00:08:17;1.014;-0.031;0.087;0.0012217304902151227;-0.006108652334660292;0.0012217304902151227
01:00:0A:00:00:00:00;1725322098;03/09/24;00:08:18;1.013;-0.031;0.089;-0.0036651913542300463;-0.013439035043120384;0.004886921960860491
01:00:0A:00:00:00:00;1725322099;03/09/24;00:08:19;1.015;-0.033;0.085;-0.0024434609804302454;-0.014660765416920185;0.0036651913542300463
01:00:0A:00:00:00:00;1725322100;03/09/24;00:08:20;1.015;-0.031;0.088;0.0012217304902151227;-0.006108652334660292;0.0012217304902151227
01:00:0A:00:00:00:00;1725322101;03/09/24;00:08:21;1.016;-0.031;0.089;-0.0036651913542300463;-0.013439035043120384;0.004886921960860491
01:00:0A:00:00:00:00;1725322102;03/09/24;00:08:22;1.014;-0.033;0.084;-0.0024434609804302454;-0.012217304669320583;0.0036651913542300463
01:00:0A:00:00:00:00;1725322103;03/09/24;00:08:23;1.014;-0.032;0.087;0.0012217304902151227;-0.006108652334660292;0.0012217304902151227
01:00:0A:00:00:00:00;1725322104;03/09/24;00:08:24;1.014;-0.032;0.09;-0.0036651913542300463;-0.013439035043120384;0.004886921960860491
01:00:0A:00:00:00:00;1725322105;03/09/24;00:08:25;1.015;-0.032;0.085;-0.0024434609804302454;-0.012217304669320583;0.0024434609804302454
01:00:0A:00:00:00:00;1725322106;03/09/24;00:08:26;1.014;-0.031;0.088;0.0;-0.006108652334660292;0.0012217304902151227
01:00:0A:00:00:00:00;1725322107;03/09/24;00:08:27;1.014;-0.032;0.089;-0.0036651913542300463;-0.014660765416920185;0.004886921960860491
01:00:0A:00:00:00:00;1725322108;03/09/24;00:08:28;1.016;-0.033;0.084;-0.0024434609804302454;-0.012217304669320583;0.0024434609804302454
01:00:0A:00:00:00:00;1725322109;03/09/24;00:08:29;1.015;-0.031;0.089;-0.0012217304902151227;-0.004886921960860491;0.0012217304902151227
01:00:0A:00:00:00:00;1725322110;03/09/24;00:08:30;1.013;-0.032;0.089;-0.004886921960860491;-0.014660765416920185;0.004886921960860491
01:00:0A:00:00:00:00;1725322111;03/09/24;00:08:31;1.014;-0.033;0.084;-0.0036651913542300463;-0.013439035043120384;0.0024434609804302454
01:00:0A:00:00:00:00;1725322112;03/09/24;00:08:32;1.015;-0.031;0.089;-0.0024434609804302454;-0.0073303827084600925;0.0012217304902151227
01:00:0A:00:00:00:00;1725322113;03/09/24;00:08:33;1.014;-0.031;0.089;-0.0073303827084600925;-0.014660765416920185;0.004886921960860491
01:00:0A:00:00:00:00;1725322114;03/09/24;00:08:34;1.014;-0.032;0.085;-0.004886921960860491;-0.010995574295520782;0.0024434609804302454
01:00:0A:00:00:00:00;1725322115;03/09/24;00:08:35;1.014;-0.03;0.087;-0.0036651913542300463;-0.006108652334660292;0.0024434609804302454
01:00:0A:00:00:00:00;1725322116;03/09/24;00:08:36;1.014;-0.031;0.088;-0.00855211354792118;-0.015882495790719986;0.004886921960860491
01:00:0A:00:00:00:00;1725322117;03/09/24;00:08:37;1.015;-0.032;0.084;-0.006108652334660292;-0.012217304669320583;0.0012217304902151227
01:00:0A:00:00:00:00;1725322118;03/09/24;00:08:38;1.014;-0.031;0.089;-0.006108652334660292;-0.0073303827084600925;0.0024434609804302454
01:00:0A:00:00:00:00;1725322119;03/09/24;00:08:39;1.015;-0.032;0.089;-0.009773843921720982;-0.015882495790719986;0.004886921960860491
01:00:0A:00:00:00:00;1725322120;03/09/24;00:08:40;1.015;-0.032;0.085;-0.0073303827084600925;-0.010995574295520782;0.0024434609804302454
01:00:0A:00:00:00:00;1725322121;03/09/24;00:08:41;1.014;-0.031;0.088;-0.0073303827084600925;-0.006108652334660292;0.0024434609804302454
01:00:0A:00:00:00:00;1725322122;03/09/24;00:08:42;1.014;-0.032;0.089;-0.009773843921720982;-0.015882495790719986;0.0036651913542300463
01:00:0A:00:00:00:00;1725322123;03/09/24;00:08:43;1.014;-0.033;0.085;-0.0073303827084600925;-0.012217304669320583;0.0012217304902151227
01:00:0A:00:00:00:00;1725322124;03/09/24;00:08:44;1.016;-0.031;0.089;-0.0073303827084600925;-0.0073303827084600925;0.0024434609804302454
01:00:0A:00:00:00:00;1725322125;03/09/24;00:08:45;1.015;-0.032;0.088;-0.010995574295520782;-0.015882495790719986;0.0036651913542300463
01:00:0A:00:00:00:00;1725322126;03/09/24;00:08:46;1.015;-0.032;0.083;-0.00855211354792118;-0.009773843921720982;0.0024434609804302454
01:00:0A:00:00:00:00;1725322127;03/09/24;00:08:47;1.014;-0.031;0.088;-0.0073303827084600925;-0.0073303827084600925;0.0024434609804302454
01:00:0A:00:00:00:00;1725322128;03/09/24;00:08:48;1.014;-0.031;0.089;-0.010995574295520782;-0.015882495790719986;0.0036651913542300463
01:00:0A:00:00:00:00;1725322129;03/09/24;00:08:49;1.014;-0.032;0.085;-0.00855211354792118;-0.010995574295520782;0.0012217304902151227
01:00:0A:00:00:00:00;1725322130;03/09/24;00:08:50;1.014;-0.031;0.089;-0.00855211354792118;-0.0073303827084600925;0.0036651913542300463
01:00:0A:00:00:00:00;1725322131;03/09/24;00:08:51;1.015;-0.033;0.087;-0.010995574295520782;-0.015882495790719986;0.0036651913542300463
01:00:0A:00:00:00:00;1725322132;03/09/24;00:08:52;1.015;-0.032;0.085;-0.00855211354792118;-0.009773843921720982;0.0024434609804302454
01:00:0A:00:00:00:00;1725322133;03/09/24;00:08:53;1.013;-0.031;0.088;-0.00855211354792118;-0.0073303827084600925;0.0036651913542300463
01:00:0A:00:00:00:00;1725322134;03/09/24;00:08:54;1.014;-0.033;0.087;-0.010995574295520782;-0.015882495790719986;0.0024434609804302454
01:00:0A:00:00:00:00;1725322135;03/09/24;00:08:55;1.015;-0.032;0.084;-0.00855211354792118;-0.009773843921720982;0.0012217304902151227
01:00:0A:00:00:00:00;1725322136;03/09/24;00:08:56;1.014;-0.032;0.089;-0.009773843921720982;-0.0073303827084600925;0.0036651913542300463
01:00:0A:00:00:00:00;1725322137;03/09/24;00:08:57;1.015;-0.033;0.087;-0.010995574295520782;-0.015882495790719986;0.0024434609804302454
01:00:0A:00:00:00:00;1725322138;03/09/24;00:08:58;1.013;-0.031;0.083;-0.00855211354792118;-0.009773843921720982;0.0024434609804302454
01:00:0A:00:00:00:00;1725322139;03/09/24;00:08:59;1.014;-0.032;0.088;-0.009773843921720982;-0.00855211354792118;0.0036651913542300463
01:00:0A:00:00:00:00;1725322140;03/09/24;00:09:00;1.014;-0.032;0.087;-0.010995574295520782;-0.01710422709584236;0.0024434609804302454
01:00:0A:00:00:00:00;1725322141;03/09/24;00:09:01;1.015;-0.031;0.085;-0.00855211354792118;-0.00855211354792118;0.0024434609804302454
01:00:0A:00:00:00:00;1725322142;03/09/24;00:09:02;1.015;-0.031;0.088;-0.009773843921720982;-0.0073303827084600925;0.004886921960860491
01:00:0A:00:00:00:00;1725322143;03/09/24;00:09:03;1.015;-0.032;0.086;-0.010995574295520782;-0.015882495790719986;0.0024434609804302454
01:00:0A:00:00:00:00;1725322144;03/09/24;00:09:04;1.013;-0.031;0.085;-0.00855211354792118;-0.00855211354792118;0.0024434609804302454
01:00:0A:00:00:00:00;1725322145;03/09/24;00:09:05;1.014;-0.032;0.091;-0.009773843921720982;-0.0073303827084600925;0.0036651913542300463
01:00:0A:00:00:00:00;1725322146;03/09/24;00:09:06;1.014;-0.033;0.085;-0.010995574295520782;-0.015882495790719986;0.0012217304902151227
01:00:0A:00:00:00:00;1725322147;03/09/24;00:09:07;1.014;-0.032;0.086;-0.00855211354792118;-0.00855211354792118;0.0012217304902151227
01:00:0A:00:00:00:00;1725322148;03/09/24;00:09:08;1.015;-0.031;0.09;-0.009773843921720982;-0.00855211354792118;0.0036651913542300463
01:00:0A:00:00:00:00;1725322149;03/09/24;00:09:09;1.014;-0.032;0.088;-0.010995574295520782;-0.015882495790719986;0.0012217304902151227
01:00:0A:00:00:00:00;1725322150;03/09/24;00:09:10;1.016;-0.031;0.084;-0.009773843921720982;-0.0073303827084600925;0.0036651913542300463
01:00:0A:00:00:00:00;1725322151;03/09/24;00:09:11;1.014;-0.033;0.088;-0.010995574295520782;-0.009773843921720982;0.0036651913542300463
01:00:0A:00:00:00:00;1725322152;03/09/24;00:09:12;1.014;-0.033;0.087;-0.010995574295520782;-0.015882495790719986;0.0
01:00:0A:00:00:00:00;1725322153;03/09/24;00:09:13;1.015;-0.03;0.085;-0.009773843921720982;-0.00855211354792118;0.0024434609804302454
01:00:0A:00:00:00:00;1725322154;03/09/24;00:09:14;1.015;-0.032;0.089;-0.010995574295520782;-0.009773843921720982;0.0036651913542300463
01:00:0A:00:00:00:00;1725322155;03/09/24;00:09:15;1.015;-0.033;0.086;-0.010995574295520782;-0.015882495790719986;0.0012217304902151227
01:00:0A:00:00:00:00;1725322156;03/09/24;00:09:16;1.014;-0.031;0.085;-0.009773843921720982;-0.00855211354792118;0.0024434609804302454
01:00:0A:00:00:00:00;1725322157;03/09/24;00:09:17;1.014;-0.033;0.089;-0.010995574295520782;-0.009773843921720982;0.004886921960860491
01:00:0A:00:00:00:00;1725322158;03/09/24;00:09:18;1.015;-0.033;0.086;-0.010995574295520782;-0.015882495790719986;0.0
01:00:0A:00:00:00:00;1725322159;03/09/24;00:09:19;1.014;-0.031;0.086;-0.009773843921720982;-0.0073303827084600925;0.0036651913542300463
01:00:0A:00:00:00:00;1725322160;03/09/24;00:09:20;1.015;-0.033;0.09;-0.010995574295520782;-0.010995574295520782;0.0036651913542300463
01:00:0A:00:00:00:00;1725322161;03/09/24;00:09:21;1.015;-0.033;0.086;-0.010995574295520782;-0.014660765416920185;0.0
01:00:0A:00:00:00:00;1725322162;03/09/24;00:09:22;1.015;-0.031;0.085;-0.009773843921720982;-0.0073303827084600925;0.004886921960860491
01:00:0A:00:00:00:00;1725322163;03/09/24;00:09:23;1.013;-0.032;0.09;-0.010995574295520782;-0.010995574295520782;0.0036651913542300463
01:00:0A:00:00:00:00;1725322164;03/09/24;00:09:24;1.014;-0.032;0.088;-0.010995574295520782;-0.014660765416920185;-0.0012217304902151227
01:00:0A:00:00:00:00;1725322165;03/09/24;00:09:25;1.015;-0.031;0.086;-0.010995574295520782;-0.0073303827084600925;0.0036651913542300463
01:00:0A:00:00:00:00;1725322166;03/09/24;00:09:26;1.015;-0.034;0.089;-0.012217304669320583;-0.010995574295520782;0.0036651913542300463
01:00:0A:00:00:00:00;1725322167;03/09/24;00:09:27;1.015;-0.032;0.085;-0.010995574295520782;-0.014660765416920185;-0.0012217304902151227
01:00:0A:00:00:00:00;1725322168;03/09/24;00:09:28;1.014;-0.034;0.088;-0.010995574295520782;-0.010995574295520782;0.0024434609804302454
01:00:0A:00:00:00:00;1725322169;03/09/24;00:09:29;1.009;-0.041;0.096;-0.010995574295520782;-0.0012217304902151227;0.015882495790719986
01:00:0A:00:00:00:00;1725322170;03/09/24;00:09:30;1.012;-0.035;0.09;-0.010995574295520782;0.0012217304902151227;0.02076941914856434
01:00:0A:00:00:00:00;1725322171;03/09/24;00:09:31;1.019;-0.022;0.084;-0.009773843921720982;-0.004886921960860491;0.006108652334660292
01:00:0A:00:00:00:00;1725322172;03/09/24;00:09:32;1.021;-0.02;0.083;-0.00855211354792118;-0.019547687843441963;-0.010995574295520782
01:00:0A:00:00:00:00;1725322173;03/09/24;00:09:33;1.027;-0.034;0.086;-0.006108652334660292;-0.015882495790719986;-0.019547687843441963
01:00:0A:00:00:00:00;1725322174;03/09/24;00:09:34;1.015;-0.048;0.095;-0.006108652334660292;-0.0024434609804302454;0.006108652334660292
01:00:0A:00:00:00:00;1725322175;03/09/24;00:09:35;0.995;-0.045;0.096;-0.012217304669320583;-0.012217304669320583;0.01710422709584236
01:00:0A:00:00:00:00;1725322176;03/09/24;00:09:36;0.98;-0.04;0.102;-0.01710422709584236;-0.024434609338641167;0.015882495790719986
01:00:0A:00:00:00:00;1725322177;03/09/24;00:09:37;1.003;-0.032;0.111;-0.02321287989616394;-0.021991148591041565;0.0073303827084600925
01:00:0A:00:00:00:00;1725322178;03/09/24;00:09:38;1.044;-0.029;0.105;-0.030543262138962746;-0.006108652334660292;0.009773843921720982
01:00:0A:00:00:00:00;1725322179;03/09/24;00:09:39;1.053;-0.07;0.077;0.019547687843441963;-0.019547687843441963;-0.04153883829712868
01:00:0A:00:00:00:00;1725322180;03/09/24;00:09:40;1.034;0.009;0.028;0.042760565876960754;0.00855211354792118;-0.03787364438176155
01:00:0A:00:00:00:00;1725322181;03/09/24;00:09:41;0.983;-0.09;0.092;0.03420845419168472;0.010995574295520782;0.17104226350784302
01:00:0A:00:00:00:00;1725322182;03/09/24;00:09:42;0.972;-0.016;0.053;0.11850785464048386;-0.17837265133857727;-0.16493360698223114
01:00:0A:00:00:00:00;1725322183;03/09/24;00:09:43;0.989;0.003;0.081;0.09040805697441101;0.12339477241039276;0.1771509200334549
01:00:0A:00:00:00:00;1725322184;03/09/24;00:09:44;1.006;-0.084;0.155;0.13561207056045532;-0.11972958594560623;-0.13072516024112701
01:00:0A:00:00:00:00;1725322185;03/09/24;00:09:45;1.039;0.003;0.023;0.1576032191514969;0.014660765416920185;-0.05742133408784866
01:00:0A:00:00:00:00;1725322186;03/09/24;00:09:46;1.03;-0.082;0.113;0.16982054710388184;0.08796459436416626;0.03420845419168472
01:00:0A:00:00:00:00;1725322187;03/09/24;00:09:47;1.025;-0.054;0.086;0.15882496535778046;-0.11728612333536148;0.0012217304902151227
01:00:0A:00:00:00:00;1725322188;03/09/24;00:09:48;1.034;-0.02;0.009;0.1918116807937622;0.004886921960860491;0.06719517707824707
01:00:0A:00:00:00:00;1725322189;03/09/24;00:09:49;1.025;-0.038;0.156;0.21624629199504852;0.1258382350206375;0.0354301817715168
01:00:0A:00:00:00:00;1725322190;03/09/24;00:09:50;1.002;0.01;0.067;0.1319468915462494;-0.15271630883216858;-0.05619959905743599
01:00:0A:00:00:00:00;1725322191;03/09/24;00:09:51;0.971;-0.048;0.041;0.14782939851284027;0.09285151958465576;0.15027284622192383
01:00:0A:00:00:00:00;1725322192;03/09/24;00:09:52;0.975;-0.013;0.085;0.22357667982578278;-0.0036651913542300463;-0.13439035415649414
01:00:0A:00:00:00:00;1725322193;03/09/24;00:09:53;1.015;0.019;0.062;0.12828169763088226;-0.06963863223791122;0.13805554807186127
01:00:0A:00:00:00:00;1725322194;03/09/24;00:09:54;1.064;-0.079;0.081;0.22479839622974396;0.0757472887635231;-0.06841690838336945
01:00:0A:00:00:00:00;1725322195;03/09/24;00:09:55;1.038;0.187;0.203;0.06475171446800232;0.12950342893600464;0.09529497474431992
01:00:0A:00:00:00:00;1725322196;03/09/24;00:09:56;0.995;-0.339;0.026;0.08429940044879913;-0.1722639948129654;0.4948008358478546
01:00:0A:00:00:00:00;1725322197;03/09/24;00:09:57;1.001;0.086;0.102;0.46181410551071167;-0.0354301817715168;-0.445931613445282
01:00:0A:00:00:00:00;1725322198;03/09/24;00:09:58;0.966;-0.084;0.05;0.3127630054950714;-0.028099799528717995;0.3335324227809906
01:00:0A:00:00:00:00;1725322199;03/09/24;00:09:59;0.988;-0.006;0.078;0.5143485069274902;-0.00855211354792118;-0.4752531349658966
01:00:0A:00:00:00:00;1725322200;03/09/24;00:10:00;0.979;0.261;0.075;0.13927726447582245;0.35185837745666504;0.5094615817070007
01:00:0A:00:00:00:00;1725322201;03/09/24;00:10:01;0.975;-0.265;0.355;0.06719517707824707;-0.15882496535778046;0.16982054710388184
01:00:0A:00:00:00:00;1725322202;03/09/24;00:10:02;1.043;-0.136;0.132;0.24556782841682434;-0.36163222789764404;-0.0708603635430336
01:00:0A:00:00:00:00;1725322203;03/09/24;00:10:03;0.999;-0.002;-0.063;0.4789183437824249;-0.30054569244384766;-0.3017674386501312
01:00:0A:00:00:00:00;1725322204;03/09/24;00:10:04;0.934;0.166;-0.121;0.779464066028595;0.7061601877212524;-0.35552355647087097
01:00:0A:00:00:00:00;1725322205;03/09/24;00:10:05;0.894;0.041;0.407;0.36529743671417236;0.3481931686401367;0.7660250067710876
01:00:0A:00:00:00:00;1725322206;03/09/24;00:10:06;0.966;-0.115;0.243;0.17592918872833252;-0.9468411207199097;-0.42271876335144043
01:00:0A:00:00:00:00;1725322207;03/09/24;00:10:07;0.98;0.247;-0.105;0.19425514340400696;0.29688048362731934;0.030543262138962746
01:00:0A:00:00:00:00;1725322208;03/09/24;00:10:08;0.999;-0.214;0.243;0.14294245839118958;-0.03420845419168472;0.3836233615875244
01:00:0A:00:00:00:00;1725322209;03/09/24;00:10:09;1.018;-0.092;0.035;0.5387831330299377;-0.10018189996480942;-0.19425514340400696
01:00:0A:00:00:00:00;1725322210;03/09/24;00:10:10;0.987;0.051;0.081;0.5644394755363464;0.21624629199504852;0.31154125928878784
01:00:0A:00:00:00:00;1725322211;03/09/24;00:10:11;0.973;-0.125;0.208;0.48258352279663086;-0.455705463886261;0.2321287840604782
01:00:0A:00:00:00:00;1725322212;03/09/24;00:10:12;1.023;-0.164;-0.082;0.8417722582817078;-0.3494149148464203;-0.25534167885780334
01:00:0A:00:00:00:00;1725322213;03/09/24;00:10:13;1.04;-0.188;-0.032;1.3145819902420044;-0.0757472887635231;-0.22968533635139465
01:00:0A:00:00:00:00;1725322214;03/09/24;00:10:14;1.008;0.165;-0.082;1.224173903465271;-0.09407324343919754;-0.08918632566928864
01:00:0A:00:00:00:00;1725322215;03/09/24;00:10:15;0.984;-0.215;0.093;1.3072515726089478;0.10018189996480942;0.0708603635430336
01:00:0A:00:00:00:00;1725322216;03/09/24;00:10:16;0.977;0.074;-0.115;1.2791517972946167;-0.45326200127601624;-0.3897320330142975
01:00:0A:00:00:00:00;1725322217;03/09/24;00:10:17;0.932;0.134;-0.317;1.379333734512329;0.8442157506942749;-0.6499606370925903
01:00:0A:00:00:00:00;1725322218;03/09/24;00:10:18;0.933;0.325;-0.165;1.0482447147369385;0.6805038452148438;0.03176499158143997
01:00:0A:00:00:00:00;1725322219;03/09/24;00:10:19;1.008;0.234;0.11;0.6084217429161072;0.485027015209198;0.26633724570274353
01:00:0A:00:00:00:00;1725322220;03/09/24;00:10:20;1.018;-0.089;0.202;0.26022857427597046;-0.06841690838336945;0.23335053026676178
01:00:0A:00:00:00:00;1725322221;03/09/24;00:10:21;1.002;0.027;0.013;0.2125810980796814;-0.21013763546943665;-0.012217304669320583
01:00:0A:00:00:00:00;1725322222;03/09/24;00:10:22;0.979;0.01;0.17;0.15393804013729095;0.08796459436416626;0.0659734457731247
01:00:0A:00:00:00:00;1725322223;03/09/24;00:10:23;1.007;-0.074;0.151;0.042760565876960754;-0.3933972120285034;0.16004669666290283
01:00:0A:00:00:00:00;1725322224;03/09/24;00:10:24;1.045;-0.142;0.008;0.3494149148464203;0.02687807008624077;-0.22357667982578278
01:00:0A:00:00:00:00;1725322225;03/09/24;00:10:25;1.038;0.054;0.295;0.2822197377681732;-0.07208210229873657;0.04764748737215996
01:00:0A:00:00:00:00;1725322226;03/09/24;00:10:26;1.016;-0.203;-0.137;0.4715879559516907;-0.17104226350784302;-0.08918632566928864
01:00:0A:00:00:00:00;1725322227;03/09/24;00:10:27;0.936;0.29;0.224;0.5778785347938538;0.739146888256073;-0.43249258399009705
01:00:0A:00:00:00:00;1725322228;03/09/24;00:10:28;0.925;-0.148;0.332;-0.17592918872833252;-0.2981022298336029;0.8710938096046448
01:00:0A:00:00:00:00;1725322229;03/09/24;00:10:29;0.974;-0.098;0.015;0.27122414112091064;-0.03176499158143997;-0.3274237811565399
01:00:0A:00:00:00:00;1725322230;03/09/24;00:10:30;1.019;-0.028;0.032;0.34208452701568604;-0.01710422709584236;-0.0073303827084600925
01:00:0A:00:00:00:00;1725322231;03/09/24;00:10:31;1.055;-0.067;0.038;0.46792274713516235;0.02321287989616394;0.04764748737215996
01:00:0A:00:00:00:00;1725322232;03/09/24;00:10:32;1.043;0.015;0.191;0.5143485069274902;0.24556782841682434;0.03787364438176155
01:00:0A:00:00:00:00;1725322233;03/09/24;00:10:33;0.967;0.305;0.226;0.08429940044879913;0.1576032191514969;-0.028099799528717995
01:00:0A:00:00:00:00;1725322234;03/09/24;00:10:34;0.984;-0.188;0.07;-0.20891590416431427;-0.6707300543785095;0.5119050741195679
01:00:0A:00:00:00:00;1725322235;03/09/24;00:10:35;0.903;-0.271;-0.214;0.6572909951210022;-0.3237585723400116;-0.7049384713172913
01:00:0A:00:00:00:00;1725322236;03/09/24;00:10:36;0.947;0.191;-0.168;1.137431025505066;0.37629297375679016;-0.8552113175392151
01:00:0A:00:00:00:00;1725322237;03/09/24;00:10:37;0.955;0.253;-0.134;0.9639453291893005;0.5448917746543884;0.04886921867728233
01:00:0A:00:00:00:00;1725322238;03/09/24;00:10:38;0.998;-0.045;0.227;0.8564330339431763;0.1771509200334549;0.4031710624694824
01:00:0A:00:00:00:00;1725322239;03/09/24;00:10:39;0.993;-0.269;0.013;1.0641272068023682;-0.6695082783699036;0.06719517707824707
01:00:0A:00:00:00:00;1725322240;03/09/24;00:10:40;1.026;-0.181;-0.064;1.5833626985549927;0.10995574295520782;-0.11850785464048386
01:00:0A:00:00:00:00;1725322241;03/09/24;00:10:41;0.98;0.285;0.01;1.3536773920059204;0.1111774742603302;0.02076941914856434
01:00:0A:00:00:00:00;1725322242;03/09/24;00:10:42;1.011;-0.198;0.188;1.156978726387024;0.1062905490398407;0.6487389206886292
01:00:0A:00:00:00:00;1725322243;03/09/24;00:10:43;0.908;-0.144;0.577;-0.7586946487426758;0.2076941877603531;0.21135938167572021
01:00:0A:00:00:00:00;1725322244;03/09/24;00:10:44;1.007;-0.071;0.18;-0.9810495376586914;0.051312677562236786;-0.9517280459403992
01:00:0A:00:00:00:00;1725322245;03/09/24;00:10:45;0.971;-0.323;0.152;-0.7550294399261475;-0.5632177591323853;0.33108896017074585
01:00:0A:00:00:00:00;1725322246;03/09/24;00:10:46;0.975;-0.251;-0.198;0.2015855312347412;-0.1062905490398407;-0.22846359014511108
01:00:0A:00:00:00:00;1725322247;03/09/24;00:10:47;1.03;0.083;0.298;2.381152629852295;0.6475171446800232;0.2785545289516449
01:00:0A:00:00:00:00;1725322248;03/09/24;00:10:48;1.003;-0.249;0.321;1.7678439617156982;-0.1661553531885147;0.891863226890564
01:00:0A:00:00:00:00;1725322249;03/09/24;00:10:49;0.895;-0.616;0.05;2.1404716968536377;-1.3732250928878784;0.24556782841682434
01:00:0A:00:00:00:00;1725322250;03/09/24;00:10:50;0.713;-0.645;0.203;2.5888469219207764;-1.0836749076843262;0.11484266817569733
01:00:0A:00:00:00:00;1725322251;03/09/24;00:10:51;0.7;-0.726;0.168;1.6688838005065918;-1.538158655166626;0.35063666105270386
01:00:0A:00:00:00:00;1725322252;03/09/24;00:10:52;0.958;-0.295;-0.231;2.604729175567627;-0.7354817390441895;-0.8906415700912476
01:00:0A:00:00:00:00;1725322253;03/09/24;00:10:53;0.913;-0.367;-0.146;3.369532823562622;-0.06352998316287994;-0.8662068843841553
01:00:0A:00:00:00:00;1725322254;03/09/24;00:10:54;1.033;-0.131;0.055;3.391523599624634;0.3848450779914856;0.5106833577156067
01:00:0A:00:00:00:00;1725322255;03/09/24;00:10:55;0.981;-0.04;0.355;2.8991665840148926;0.2370157092809677;0.3591887652873993
01:00:0A:00:00:00:00;1725322256;03/09/24;00:10:56;0.989;-0.115;0.088;2.4825563430786133;-0.3787364363670349;-0.015882495790719986
01:00:0A:00:00:00:00;1725322257;03/09/24;00:10:57;0.955;-0.098;-0.122;2.696359157562256;-0.588874101638794;-0.2785545289516449
01:00:0A:00:00:00:00;1725322258;03/09/24;00:10:58;0.999;0.235;0.067;3.286454916000366;0.07819075137376785;-0.533896267414093
01:00:0A:00:00:00:00;1725322259;03/09/24;00:10:59;1.067;-0.087;-0.106;2.680476665496826;0.3237585723400116;-0.3090977966785431
01:00:0A:00:00:00:00;1725322260;03/09/24;00:11:00;0.98;0.37;0.005;1.9645426273345947;-0.13439035415649414;0.45814892649650574
01:00:0A:00:00:00:00;1725322261;03/09/24;00:11:01;0.948;-0.23;0.437;1.5503759384155273;0.09040805697441101;0.6475171446800232
01:00:0A:00:00:00:00;1725322262;03/09/24;00:11:02;0.895;-0.368;0.331;1.2999212741851807;-0.8246681094169617;0.901637077331543
01:00:0A:00:00:00:00;1725322263;03/09/24;00:11:03;0.89;-0.005;-0.336;1.4037683010101318;0.07819075137376785;-0.6084217429161072
01:00:0A:00:00:00:00;1725322264;03/09/24;00:11:04;0.961;-0.06;0.221;1.5528194904327393;1.0030406713485718;0.322536826133728
01:00:0A:00:00:00:00;1725322265;03/09/24;00:11:05;0.869;0.252;0.468;0.5229006409645081;-0.3274237811565399;0.24556782841682434
01:00:0A:00:00:00:00;1725322266;03/09/24;00:11:06;1.029;-0.342;-0.019;1.3255774974822998;0.10995574295520782;0.3677408695220947
01:00:0A:00:00:00:00;1725322267;03/09/24;00:11:07;1.073;0.078;0.05;1.359786033630371;-0.1576032191514969;-0.10262535512447357
01:00:0A:00:00:00:00;1725322268;03/09/24;00:11:08;0.993;-0.242;-0.249;1.4721851348876953;0.0073303827084600925;0.08674286305904388
01:00:0A:00:00:00:00;1725322269;03/09/24;00:11:09;1.002;0.22;0.041;1.4477505683898926;0.02076941914856434;-0.3176499307155609
01:00:0A:00:00:00:00;1725322270;03/09/24;00:11:10;1.033;-0.034;0.086;1.1325441598892212;0.39217546582221985;0.22968533635139465
01:00:0A:00:00:00:00;1725322271;03/09/24;00:11:11;1.011;0.013;0.17;0.8344419002532959;-0.19792033731937408;0.22357667982578278
01:00:0A:00:00:00:00;1725322272;03/09/24;00:11:12;0.968;-0.362;0.037;0.929736852645874;0.019547687843441963;0.3946189284324646
01:00:0A:00:00:00:00;1725322273;03/09/24;00:11:13;1.008;0.025;0.256;1.0054842233657837;-0.036651913076639175;-0.17348572611808777
01:00:0A:00:00:00:00;1725322274;03/09/24;00:11:14;1.014;-0.026;0.216;0.5644394755363464;0.18814648687839508;0.3017674386501312
01:00:0A:00:00:00:00;1725322275;03/09/24;00:11:15;0.999;-0.071;0.172;0.37140607833862305;-0.15882496535778046;0.03176499158143997
01:00:0A:00:00:00:00;1725322276;03/09/24;00:11:16;0.999;0.046;0.111;0.2480112910270691;-0.10018189996480942;-0.04886921867728233
01:00:0A:00:00:00:00;1725322277;03/09/24;00:11:17;0.99;0.015;0.149;0.09773843735456467;-0.02321287989616394;0.14049901068210602
01:00:0A:00:00:00:00;1725322278;03/09/24;00:11:18;0.995;0.015;0.135;0.0659734457731247;-0.10506881773471832;-0.09407324343919754
01:00:0A:00:00:00:00;1725322279;03/09/24;00:11:19;1.018;0.071;0.084;-0.006108652334660292;-0.06475171446800232;0.00855211354792118
01:00:0A:00:00:00:00;1725322280;03/09/24;00:11:20;1.054;-0.057;0.091;0.013439035043120384;0.012217304669320583;0.11484266817569733
01:00:0A:00:00:00:00;1725322281;03/09/24;00:11:21;1.06;-0.039;0.088;0.10995574295520782;-0.05253440886735916;0.07819075137376785
01:00:0A:00:00:00:00;1725322282;03/09/24;00:11:22;1.034;-0.082;0.076;0.14905111491680145;0.013439035043120384;0.20891590416431427
01:00:0A:00:00:00:00;1725322283;03/09/24;00:11:23;1.01;-0.162;-0.003;0.2981022298336029;-0.1062905490398407;0.2028072476387024
01:00:0A:00:00:00:00;1725322284;03/09/24;00:11:24;0.999;-0.105;-0.006;0.5436700582504272;-0.0036651913542300463;-0.11972958594560623
01:00:0A:00:00:00:00;1725322285;03/09/24;00:11:25;0.997;-0.068;0.058;0.5962044596672058;0.16004669666290283;-0.0012217304902151227
01:00:0A:00:00:00:00;1725322286;03/09/24;00:11:26;1.008;-0.055;0.09;0.5277875661849976;0.010995574295520782;0.05619959905743599
01:00:0A:00:00:00:00;1725322287;03/09/24;00:11:27;1.035;0.022;0.056;0.5045746564865112;-0.03420845419168472;-0.04764748737215996
01:00:0A:00:00:00:00;1725322288;03/09/24;00:11:28;1.057;-0.036;-0.054;0.5754350423812866;0.2834414541721344;-0.021991148591041565
01:00:0A:00:00:00:00;1725322289;03/09/24;00:11:29;0.994;0.179;0.34;0.322536826133728;0.2687807083129883;-0.08429940044879913
01:00:0A:00:00:00:00;1725322290;03/09/24;00:11:30;1.052;-0.043;0.145;-0.07330382615327835;-0.2724458873271942;0.21868975460529327
01:00:0A:00:00:00:00;1725322291;03/09/24;00:11:31;1.012;0.044;0.054;0.02932153083384037;0.019547687843441963;-0.09651670604944229
01:00:0A:00:00:00:00;1725322292;03/09/24;00:11:32;0.977;-0.041;0.212;-0.07819075137376785;0.16982054710388184;0.10384709388017654
01:00:0A:00:00:00:00;1725322293;03/09/24;00:11:33;0.987;-0.185;0.016;0.004886921960860491;-0.2565633952617645;0.07330382615327835
01:00:0A:00:00:00:00;1725322294;03/09/24;00:11:34;1.013;-0.12;0.056;0.4239404499530792;0.2919935882091522;-0.22113320231437683
01:00:0A:00:00:00:00;1725322295;03/09/24;00:11:35;1.003;0.078;0.148;0.313984751701355;0.021991148591041565;0.18448130786418915
01:00:0A:00:00:00:00;1725322296;03/09/24;00:11:36;0.998;-0.136;0.014;0.37629297375679016;-0.14538592100143433;0.05619959905743599
01:00:0A:00:00:00:00;1725322297;03/09/24;00:11:37;0.988;0.057;0.026;0.4642575681209564;-0.21991148591041565;-0.33597588539123535
01:00:0A:00:00:00:00;1725322298;03/09/24;00:11:38;0.986;-0.01;0.149;0.26633724570274353;-0.051312677562236786;0.3347541391849518
01:00:0A:00:00:00:00;1725322299;03/09/24;00:11:39;0.973;-0.177;0.089;0.50335294008255;-0.3152064383029938;-0.3335324227809906
01:00:0A:00:00:00:00;1725322300;03/09/24;00:11:40;1.057;-0.005;-0.036;0.7134906053543091;0.34574973583221436;-0.1563815027475357
01:00:0A:00:00:00:00;1725322301;03/09/24;00:11:41;1.03;0.202;0.347;0.3152064383029938;-0.28588491678237915;0.21013763546943665
01:00:0A:00:00:00:00;1725322302;03/09/24;00:11:42;1.004;-0.427;-0.281;0.43860122561454773;-0.20036379992961884;0.11362093687057495
01:00:0A:00:00:00:00;1725322303;03/09/24;00:11:43;0.928;0.556;0.158;0.41294488310813904;0.09529497474431992;-0.6047565937042236
01:00:0A:00:00:00:00;1725322304;03/09/24;00:11:44;1.007;-0.224;-0.061;-0.010995574295520782;-0.33719760179519653;0.7721336483955383
01:00:0A:00:00:00:00;1725322305;03/09/24;00:11:45;0.97;0.061;0.142;0.42760565876960754;0.2015855312347412;-0.6096435189247131
01:00:0A:00:00:00:00;1725322306;03/09/24;00:11:46;0.945;0.054;0.093;0.0;-0.16004669666290283;0.5314527750015259
01:00:0A:00:00:00:00;1725322307;03/09/24;00:11:47;0.992;-0.145;0.069;0.2565633952617645;0.22357667982578278;-0.2638937830924988
01:00:0A:00:00:00:00;1725322308;03/09/24;00:11:48;1.023;0.066;0.168;0.05009094998240471;-0.2736676335334778;0.18570303916931152
01:00:0A:00:00:00:00;1725322309;03/09/24;00:11:49;1.068;-0.167;-0.025;0.17104226350784302;-0.010995574295520782;-0.012217304669320583
01:00:0A:00:00:00:00;1725322310;03/09/24;00:11:50;1.031;0.197;0.271;0.07696902006864548;-0.04886921867728233;0.06475171446800232
01:00:0A:00:00:00:00;1725322311;03/09/24;00:11:51;1.029;-0.228;-0.052;0.08185594528913498;-0.12950342893600464;0.3176499307155609
01:00:0A:00:00:00:00;1725322312;03/09/24;00:11:52;1.031;0.149;0.119;0.3384193480014801;0.2028072476387024;-0.3836233615875244
01:00:0A:00:00:00:00;1725322313;03/09/24;00:11:53;1.017;-0.142;0.07;0.1160643920302391;0.09407324343919754;0.38117989897727966
01:00:0A:00:00:00:00;1725322314;03/09/24;00:11:54;1.007;0.0;0.053;0.2174680233001709;-0.040317103266716;-0.2724458873271942
01:00:0A:00:00:00:00;1725322315;03/09/24;00:11:55;0.938;-0.034;0.026;0.08918632566928864;0.036651913076639175;0.2174680233001709
01:00:0A:00:00:00:00;1725322316;03/09/24;00:11:56;0.935;-0.024;0.054;0.13805554807186127;-0.05742133408784866;-0.26511549949645996
01:00:0A:00:00:00:00;1725322317;03/09/24;00:11:57;0.966;-0.037;0.039;-0.03787364438176155;-0.09040805697441101;0.24190263450145721
01:00:0A:00:00:00:00;1725322318;03/09/24;00:11:58;1.02;-0.15;0.067;0.13316862285137177;-0.04886921867728233;-0.4043927788734436
01:00:0A:00:00:00:00;1725322319;03/09/24;00:11:59;1.021;0.127;0.08;-0.14538592100143433;-0.010995574295520782;0.44348815083503723
01:00:0A:00:00:00:00;1725322320;03/09/24;00:12:00;1.012;-0.269;0.111;0.0;-0.014660765416920185;-0.08429940044879913
01:00:0A:00:00:00:00;1725322321;03/09/24;00:12:01;1.043;0.102;0.041;0.040317103266716;-0.11850785464048386;-0.09040805697441101
01:00:0A:00:00:00:00;1725322322;03/09/24;00:12:02;1.044;-0.041;0.041;-0.04153883829712868;-0.02076941914856434;0.19792033731937408
01:00:0A:00:00:00:00;1725322323;03/09/24;00:12:03;1.011;-0.11;0.14;0.0659734457731247;-0.08552113175392151;-0.03420845419168472
01:00:0A:00:00:00:00;1725322324;03/09/24;00:12:04;0.998;0.047;0.032;0.0757472887635231;-0.24678954482078552;-0.10262535512447357
01:00:0A:00:00:00:00;1725322325;03/09/24;00:12:05;1.016;-0.02;0.025;0.10384709388017654;0.12828169763088226;0.11239919811487198
01:00:0A:00:00:00:00;1725322326;03/09/24;00:12:06;1.022;-0.101;0.183;0.16859880089759827;-0.20891590416431427;-0.18570303916931152
01:00:0A:00:00:00:00;1725322327;03/09/24;00:12:07;1.065;0.019;-0.058;0.1563815027475357;-0.11728612333536148;-0.009773843921720982
01:00:0A:00:00:00:00;1725322328;03/09/24;00:12:08;1.039;-0.08;0.26;0.12095131725072861;0.16371189057826996;0.09651670604944229
01:00:0A:00:00:00:00;1725322329;03/09/24;00:12:09;1.013;-0.001;0.014;0.05864306166768074;-0.19303341209888458;-0.02932153083384037
01:00:0A:00:00:00:00;1725322330;03/09/24;00:12:10;0.974;-0.013;0.117;0.13805554807186127;0.375071257352829;0.01710422709584236
01:00:0A:00:00:00:00;1725322331;03/09/24;00:12:11;0.974;-0.025;0.092;0.030543262138962746;-0.19914205372333527;-0.09162978082895279
01:00:0A:00:00:00:00;1725322332;03/09/24;00:12:12;1.003;-0.041;-0.001;0.06719517707824707;0.09773843735456467;-0.04153883829712868
01:00:0A:00:00:00:00;1725322333;03/09/24;00:12:13;1.02;-0.075;0.149;0.028099799528717995;-0.018325956538319588;0.08307767659425735
01:00:0A:00:00:00:00;1725322334;03/09/24;00:12:14;1.025;-0.049;0.095;-0.006108652334660292;-0.10506881773471832;0.10018189996480942
01:00:0A:00:00:00:00;1725322335;03/09/24;00:12:15;1.017;0.0;0.055;0.042760565876960754;0.051312677562236786;0.13072516024112701
01:00:0A:00:00:00:00;1725322336;03/09/24;00:12:16;1.007;0.021;0.104;0.05497787147760391;0.024434609338641167;0.018325956538319588
01:00:0A:00:00:00:00;1725322337;03/09/24;00:12:17;1.005;0.026;0.058;0.045204028487205505;-0.13316862285137177;-0.10262535512447357
01:00:0A:00:00:00:00;1725322338;03/09/24;00:12:18;0.991;0.007;0.065;0.06108652427792549;-0.045204028487205505;-0.1417207270860672
01:00:0A:00:00:00:00;1725322339;03/09/24;00:12:19;0.985;-0.022;0.112;0.012217304669320583;-0.10995574295520782;-0.09407324343919754
01:00:0A:00:00:00:00;1725322340;03/09/24;00:12:20;1.023;-0.055;0.098;-0.006108652334660292;-0.06230825558304787;-0.04764748737215996
01:00:0A:00:00:00:00;1725322341;03/09/24;00:12:21;1.066;-0.014;0.078;-0.00855211354792118;0.0659734457731247;0.02076941914856434
01:00:0A:00:00:00:00;1725322342;03/09/24;00:12:22;1.108;-0.053;0.148;-0.0354301817715168;0.024434609338641167;0.02321287989616394
01:00:0A:00:00:00:00;1725322343;03/09/24;00:12:23;1.07;0.05;-0.11;-0.0012217304902151227;-0.1966986060142517;-0.051312677562236786
01:00:0A:00:00:00:00;1725322344;03/09/24;00:12:24;0.93;-0.184;0.416;-0.009773843921720982;0.8686503767967224;0.445931613445282
01:00:0A:00:00:00:00;1725322345;03/09/24;00:12:25;0.897;0.163;-0.262;-0.039095375686883926;-1.1484266519546509;-0.5949827432632446
01:00:0A:00:00:00:00;1725322346;03/09/24;00:12:26;0.961;-0.082;0.227;0.02687807008624077;1.1386528015136719;0.6499606370925903
01:00:0A:00:00:00:00;1725322347;03/09/24;00:12:27;0.955;-0.039;0.097;-0.02321287989616394;-0.5461135506629944;-0.3298672139644623
01:00:0A:00:00:00:00;1725322348;03/09/24;00:12:28;0.956;0.058;-0.048;0.028099799528717995;0.16982054710388184;-0.019547687843441963
01:00:0A:00:00:00:00;1725322349;03/09/24;00:12:29;1.019;-0.056;0.142;-0.03176499158143997;-0.05009094998240471;0.05497787147760391
01:00:0A:00:00:00:00;1725322350;03/09/24;00:12:30;1.055;-0.096;0.101;0.00855211354792118;-0.12461651116609573;-0.14782939851284027
01:00:0A:00:00:00:00;1725322351;03/09/24;00:12:31;1.055;0.115;-0.009;-0.03298672288656235;0.08674286305904388;0.07452555745840073
01:00:0A:00:00:00:00;1725322352;03/09/24;00:12:32;1.007;-0.142;0.151;-0.059864792972803116;0.14294245839118958;0.31154125928878784
01:00:0A:00:00:00:00;1725322353;03/09/24;00:12:33;1.002;0.063;0.003;0.05497787147760391;-0.21624629199504852;-0.3237585723400116
01:00:0A:00:00:00:00;1725322354;03/09/24;00:12:34;0.997;0.02;0.069;-0.05009094998240471;0.08185594528913498;0.2076941877603531
01:00:0A:00:00:00:00;1725322355;03/09/24;00:12:35;0.999;-0.142;0.137;0.03298672288656235;-0.10506881773471832;-0.05253440886735916
01:00:0A:00:00:00:00;1725322356;03/09/24;00:12:36;1.022;0.045;0.047;0.09162978082895279;-0.09407324343919754;-0.15882496535778046
01:00:0A:00:00:00:00;1725322357;03/09/24;00:12:37;1.016;0.004;0.09;0.019547687843441963;0.09896016865968704;0.161268413066864
01:00:0A:00:00:00:00;1725322358;03/09/24;00:12:38;0.98;-0.058;0.107;0.05864306166768074;-0.02932153083384037;-0.03420845419168472
01:00:0A:00:00:00:00;1725322359;03/09/24;00:12:39;0.987;0.001;0.073;0.08796459436416626;-0.08185594528913498;-0.1869247555732727
01:00:0A:00:00:00:00;1725322360;03/09/24;00:12:40;1.012;-0.008;0.081;0.009773843921720982;0.05375614017248154;0.09285151958465576
01:00:0A:00:00:00:00;1725322361;03/09/24;00:12:41;1.026;-0.138;0.13;0.0659734457731247;-0.03298672288656235;-0.05009094998240471
01:00:0A:00:00:00:00;1725322362;03/09/24;00:12:42;1.034;0.034;0.051;0.07819075137376785;-0.02687807008624077;-0.06963863223791122
01:00:0A:00:00:00:00;1725322363;03/09/24;00:12:43;1.001;-0.05;0.071;0.03787364438176155;0.06841690838336945;0.16493360698223114
01:00:0A:00:00:00:00;1725322364;03/09/24;00:12:44;0.977;-0.035;0.073;0.1160643920302391;-0.07330382615327835;-0.11850785464048386
01:00:0A:00:00:00:00;1725322365;03/09/24;00:12:45;0.985;-0.013;0.047;0.09773843735456467;-0.025656338781118393;0.013439035043120384
01:00:0A:00:00:00:00;1725322366;03/09/24;00:12:46;1.006;-0.074;0.085;0.1258382350206375;-0.018325956538319588;-0.039095375686883926
01:00:0A:00:00:00:00;1725322367;03/09/24;00:12:47;1.035;-0.055;0.097;0.12828169763088226;-0.05253440886735916;-0.009773843921720982
01:00:0A:00:00:00:00;1725322368;03/09/24;00:12:48;1.034;-0.022;0.053;0.10873401165008545;0.014660765416920185;0.10751228034496307
01:00:0A:00:00:00:00;1725322369;03/09/24;00:12:49;1.017;-0.057;0.087;0.12095131725072861;0.045204028487205505;0.09773843735456467
01:00:0A:00:00:00:00;1725322370;03/09/24;00:12:50;1.011;-0.023;0.056;0.11728612333536148;-0.10384709388017654;0.015882495790719986
01:00:0A:00:00:00:00;1725322371;03/09/24;00:12:51;1.016;-0.02;0.025;0.1258382350206375;-0.08796459436416626;0.015882495790719986
01:00:0A:00:00:00:00;1725322372;03/09/24;00:12:52;1.031;-0.054;0.127;0.1319468915462494;-0.1014036238193512;0.03176499158143997
01:00:0A:00:00:00:00;1725322373;03/09/24;00:12:53;1.03;-0.018;0.122;0.11850785464048386;-0.1014036238193512;0.013439035043120384
01:00:0A:00:00:00:00;1725322374;03/09/24;00:12:54;1.014;-0.003;0.116;0.11239919811487198;0.024434609338641167;0.024434609338641167
01:00:0A:00:00:00:00;1725322375;03/09/24;00:12:55;1.011;-0.022;0.125;0.11484266817569733;0.045204028487205505;-0.01710422709584236
01:00:0A:00:00:00:00;1725322376;03/09/24;00:12:56;1.026;-0.037;0.081;0.12095131725072861;0.0;-0.04153883829712868
01:00:0A:00:00:00:00;1725322377;03/09/24;00:12:57;1.031;-0.046;0.057;0.13316862285137177;0.02076941914856434;0.018325956538319588
01:00:0A:00:00:00:00;1725322378;03/09/24;00:12:58;1.012;-0.04;0.091;0.1319468915462494;0.04153883829712868;0.04764748737215996
01:00:0A:00:00:00:00;1725322379;03/09/24;00:12:59;0.962;-0.012;0.074;0.1160643920302391;-0.045204028487205505;-0.021991148591041565
01:00:0A:00:00:00:00;1725322380;03/09/24;00:13:00;0.952;-0.025;0.072;0.1014036238193512;-0.0024434609804302454;-0.015882495790719986
01:00:0A:00:00:00:00;1725322381;03/09/24;00:13:01;1.002;-0.051;0.081;0.08796459436416626;-0.05864306166768074;-0.05253440886735916
01:00:0A:00:00:00:00;1725322382;03/09/24;00:13:02;1.04;-0.056;0.06;0.06841690838336945;-0.03176499158143997;0.05253440886735916
01:00:0A:00:00:00:00;1725322383;03/09/24;00:13:03;1.067;-0.056;0.106;0.06475171446800232;-0.03420845419168472;0.06108652427792549
01:00:0A:00:00:00:00;1725322384;03/09/24;00:13:04;1.057;-0.003;0.082;0.04764748737215996;0.0036651913542300463;0.051312677562236786
01:00:0A:00:00:00:00;1725322385;03/09/24;00:13:05;1.005;-0.019;0.079;0.04886921867728233;0.04398229718208313;0.03787364438176155
01:00:0A:00:00:00:00;1725322386;03/09/24;00:13:06;0.98;-0.032;0.071;0.07208210229873657;-0.03176499158143997;-0.09162978082895279
01:00:0A:00:00:00:00;1725322387;03/09/24;00:13:07;0.999;-0.038;0.075;0.0659734457731247;-0.028099799528717995;-0.015882495790719986
01:00:0A:00:00:00:00;1725322388;03/09/24;00:13:08;1.02;-0.071;0.113;0.06841690838336945;-0.03787364438176155;0.024434609338641167
01:00:0A:00:00:00:00;1725322389;03/09/24;00:13:09;1.024;-0.01;0.112;0.059864792972803116;-0.014660765416920185;0.051312677562236786
01:00:0A:00:00:00:00;1725322390;03/09/24;00:13:10;1.013;0.0;0.09;0.05497787147760391;0.014660765416920185;0.03176499158143997
01:00:0A:00:00:00:00;1725322391;03/09/24;00:13:11;1.008;-0.009;0.102;0.08185594528913498;0.021991148591041565;-0.04764748737215996
01:00:0A:00:00:00:00;1725322392;03/09/24;00:13:12;1.012;-0.034;0.092;0.08552113175392151;-0.004886921960860491;-0.07452555745840073
01:00:0A:00:00:00:00;1725322393;03/09/24;00:13:13;1.024;-0.063;0.081;0.08552113175392151;0.02076941914856434;-0.021991148591041565
01:00:0A:00:00:00:00;1725322394;03/09/24;00:13:14;1.012;-0.072;0.094;0.09529497474431992;0.05253440886735916;0.05375614017248154
01:00:0A:00:00:00:00;1725322395;03/09/24;00:13:15;0.981;-0.036;0.067;0.09285151958465576;-0.025656338781118393;0.04764748737215996
01:00:0A:00:00:00:00;1725322396;03/09/24;00:13:16;0.972;-0.023;0.047;0.10506881773471832;-0.01710422709584236;0.06352998316287994
01:00:0A:00:00:00:00;1725322397;03/09/24;00:13:17;1.01;-0.024;0.06;0.12828169763088226;-0.08429940044879913;-0.030543262138962746
01:00:0A:00:00:00:00;1725322398;03/09/24;00:13:18;1.045;-0.024;0.058;0.1160643920302391;-0.11850785464048386;0.013439035043120384
01:00:0A:00:00:00:00;1725322399;03/09/24;00:13:19;1.074;-0.051;0.091;0.12461651116609573;-0.039095375686883926;0.030543262138962746
01:00:0A:00:00:00:00;1725322400;03/09/24;00:13:20;1.061;0.0;0.11;0.1014036238193512;-0.0036651913542300463;0.051312677562236786
01:00:0A:00:00:00:00;1725322401;03/09/24;00:13:21;1.005;-0.02;0.086;0.08552113175392151;0.04153883829712868;0.07452555745840073
01:00:0A:00:00:00:00;1725322402;03/09/24;00:13:22;0.974;0.004;0.08;0.11484266817569733;0.042760565876960754;-0.07452555745840073
01:00:0A:00:00:00:00;1725322403;03/09/24;00:13:23;0.986;-0.004;0.072;0.05009094998240471;-0.04764748737215996;0.018325956538319588
01:00:0A:00:00:00:00;1725322404;03/09/24;00:13:24;1.034;-0.063;0.082;0.07941248267889023;-0.05009094998240471;-0.06841690838336945
01:00:0A:00:00:00:00;1725322405;03/09/24;00:13:25;1.051;0.0;0.107;0.04886921867728233;-0.004886921960860491;-0.0012217304902151227
01:00:0A:00:00:00:00;1725322406;03/09/24;00:13:26;1.024;-0.061;0.087;0.02687807008624077;0.02687807008624077;0.09896016865968704
01:00:0A:00:00:00:00;1725322407;03/09/24;00:13:27;0.987;-0.014;0.081;0.06475171446800232;0.04642575979232788;-0.02687807008624077
01:00:0A:00:00:00:00;1725322408;03/09/24;00:13:28;0.967;-0.019;0.069;0.014660765416920185;-0.0012217304902151227;0.080634206533432
01:00:0A:00:00:00:00;1725322409;03/09/24;00:13:29;0.987;-0.047;0.066;0.051312677562236786;-0.028099799528717995;-0.05742133408784866
01:00:0A:00:00:00:00;1725322410;03/09/24;00:13:30;1.036;-0.003;0.077;0.024434609338641167;-0.04764748737215996;0.03176499158143997
01:00:0A:00:00:00:00;1725322411;03/09/24;00:13:31;1.047;-0.053;0.086;0.03420845419168472;-0.04153883829712868;0.014660765416920185
01:00:0A:00:00:00:00;1725322412;03/09/24;00:13:32;1.045;-0.024;0.095;0.05009094998240471;-0.02076941914856434;-0.009773843921720982
01:00:0A:00:00:00:00;1725322413;03/09/24;00:13:33;1.016;-0.016;0.093;0.030543262138962746;0.01710422709584236;0.024434609338641167
01:00:0A:00:00:00:00;1725322414;03/09/24;00:13:34;1.007;-0.043;0.094;0.03176499158143997;-0.0024434609804302454;0.018325956538319588
01:00:0A:00:00:00:00;1725322415;03/09/24;00:13:35;1.001;-0.028;0.096;0.04642575979232788;-0.013439035043120384;-0.05497787147760391
01:00:0A:00:00:00:00;1725322416;03/09/24;00:13:36;1.003;-0.024;0.099;0.02321287989616394;0.010995574295520782;0.006108652334660292
01:00:0A:00:00:00:00;1725322417;03/09/24;00:13:37;1.003;-0.045;0.096;0.028099799528717995;0.03420845419168472;-0.0073303827084600925
01:00:0A:00:00:00:00;1725322418;03/09/24;00:13:38;1.003;-0.021;0.082;0.040317103266716;0.02687807008624077;-0.040317103266716
01:00:0A:00:00:00:00;1725322419;03/09/24;00:13:39;1.006;-0.021;0.059;0.021991148591041565;0.009773843921720982;0.0073303827084600925
01:00:0A:00:00:00:00;1725322420;03/09/24;00:13:40;1.002;-0.04;0.057;0.025656338781118393;-0.006108652334660292;0.0073303827084600925
01:00:0A:00:00:00:00;1725322421;03/09/24;00:13:41;0.999;-0.029;0.06;0.039095375686883926;-0.07330382615327835;-0.03420845419168472
01:00:0A:00:00:00:00;1725322422;03/09/24;00:13:42;1.01;-0.017;0.079;0.02687807008624077;-0.05619959905743599;0.01710422709584236
01:00:0A:00:00:00:00;1725322423;03/09/24;00:13:43;1.018;-0.035;0.093;0.03298672288656235;-0.04886921867728233;-0.009773843921720982
01:00:0A:00:00:00:00;1725322424;03/09/24;00:13:44;1.044;-0.021;0.09;0.04153883829712868;-0.0354301817715168;-0.028099799528717995
01:00:0A:00:00:00:00;1725322425;03/09/24;00:13:45;1.055;-0.02;0.085;0.0354301817715168;-0.012217304669320583;0.012217304669320583
01:00:0A:00:00:00:00;1725322426;03/09/24;00:13:46;1.048;-0.044;0.107;0.03787364438176155;0.025656338781118393;0.021991148591041565
01:00:0A:00:00:00:00;1725322427;03/09/24;00:13:47;1.025;-0.018;0.084;0.036651913076639175;0.0073303827084600925;0.0073303827084600925
01:00:0A:00:00:00:00;1725322428;03/09/24;00:13:48;0.974;-0.022;0.091;0.024434609338641167;0.05009094998240471;0.039095375686883926
01:00:0A:00:00:00:00;1725322429;03/09/24;00:13:49;0.965;-0.017;0.081;0.019547687843441963;-0.042760565876960754;-0.03420845419168472
01:00:0A:00:00:00:00;1725322430;03/09/24;00:13:50;0.992;-0.016;0.073;0.010995574295520782;-0.0036651913542300463;-0.02687807008624077
01:00:0A:00:00:00:00;1725322431;03/09/24;00:13:51;1.032;-0.036;0.089;-0.0036651913542300463;-0.030543262138962746;-0.02932153083384037
01:00:0A:00:00:00:00;1725322432;03/09/24;00:13:52;1.039;-0.039;0.084;-0.010995574295520782;-0.012217304669320583;-0.02687807008624077
01:00:0A:00:00:00:00;1725322433;03/09/24;00:13:53;1.038;-0.042;0.075;-0.018325956538319588;0.02076941914856434;0.018325956538319588
01:00:0A:00:00:00:00;1725322434;03/09/24;00:13:54;1.023;-0.042;0.076;-0.025656338781118393;0.0073303827084600925;0.036651913076639175
01:00:0A:00:00:00:00;1725322435;03/09/24;00:13:55;1.001;-0.029;0.064;-0.025656338781118393;-0.05375614017248154;0.021991148591041565
01:00:0A:00:00:00:00;1725322436;03/09/24;00:13:56;0.994;-0.023;0.076;-0.021991148591041565;-0.05009094998240471;0.014660765416920185
01:00:0A:00:00:00:00;1725322437;03/09/24;00:13:57;0.999;-0.024;0.099;-0.018325956538319588;-0.06963863223791122;-0.013439035043120384
01:00:0A:00:00:00:00;1725322438;03/09/24;00:13:58;1.024;-0.027;0.107;-0.00855211354792118;0.0;-0.01710422709584236
01:00:0A:00:00:00:00;1725322439;03/09/24;00:13:59;1.032;-0.031;0.096;0.006108652334660292;0.03298672288656235;-0.018325956538319588
01:00:0A:00:00:00:00;1725322440;03/09/24;00:14:00;1.034;-0.038;0.08;0.010995574295520782;0.036651913076639175;0.0
01:00:0A:00:00:00:00;1725322441;03/09/24;00:14:01;1.023;-0.04;0.071;0.009773843921720982;0.02321287989616394;0.0354301817715168
01:00:0A:00:00:00:00;1725322442;03/09/24;00:14:02;1.003;-0.031;0.067;0.014660765416920185;-0.00855211354792118;0.02932153083384037
01:00:0A:00:00:00:00;1725322443;03/09/24;00:14:03;0.996;-0.027;0.083;0.014660765416920185;-0.013439035043120384;0.030543262138962746
01:00:0A:00:00:00:00;1725322444;03/09/24;00:14:04;0.996;-0.02;0.091;0.014660765416920185;-0.014660765416920185;0.013439035043120384
01:00:0A:00:00:00:00;1725322445;03/09/24;00:14:05;1.005;-0.02;0.092;0.018325956538319588;-0.004886921960860491;-0.0036651913542300463
01:00:0A:00:00:00:00;1725322446;03/09/24;00:14:06;1.019;-0.023;0.082;0.018325956538319588;0.0024434609804302454;-0.006108652334660292
01:00:0A:00:00:00:00;1725322447;03/09/24;00:14:07;1.02;-0.027;0.073;0.015882495790719986;-0.021991148591041565;-0.0024434609804302454
01:00:0A:00:00:00:00;1725322448;03/09/24;00:14:08;1.014;-0.028;0.074;0.015882495790719986;-0.03787364438176155;0.0073303827084600925
01:00:0A:00:00:00:00;1725322449;03/09/24;00:14:09;1.009;-0.023;0.088;0.01710422709584236;-0.04153883829712868;0.0024434609804302454
01:00:0A:00:00:00:00;1725322450;03/09/24;00:14:10;1.01;-0.027;0.102;0.021991148591041565;-0.03420845419168472;0.0
01:00:0A:00:00:00:00;1725322451;03/09/24;00:14:11;1.022;-0.023;0.101;0.03298672288656235;0.02321287989616394;-0.01710422709584236
01:00:0A:00:00:00:00;1725322452;03/09/24;00:14:12;1.028;-0.024;0.093;0.036651913076639175;0.036651913076639175;-0.018325956538319588
01:00:0A:00:00:00:00;1725322453;03/09/24;00:14:13;1.031;-0.039;0.074;0.040317103266716;0.014660765416920185;-0.021991148591041565
01:00:0A:00:00:00:00;1725322454;03/09/24;00:14:14;1.025;-0.045;0.076;0.040317103266716;-0.0073303827084600925;-0.013439035043120384
01:00:0A:00:00:00:00;1725322455;03/09/24;00:14:15;1.014;-0.045;0.083;0.024434609338641167;-0.019547687843441963;0.04153883829712868
01:00:0A:00:00:00:00;1725322456;03/09/24;00:14:16;1.013;-0.04;0.085;0.018325956538319588;-0.021991148591041565;0.045204028487205505
01:00:0A:00:00:00:00;1725322457;03/09/24;00:14:17;1.01;-0.023;0.09;0.019547687843441963;0.0012217304902151227;0.03176499158143997
01:00:0A:00:00:00:00;1725322458;03/09/24;00:14:18;1.007;-0.018;0.079;0.01710422709584236;0.0024434609804302454;0.014660765416920185
01:00:0A:00:00:00:00;1725322459;03/09/24;00:14:19;1.003;-0.021;0.073;0.021991148591041565;-0.0073303827084600925;-0.0073303827084600925
01:00:0A:00:00:00:00;1725322460;03/09/24;00:14:20;1.008;-0.018;0.075;0.021991148591041565;-0.02076941914856434;-0.01710422709584236
01:00:0A:00:00:00:00;1725322461;03/09/24;00:14:21;1.016;-0.02;0.082;0.01710422709584236;-0.04642575979232788;-0.02076941914856434
01:00:0A:00:00:00:00;1725322462;03/09/24;00:14:22;1.028;-0.038;0.092;0.02076941914856434;-0.021991148591041565;-0.004886921960860491
01:00:0A:00:00:00:00;1725322463;03/09/24;00:14:23;1.026;-0.029;0.094;0.024434609338641167;-0.0024434609804302454;0.0012217304902151227
01:00:0A:00:00:00:00;1725322464;03/09/24;00:14:24;1.011;-0.035;0.093;0.01710422709584236;0.014660765416920185;0.028099799528717995
01:00:0A:00:00:00:00;1725322465;03/09/24;00:14:25;0.998;-0.034;0.092;0.01710422709584236;-0.00855211354792118;0.014660765416920185
01:00:0A:00:00:00:00;1725322466;03/09/24;00:14:26;0.992;-0.027;0.09;0.013439035043120384;-0.028099799528717995;0.0012217304902151227
01:00:0A:00:00:00:00;1725322467;03/09/24;00:14:27;1.018;-0.026;0.095;0.010995574295520782;-0.013439035043120384;0.0024434609804302454
01:00:0A:00:00:00:00;1725322468;03/09/24;00:14:28;1.035;-0.036;0.095;0.019547687843441963;0.004886921960860491;-0.013439035043120384
01:00:0A:00:00:00:00;1725322469;03/09/24;00:14:29;1.044;-0.026;0.082;0.015882495790719986;0.015882495790719986;-0.0024434609804302454
01:00:0A:00:00:00:00;1725322470;03/09/24;00:14:30;1.036;-0.037;0.072;0.012217304669320583;0.02076941914856434;0.019547687843441963
01:00:0A:00:00:00:00;1725322471;03/09/24;00:14:31;1.004;-0.037;0.066;0.015882495790719986;-0.0024434609804302454;0.028099799528717995
01:00:0A:00:00:00:00;1725322472;03/09/24;00:14:32;0.992;-0.027;0.068;0.01710422709584236;-0.030543262138962746;0.01710422709584236
01:00:0A:00:00:00:00;1725322473;03/09/24;00:14:33;0.992;-0.028;0.079;0.015882495790719986;-0.04764748737215996;0.015882495790719986
01:00:0A:00:00:00:00;1725322474;03/09/24;00:14:34;1.004;-0.029;0.092;0.024434609338641167;-0.04642575979232788;-0.006108652334660292
01:00:0A:00:00:00:00;1725322475;03/09/24;00:14:35;1.023;-0.023;0.098;0.028099799528717995;-0.019547687843441963;-0.018325956538319588
01:00:0A:00:00:00:00;1725322476;03/09/24;00:14:36;1.032;-0.03;0.086;0.030543262138962746;0.01710422709584236;-0.0036651913542300463
01:00:0A:00:00:00:00;1725322477;03/09/24;00:14:37;1.027;-0.034;0.087;0.0354301817715168;0.018325956538319588;-0.00855211354792118
01:00:0A:00:00:00:00;1725322478;03/09/24;00:14:38;1.018;-0.034;0.083;0.03176499158143997;-0.009773843921720982;0.0012217304902151227
01:00:0A:00:00:00:00;1725322479;03/09/24;00:14:39;1.013;-0.031;0.086;0.028099799528717995;-0.0036651913542300463;0.02687807008624077
01:00:0A:00:00:00:00;1725322480;03/09/24;00:14:40;0.999;-0.021;0.088;0.02932153083384037;0.0;0.0012217304902151227
01:00:0A:00:00:00:00;1725322481;03/09/24;00:14:41;0.991;-0.017;0.086;0.021991148591041565;-0.015882495790719986;-0.015882495790719986
01:00:0A:00:00:00:00;1725322482;03/09/24;00:14:42;0.999;-0.024;0.079;0.018325956538319588;-0.024434609338641167;-0.028099799528717995
01:00:0A:00:00:00:00;1725322483;03/09/24;00:14:43;1.012;-0.032;0.085;0.015882495790719986;-0.030543262138962746;-0.04398229718208313
01:00:0A:00:00:00:00;1725322484;03/09/24;00:14:44;1.033;-0.04;0.086;0.0012217304902151227;-0.015882495790719986;-0.0024434609804302454
01:00:0A:00:00:00:00;1725322485;03/09/24;00:14:45;1.038;-0.039;0.083;-0.009773843921720982;-0.0073303827084600925;0.04398229718208313
01:00:0A:00:00:00:00;1725322486;03/09/24;00:14:46;1.028;-0.035;0.09;-0.015882495790719986;-0.004886921960860491;0.051312677562236786
01:00:0A:00:00:00:00;1725322487;03/09/24;00:14:47;1.006;-0.009;0.085;-0.02076941914856434;0.0036651913542300463;0.024434609338641167
01:00:0A:00:00:00:00;1725322488;03/09/24;00:14:48;0.998;-0.013;0.084;-0.02687807008624077;0.0;0.015882495790719986
01:00:0A:00:00:00:00;1725322489;03/09/24;00:14:49;0.999;-0.015;0.085;-0.02321287989616394;-0.009773843921720982;-0.03176499158143997
01:00:0A:00:00:00:00;1725322490;03/09/24;00:14:50;1.011;-0.016;0.077;-0.02932153083384037;-0.013439035043120384;-0.03176499158143997
01:00:0A:00:00:00:00;1725322491;03/09/24;00:14:51;1.025;-0.037;0.077;-0.0354301817715168;-0.00855211354792118;-0.0073303827084600925
01:00:0A:00:00:00:00;1725322492;03/09/24;00:14:52;1.028;-0.044;0.082;-0.036651913076639175;-0.01710422709584236;-0.013439035043120384
01:00:0A:00:00:00:00;1725322493;03/09/24;00:14:53;1.022;-0.036;0.079;-0.04886921867728233;-0.024434609338641167;0.02076941914856434
01:00:0A:00:00:00:00;1725322494;03/09/24;00:14:54;1.01;-0.033;0.081;-0.05497787147760391;-0.012217304669320583;0.04642575979232788
01:00:0A:00:00:00:00;1725322495;03/09/24;00:14:55;1.003;-0.035;0.083;-0.04886921867728233;-0.02076941914856434;0.02076941914856434
01:00:0A:00:00:00:00;1725322496;03/09/24;00:14:56;1.0;-0.021;0.083;-0.04642575979232788;-0.0354301817715168;0.0012217304902151227
01:00:0A:00:00:00:00;1725322497;03/09/24;00:14:57;1.004;-0.026;0.084;-0.04886921867728233;-0.03298672288656235;0.010995574295520782
01:00:0A:00:00:00:00;1725322498;03/09/24;00:14:58;1.019;-0.035;0.1;-0.036651913076639175;-0.01710422709584236;-0.024434609338641167
01:00:0A:00:00:00:00;1725322499;03/09/24;00:14:59;1.028;-0.026;0.098;-0.0354301817715168;0.0;-0.015882495790719986
01:00:0A:00:00:00:00;1725322500;03/09/24;00:15:00;1.036;-0.037;0.088;-0.0354301817715168;0.028099799528717995;0.014660765416920185
01:00:0A:00:00:00:00;1725322501;03/09/24;00:15:01;1.019;-0.044;0.079;-0.02687807008624077;0.03787364438176155;0.024434609338641167
01:00:0A:00:00:00:00;1725322502;03/09/24;00:15:02;1.008;-0.026;0.069;-0.024434609338641167;0.010995574295520782;0.009773843921720982
01:00:0A:00:00:00:00;1725322503;03/09/24;00:15:03;0.986;-0.023;0.066;-0.030543262138962746;-0.018325956538319588;0.021991148591041565
01:00:0A:00:00:00:00;1725322504;03/09/24;00:15:04;0.982;-0.027;0.071;-0.019547687843441963;-0.03787364438176155;-0.013439035043120384
01:00:0A:00:00:00:00;1725322505;03/09/24;00:15:05;1.003;-0.022;0.079;-0.019547687843441963;-0.05497787147760391;-0.02321287989616394
01:00:0A:00:00:00:00;1725322506;03/09/24;00:15:06;1.021;-0.033;0.083;-0.021991148591041565;-0.045204028487205505;-0.00855211354792118
01:00:0A:00:00:00:00;1725322507;03/09/24;00:15:07;1.045;-0.045;0.091;-0.014660765416920185;-0.025656338781118393;0.006108652334660292
01:00:0A:00:00:00:00;1725322508;03/09/24;00:15:08;1.046;-0.027;0.09;-0.02321287989616394;-0.009773843921720982;0.02932153083384037
01:00:0A:00:00:00:00;1725322509;03/09/24;00:15:09;1.027;-0.032;0.091;-0.03298672288656235;0.014660765416920185;0.05619959905743599
01:00:0A:00:00:00:00;1725322510;03/09/24;00:15:10;1.01;-0.023;0.083;-0.025656338781118393;0.014660765416920185;0.02076941914856434
01:00:0A:00:00:00:00;1725322511;03/09/24;00:15:11;0.995;-0.014;0.08;-0.02687807008624077;-0.006108652334660292;-0.0024434609804302454
01:00:0A:00:00:00:00;1725322512;03/09/24;00:15:12;1.0;-0.029;0.081;-0.03298672288656235;-0.025656338781118393;-0.006108652334660292
01:00:0A:00:00:00:00;1725322513;03/09/24;00:15:13;1.008;-0.034;0.082;-0.02076941914856434;-0.028099799528717995;-0.02932153083384037
01:00:0A:00:00:00:00;1725322514;03/09/24;00:15:14;1.017;-0.028;0.088;-0.024434609338641167;-0.010995574295520782;-0.006108652334660292
01:00:0A:00:00:00:00;1725322515;03/09/24;00:15:15;1.015;-0.033;0.084;-0.028099799528717995;0.0;0.009773843921720982
