Source;Epoch timestamp (UTC);Date;Time (UTC);Accel X (G);Accel Y (G);Accel Z (G);Gyro X (rad/s);Gyro Y (rad/s);Gyro Z (rad/s)
01:00:0A:00:00:00:00;1727395187;26/09/24;23:59:47;1.029;0.002;0.07;-0.014660765416920185;0.014660765416920185;0.012217304669320583
01:00:0A:00:00:00:00;1727395188;26/09/24;23:59:48;1.031;-0.002;0.069;0.01710422709584236;-0.05375614017248154;-0.02321287989616394
01:00:0A:00:00:00:00;1727395189;26/09/24;23:59:49;1.048;0.014;0.04;0.02076941914856434;-0.014660765416920185;-0.06108652427792549
01:00:0A:00:00:00:00;1727395190;26/09/24;23:59:50;1.057;0.0;0.072;0.0012217304902151227;0.025656338781118393;-0.028099799528717995
01:00:0A:00:00:00:00;1727395191;26/09/24;23:59:51;1.039;-0.027;0.068;0.009773843921720982;-0.0012217304902151227;-0.013439035043120384
01:00:0A:00:00:00:00;1727395192;26/09/24;23:59:52;1.005;-0.007;0.048;0.006108652334660292;-0.0024434609804302454;0.0
01:00:0A:00:00:00:00;1727395193;26/09/24;23:59:53;0.997;0.0;0.063;-0.01710422709584236;0.028099799528717995;0.03420845419168472
01:00:0A:00:00:00:00;1727395194;26/09/24;23:59:54;1.0;0.001;0.063;-0.010995574295520782;-0.03298672288656235;0.0036651913542300463
01:00:0A:00:00:00:00;1727395195;26/09/24;23:59:55;1.011;0.028;0.049;-0.019547687843441963;-0.021991148591041565;-0.013439035043120384
01:00:0A:00:00:00:00;1727395196;26/09/24;23:59:56;1.013;0.008;0.067;-0.03176499158143997;0.012217304669320583;0.015882495790719986
01:00:0A:00:00:00:00;1727395197;26/09/24;23:59:57;1.01;-0.012;0.077;-0.0036651913542300463;-0.02932153083384037;0.006108652334660292
01:00:0A:00:00:00:00;1727395198;26/09/24;23:59:58;1.0;-0.001;0.057;0.019547687843441963;-0.040317103266716;-0.02321287989616394
01:00:0A:00:00:00:00;1727395199;26/09/24;23:59:59;0.999;-0.002;0.065;0.014660765416920185;-0.0036651913542300463;0.01710422709584236
01:00:0A:00:00:00:00;1727395200;27/09/24;00:00:00;1.001;-0.011;0.071;0.03298672288656235;-0.059864792972803116;-0.021991148591041565
01:00:0A:00:00:00:00;1727395201;27/09/24;00:00:01;1.022;0.011;0.061;0.02687807008624077;-0.040317103266716;0.0
01:00:0A:00:00:00:00;1727395202;27/09/24;00:00:02;1.038;0.008;0.066;0.013439035043120384;-0.0024434609804302454;0.0024434609804302454
01:00:0A:00:00:00:00;1727395203;27/09/24;00:00:03;1.05;-0.002;0.08;0.018325956538319588;0.028099799528717995;-0.018325956538319588
01:00:0A:00:00:00:00;1727395204;27/09/24;00:00:04;1.051;0.011;0.044;0.013439035043120384;0.018325956538319588;-0.019547687843441963
01:00:0A:00:00:00:00;1727395205;27/09/24;00:00:05;1.019;-0.013;0.046;0.0073303827084600925;0.02687807008624077;0.015882495790719986
01:00:0A:00:00:00:00;1727395206;27/09/24;00:00:06;0.996;-0.008;0.056;0.02321287989616394;-0.00855211354792118;-0.00855211354792118
01:00:0A:00:00:00:00;1727395207;27/09/24;00:00:07;0.979;0.001;0.054;0.02076941914856434;-0.05619959905743599;0.019547687843441963
01:00:0A:00:00:00:00;1727395208;27/09/24;00:00:08;0.993;0.002;0.065;0.013439035043120384;-0.014660765416920185;0.024434609338641167
01:00:0A:00:00:00:00;1727395209;27/09/24;00:00:09;1.004;0.003;0.074;0.024434609338641167;-0.030543262138962746;-0.019547687843441963
01:00:0A:00:00:00:00;1727395210;27/09/24;00:00:10;1.022;0.013;0.056;0.013439035043120384;-0.02932153083384037;0.0024434609804302454
01:00:0A:00:00:00:00;1727395211;27/09/24;00:00:11;1.025;0.0;0.06;0.004886921960860491;-0.0073303827084600925;0.01710422709584236
01:00:0A:00:00:00:00;1727395212;27/09/24;00:00:12;1.028;-0.002;0.079;0.021991148591041565;-0.01710422709584236;-0.02321287989616394
01:00:0A:00:00:00:00;1727395213;27/09/24;00:00:13;1.023;0.018;0.057;0.018325956538319588;-0.014660765416920185;-0.014660765416920185
01:00:0A:00:00:00:00;1727395214;27/09/24;00:00:14;1.016;0.001;0.054;0.00855211354792118;0.02321287989616394;0.010995574295520782
01:00:0A:00:00:00:00;1727395215;27/09/24;00:00:15;1.011;-0.007;0.06;0.024434609338641167;0.015882495790719986;-0.018325956538319588
01:00:0A:00:00:00:00;1727395216;27/09/24;00:00:16;1.003;0.001;0.04;0.025656338781118393;-0.030543262138962746;-0.006108652334660292
01:00:0A:00:00:00:00;1727395217;27/09/24;00:00:17;1.002;-0.002;0.048;0.013439035043120384;-0.0073303827084600925;0.02687807008624077
01:00:0A:00:00:00:00;1727395218;27/09/24;00:00:18;1.013;-0.006;0.073;0.02687807008624077;-0.04642575979232788;0.02321287989616394
01:00:0A:00:00:00:00;1727395219;27/09/24;00:00:19;1.027;0.012;0.069;0.0354301817715168;-0.03787364438176155;-0.0012217304902151227
01:00:0A:00:00:00:00;1727395220;27/09/24;00:00:20;1.033;0.01;0.066;0.024434609338641167;0.013439035043120384;0.00855211354792118
01:00:0A:00:00:00:00;1727395221;27/09/24;00:00:21;1.042;-0.005;0.074;0.02932153083384037;0.014660765416920185;-0.006108652334660292
01:00:0A:00:00:00:00;1727395222;27/09/24;00:00:22;1.04;0.003;0.054;0.03176499158143997;-0.0073303827084600925;-0.0073303827084600925
01:00:0A:00:00:00:00;1727395223;27/09/24;00:00:23;1.017;0.007;0.047;0.021991148591041565;0.012217304669320583;0.009773843921720982
01:00:0A:00:00:00:00;1727395224;27/09/24;00:00:24;1.004;0.002;0.058;0.02932153083384037;0.006108652334660292;0.0
01:00:0A:00:00:00:00;1727395225;27/09/24;00:00:25;0.996;0.009;0.06;0.03787364438176155;-0.036651913076639175;-0.019547687843441963
01:00:0A:00:00:00:00;1727395226;27/09/24;00:00:26;1.013;0.003;0.056;0.030543262138962746;-0.03298672288656235;0.0012217304902151227
01:00:0A:00:00:00:00;1727395227;27/09/24;00:00:27;1.026;-0.003;0.079;0.0354301817715168;-0.019547687843441963;-0.0036651913542300463
01:00:0A:00:00:00:00;1727395228;27/09/24;00:00:28;1.025;0.004;0.071;0.04153883829712868;0.014660765416920185;-0.013439035043120384
01:00:0A:00:00:00:00;1727395229;27/09/24;00:00:29;1.012;0.002;0.061;0.039095375686883926;0.028099799528717995;-0.0024434609804302454
01:00:0A:00:00:00:00;1727395230;27/09/24;00:00:30;1.0;-0.009;0.054;0.04642575979232788;0.021991148591041565;-0.0036651913542300463
01:00:0A:00:00:00:00;1727395231;27/09/24;00:00:31;1.002;-0.013;0.045;0.05742133408784866;-0.02321287989616394;0.0036651913542300463
01:00:0A:00:00:00:00;1727395232;27/09/24;00:00:32;1.016;-0.001;0.049;0.05742133408784866;-0.02687807008624077;0.0354301817715168
01:00:0A:00:00:00:00;1727395233;27/09/24;00:00:33;1.022;-0.001;0.064;0.0659734457731247;-0.03787364438176155;0.02687807008624077
01:00:0A:00:00:00:00;1727395234;27/09/24;00:00:34;1.024;0.013;0.065;0.07696902006864548;-0.028099799528717995;0.0024434609804302454
01:00:0A:00:00:00:00;1727395235;27/09/24;00:00:35;1.019;0.01;0.062;0.08185594528913498;-0.01710422709584236;-0.019547687843441963
01:00:0A:00:00:00:00;1727395236;27/09/24;00:00:36;1.016;0.001;0.079;0.08429940044879913;-0.014660765416920185;-0.006108652334660292
01:00:0A:00:00:00:00;1727395237;27/09/24;00:00:37;1.025;0.0;0.071;0.08796459436416626;-0.02321287989616394;-0.004886921960860491
01:00:0A:00:00:00:00;1727395238;27/09/24;00:00:38;1.034;0.004;0.065;0.08429940044879913;-0.0012217304902151227;0.006108652334660292
01:00:0A:00:00:00:00;1727395239;27/09/24;00:00:39;1.034;0.006;0.08;0.08429940044879913;0.004886921960860491;-0.0024434609804302454
01:00:0A:00:00:00:00;1727395240;27/09/24;00:00:40;1.034;0.006;0.071;0.09162978082895279;-0.019547687843441963;-0.00855211354792118
01:00:0A:00:00:00:00;1727395241;27/09/24;00:00:41;1.016;0.003;0.068;0.09773843735456467;0.01710422709584236;-0.02321287989616394
01:00:0A:00:00:00:00;1727395242;27/09/24;00:00:42;1.008;0.003;0.072;0.09529497474431992;0.02076941914856434;-0.00855211354792118
01:00:0A:00:00:00:00;1727395243;27/09/24;00:00:43;0.989;-0.002;0.058;0.09285151958465576;-0.010995574295520782;0.013439035043120384
01:00:0A:00:00:00:00;1727395244;27/09/24;00:00:44;0.991;-0.001;0.048;0.09407324343919754;-0.0012217304902151227;0.006108652334660292
01:00:0A:00:00:00:00;1727395245;27/09/24;00:00:45;1.002;0.004;0.055;0.09285151958465576;-0.02076941914856434;0.010995574295520782
01:00:0A:00:00:00:00;1727395246;27/09/24;00:00:46;1.023;0.001;0.059;0.09162978082895279;-0.051312677562236786;0.024434609338641167
01:00:0A:00:00:00:00;1727395247;27/09/24;00:00:47;1.032;-0.001;0.06;0.09773843735456467;-0.03420845419168472;0.004886921960860491
01:00:0A:00:00:00:00;1727395248;27/09/24;00:00:48;1.036;0.01;0.08;0.09285151958465576;-0.006108652334660292;0.0
01:00:0A:00:00:00:00;1727395249;27/09/24;00:00:49;1.033;0.004;0.071;0.08552113175392151;-0.010995574295520782;0.01710422709584236
01:00:0A:00:00:00:00;1727395250;27/09/24;00:00:50;1.021;0.0;0.071;0.09285151958465576;0.015882495790719986;-0.010995574295520782
01:00:0A:00:00:00:00;1727395251;27/09/24;00:00:51;1.016;0.008;0.074;0.09285151958465576;0.010995574295520782;-0.019547687843441963
01:00:0A:00:00:00:00;1727395252;27/09/24;00:00:52;1.01;-0.003;0.07;0.07941248267889023;0.0;0.02932153083384037
01:00:0A:00:00:00:00;1727395253;27/09/24;00:00:53;1.011;-0.007;0.059;0.08429940044879913;0.0;0.012217304669320583
01:00:0A:00:00:00:00;1727395254;27/09/24;00:00:54;1.014;0.01;0.058;0.07941248267889023;0.010995574295520782;0.00855211354792118
01:00:0A:00:00:00:00;1727395255;27/09/24;00:00:55;1.015;0.009;0.051;0.06352998316287994;-0.0012217304902151227;0.030543262138962746
01:00:0A:00:00:00:00;1727395256;27/09/24;00:00:56;1.013;-0.002;0.048;0.0708603635430336;-0.01710422709584236;0.004886921960860491
01:00:0A:00:00:00:00;1727395257;27/09/24;00:00:57;1.005;0.014;0.049;0.0708603635430336;-0.03176499158143997;-0.012217304669320583
01:00:0A:00:00:00:00;1727395258;27/09/24;00:00:58;1.003;0.008;0.056;0.05253440886735916;-0.03176499158143997;0.025656338781118393
01:00:0A:00:00:00:00;1727395259;27/09/24;00:00:59;1.016;-0.003;0.062;0.059864792972803116;-0.03420845419168472;-0.0036651913542300463
01:00:0A:00:00:00:00;1727395260;27/09/24;00:01:00;1.026;0.01;0.065;0.06230825558304787;-0.0354301817715168;-0.00855211354792118
01:00:0A:00:00:00:00;1727395261;27/09/24;00:01:01;1.043;0.011;0.068;0.04764748737215996;-0.0024434609804302454;0.009773843921720982
01:00:0A:00:00:00:00;1727395262;27/09/24;00:01:02;1.035;-0.008;0.07;0.05253440886735916;0.010995574295520782;0.0024434609804302454
01:00:0A:00:00:00:00;1727395263;27/09/24;00:01:03;1.019;0.008;0.067;0.06230825558304787;0.01710422709584236;-0.021991148591041565
01:00:0A:00:00:00:00;1727395264;27/09/24;00:01:04;0.994;0.003;0.058;0.04764748737215996;0.013439035043120384;0.02321287989616394
01:00:0A:00:00:00:00;1727395265;27/09/24;00:01:05;0.99;-0.009;0.058;0.05619959905743599;-0.0012217304902151227;0.006108652334660292
01:00:0A:00:00:00:00;1727395266;27/09/24;00:01:06;1.002;0.0;0.054;0.06841690838336945;-0.02932153083384037;-0.014660765416920185
01:00:0A:00:00:00:00;1727395267;27/09/24;00:01:07;1.014;0.007;0.055;0.05375614017248154;-0.025656338781118393;0.019547687843441963
01:00:0A:00:00:00:00;1727395268;27/09/24;00:01:08;1.03;-0.009;0.072;0.05619959905743599;-0.018325956538319588;0.010995574295520782
01:00:0A:00:00:00:00;1727395269;27/09/24;00:01:09;1.03;0.002;0.065;0.06108652427792549;-0.02321287989616394;-0.0012217304902151227
01:00:0A:00:00:00:00;1727395270;27/09/24;00:01:10;1.024;0.009;0.06;0.04398229718208313;0.0024434609804302454;0.03298672288656235
01:00:0A:00:00:00:00;1727395271;27/09/24;00:01:11;1.013;0.002;0.066;0.042760565876960754;-0.0024434609804302454;0.03176499158143997
01:00:0A:00:00:00:00;1727395272;27/09/24;00:01:12;1.011;0.013;0.06;0.051312677562236786;-0.024434609338641167;-0.0036651913542300463
01:00:0A:00:00:00:00;1727395273;27/09/24;00:01:13;1.013;0.022;0.057;0.03787364438176155;-0.00855211354792118;0.0024434609804302454
01:00:0A:00:00:00:00;1727395274;27/09/24;00:01:14;1.017;0.005;0.071;0.03787364438176155;-0.012217304669320583;-0.012217304669320583
01:00:0A:00:00:00:00;1727395275;27/09/24;00:01:15;1.03;-0.001;0.067;0.04398229718208313;-0.012217304669320583;-0.02932153083384037
01:00:0A:00:00:00:00;1727395276;27/09/24;00:01:16;1.034;0.005;0.055;0.028099799528717995;0.0073303827084600925;-0.00855211354792118
01:00:0A:00:00:00:00;1727395277;27/09/24;00:01:17;1.021;-0.012;0.07;0.018325956538319588;0.02321287989616394;0.02932153083384037
01:00:0A:00:00:00:00;1727395278;27/09/24;00:01:18;1.011;0.002;0.059;0.02932153083384037;-0.00855211354792118;0.0
01:00:0A:00:00:00:00;1727395279;27/09/24;00:01:19;0.994;0.013;0.055;0.01710422709584236;0.0012217304902151227;0.01710422709584236
01:00:0A:00:00:00:00;1727395280;27/09/24;00:01:20;0.997;0.007;0.068;0.012217304669320583;0.0012217304902151227;0.015882495790719986
01:00:0A:00:00:00:00;1727395281;27/09/24;00:01:21;1.01;0.005;0.062;0.024434609338641167;-0.04153883829712868;-0.01710422709584236
01:00:0A:00:00:00:00;1727395282;27/09/24;00:01:22;1.032;0.016;0.054;0.012217304669320583;-0.00855211354792118;-0.0036651913542300463
01:00:0A:00:00:00:00;1727395283;27/09/24;00:01:23;1.035;0.0;0.075;0.0073303827084600925;0.0036651913542300463;0.004886921960860491
01:00:0A:00:00:00:00;1727395284;27/09/24;00:01:24;1.03;0.0;0.072;0.015882495790719986;-0.014660765416920185;-0.00855211354792118
01:00:0A:00:00:00:00;1727395285;27/09/24;00:01:25;1.023;0.008;0.055;0.006108652334660292;0.010995574295520782;-0.0036651913542300463
01:00:0A:00:00:00:00;1727395286;27/09/24;00:01:26;1.007;-0.003;0.069;-0.0012217304902151227;0.03176499158143997;0.018325956538319588
01:00:0A:00:00:00:00;1727395287;27/09/24;00:01:27;1.003;0.0;0.06;0.012217304669320583;-0.015882495790719986;-0.0073303827084600925
01:00:0A:00:00:00:00;1727395288;27/09/24;00:01:28;1.0;0.011;0.043;0.006108652334660292;-0.025656338781118393;0.004886921960860491
01:00:0A:00:00:00:00;1727395289;27/09/24;00:01:29;1.005;0.005;0.06;-0.0024434609804302454;-0.018325956538319588;0.02076941914856434
01:00:0A:00:00:00:00;1727395290;27/09/24;00:01:30;1.006;0.003;0.064;0.009773843921720982;-0.06352998316287994;-0.010995574295520782
01:00:0A:00:00:00:00;1727395291;27/09/24;00:01:31;1.018;0.011;0.06;0.006108652334660292;-0.045204028487205505;-0.00855211354792118
01:00:0A:00:00:00:00;1727395292;27/09/24;00:01:32;1.025;0.003;0.071;-0.004886921960860491;-0.014660765416920185;0.0073303827084600925
01:00:0A:00:00:00:00;1727395293;27/09/24;00:01:33;1.033;-0.001;0.082;0.0012217304902151227;-0.018325956538319588;0.0012217304902151227
01:00:0A:00:00:00:00;1727395294;27/09/24;00:01:34;1.034;0.007;0.058;0.0;-0.010995574295520782;0.0036651913542300463
01:00:0A:00:00:00:00;1727395295;27/09/24;00:01:35;1.03;0.004;0.067;-0.006108652334660292;0.010995574295520782;0.014660765416920185
01:00:0A:00:00:00:00;1727395296;27/09/24;00:01:36;1.025;-0.001;0.074;0.0024434609804302454;-0.00855211354792118;-0.0036651913542300463
01:00:0A:00:00:00:00;1727395297;27/09/24;00:01:37;1.015;0.006;0.052;0.0036651913542300463;-0.013439035043120384;-0.012217304669320583
01:00:0A:00:00:00:00;1727395298;27/09/24;00:01:38;1.0;0.001;0.061;-0.004886921960860491;0.009773843921720982;0.010995574295520782
01:00:0A:00:00:00:00;1727395299;27/09/24;00:01:39;0.995;0.0;0.065;0.0012217304902151227;-0.019547687843441963;0.00855211354792118
01:00:0A:00:00:00:00;1727395300;27/09/24;00:01:40;1.001;0.009;0.053;0.0036651913542300463;-0.03787364438176155;0.0073303827084600925
01:00:0A:00:00:00:00;1727395301;27/09/24;00:01:41;1.006;0.007;0.056;-0.0036651913542300463;-0.015882495790719986;0.019547687843441963
01:00:0A:00:00:00:00;1727395302;27/09/24;00:01:42;1.025;0.002;0.071;0.006108652334660292;-0.03298672288656235;-0.00855211354792118
01:00:0A:00:00:00:00;1727395303;27/09/24;00:01:43;1.033;0.009;0.064;0.006108652334660292;-0.025656338781118393;-0.00855211354792118
01:00:0A:00:00:00:00;1727395304;27/09/24;00:01:44;1.035;0.002;0.062;0.0012217304902151227;-0.0024434609804302454;0.0024434609804302454
01:00:0A:00:00:00:00;1727395305;27/09/24;00:01:45;1.023;-0.003;0.075;0.004886921960860491;0.00855211354792118;0.004886921960860491
01:00:0A:00:00:00:00;1727395306;27/09/24;00:01:46;1.017;0.006;0.063;0.00855211354792118;-0.0024434609804302454;-0.004886921960860491
01:00:0A:00:00:00:00;1727395307;27/09/24;00:01:47;1.008;0.002;0.054;0.0036651913542300463;0.0036651913542300463;0.012217304669320583
01:00:0A:00:00:00:00;1727395308;27/09/24;00:01:48;1.005;-0.001;0.064;0.009773843921720982;0.0;0.0012217304902151227
01:00:0A:00:00:00:00;1727395309;27/09/24;00:01:49;1.01;0.001;0.059;0.014660765416920185;-0.030543262138962746;-0.0024434609804302454
01:00:0A:00:00:00:00;1727395310;27/09/24;00:01:50;1.014;0.004;0.054;0.00855211354792118;-0.02687807008624077;0.01710422709584236
01:00:0A:00:00:00:00;1727395311;27/09/24;00:01:51;1.017;0.004;0.065;0.013439035043120384;-0.02076941914856434;0.0
01:00:0A:00:00:00:00;1727395312;27/09/24;00:01:52;1.017;0.011;0.069;0.018325956538319588;-0.02321287989616394;-0.013439035043120384
01:00:0A:00:00:00:00;1727395313;27/09/24;00:01:53;1.016;0.005;0.064;0.013439035043120384;-0.0073303827084600925;-0.013439035043120384
01:00:0A:00:00:00:00;1727395314;27/09/24;00:01:54;1.011;-0.006;0.063;0.013439035043120384;-0.00855211354792118;-0.004886921960860491
01:00:0A:00:00:00:00;1727395315;27/09/24;00:01:55;1.014;0.0;0.063;0.01710422709584236;-0.024434609338641167;-0.00855211354792118
01:00:0A:00:00:00:00;1727395316;27/09/24;00:01:56;1.029;0.002;0.063;0.010995574295520782;-0.01710422709584236;0.014660765416920185
01:00:0A:00:00:00:00;1727395317;27/09/24;00:01:57;1.038;0.0;0.069;0.010995574295520782;-0.004886921960860491;0.013439035043120384
01:00:0A:00:00:00:00;1727395318;27/09/24;00:01:58;1.04;0.009;0.061;-0.025656338781118393;-0.00855211354792118;-0.0073303827084600925
01:00:0A:00:00:00:00;1727395319;27/09/24;00:01:59;1.027;0.004;0.062;-0.030543262138962746;0.02076941914856434;0.010995574295520782
01:00:0A:00:00:00:00;1727395320;27/09/24;00:02:00;0.995;-0.003;0.062;-0.02321287989616394;0.0;0.006108652334660292
01:00:0A:00:00:00:00;1727395321;27/09/24;00:02:01;0.985;0.005;0.056;-0.014660765416920185;-0.03420845419168472;-0.010995574295520782
01:00:0A:00:00:00:00;1727395322;27/09/24;00:02:02;0.997;0.007;0.059;-0.024434609338641167;-0.021991148591041565;0.014660765416920185
01:00:0A:00:00:00:00;1727395323;27/09/24;00:02:03;1.026;-0.002;0.067;-0.01710422709584236;-0.024434609338641167;-0.0073303827084600925
01:00:0A:00:00:00:00;1727395324;27/09/24;00:02:04;1.035;0.003;0.067;-0.013439035043120384;-0.013439035043120384;-0.010995574295520782
01:00:0A:00:00:00:00;1727395325;27/09/24;00:02:05;1.036;0.005;0.06;-0.02321287989616394;-0.004886921960860491;0.009773843921720982
01:00:0A:00:00:00:00;1727395326;27/09/24;00:02:06;1.027;-0.005;0.064;-0.019547687843441963;0.0012217304902151227;0.010995574295520782
01:00:0A:00:00:00:00;1727395327;27/09/24;00:02:07;1.011;0.008;0.064;-0.012217304669320583;-0.0073303827084600925;-0.012217304669320583
01:00:0A:00:00:00:00;1727395328;27/09/24;00:02:08;1.008;0.008;0.059;-0.018325956538319588;-0.004886921960860491;-0.0024434609804302454
01:00:0A:00:00:00:00;1727395329;27/09/24;00:02:09;1.004;-0.007;0.058;-0.01710422709584236;-0.0073303827084600925;0.0024434609804302454
01:00:0A:00:00:00:00;1727395330;27/09/24;00:02:10;1.011;-0.004;0.059;-0.0073303827084600925;-0.02076941914856434;-0.0036651913542300463
01:00:0A:00:00:00:00;1727395331;27/09/24;00:02:11;1.016;0.0;0.06;-0.012217304669320583;-0.02932153083384037;0.021991148591041565
01:00:0A:00:00:00:00;1727395332;27/09/24;00:02:12;1.022;0.0;0.065;-0.012217304669320583;-0.019547687843441963;0.021991148591041565
01:00:0A:00:00:00:00;1727395333;27/09/24;00:02:13;1.022;0.007;0.067;-0.0024434609804302454;-0.010995574295520782;-0.0036651913542300463
01:00:0A:00:00:00:00;1727395334;27/09/24;00:02:14;1.022;0.017;0.065;-0.0073303827084600925;0.0012217304902151227;-0.009773843921720982
01:00:0A:00:00:00:00;1727395335;27/09/24;00:02:15;1.017;0.002;0.062;-0.00855211354792118;-0.0024434609804302454;-0.009773843921720982
01:00:0A:00:00:00:00;1727395336;27/09/24;00:02:16;1.014;-0.002;0.059;-0.004886921960860491;-0.009773843921720982;-0.013439035043120384
01:00:0A:00:00:00:00;1727395337;27/09/24;00:02:17;1.016;0.005;0.06;-0.010995574295520782;-0.015882495790719986;0.006108652334660292
01:00:0A:00:00:00:00;1727395338;27/09/24;00:02:18;1.016;0.0;0.068;-0.013439035043120384;-0.014660765416920185;0.018325956538319588
01:00:0A:00:00:00:00;1727395339;27/09/24;00:02:19;1.015;0.003;0.068;-0.0036651913542300463;-0.010995574295520782;-0.0036651913542300463
01:00:0A:00:00:00:00;1727395340;27/09/24;00:02:20;1.013;0.009;0.064;-0.006108652334660292;-0.004886921960860491;0.0012217304902151227
01:00:0A:00:00:00:00;1727395341;27/09/24;00:02:21;1.007;0.0;0.06;-0.0073303827084600925;-0.010995574295520782;0.009773843921720982
01:00:0A:00:00:00:00;1727395342;27/09/24;00:02:22;1.008;0.001;0.06;0.0024434609804302454;-0.02321287989616394;-0.00855211354792118
01:00:0A:00:00:00:00;1727395343;27/09/24;00:02:23;1.014;0.009;0.062;-0.0036651913542300463;-0.02076941914856434;0.0073303827084600925
01:00:0A:00:00:00:00;1727395344;27/09/24;00:02:24;1.018;0.003;0.069;-0.006108652334660292;-0.025656338781118393;0.014660765416920185
01:00:0A:00:00:00:00;1727395345;27/09/24;00:02:25;1.024;0.001;0.07;-0.0012217304902151227;-0.012217304669320583;-0.0036651913542300463
01:00:0A:00:00:00:00;1727395346;27/09/24;00:02:26;1.02;0.012;0.064;-0.009773843921720982;0.0024434609804302454;0.0024434609804302454
01:00:0A:00:00:00:00;1727395347;27/09/24;00:02:27;1.014;0.002;0.065;-0.015882495790719986;0.0024434609804302454;0.0073303827084600925
01:00:0A:00:00:00:00;1727395348;27/09/24;00:02:28;1.009;0.0;0.06;-0.009773843921720982;-0.01710422709584236;-0.00855211354792118
01:00:0A:00:00:00:00;1727395349;27/09/24;00:02:29;1.01;0.008;0.06;-0.01710422709584236;-0.013439035043120384;0.004886921960860491
01:00:0A:00:00:00:00;1727395350;27/09/24;00:02:30;1.015;0.0;0.065;-0.02321287989616394;-0.012217304669320583;0.018325956538319588
01:00:0A:00:00:00:00;1727395351;27/09/24;00:02:31;1.016;0.001;0.066;-0.015882495790719986;-0.018325956538319588;-0.0036651913542300463
01:00:0A:00:00:00:00;1727395352;27/09/24;00:02:32;1.021;0.013;0.06;-0.02076941914856434;-0.0073303827084600925;0.004886921960860491
01:00:0A:00:00:00:00;1727395353;27/09/24;00:02:33;1.018;0.002;0.064;-0.02687807008624077;-0.00855211354792118;0.015882495790719986
01:00:0A:00:00:00:00;1727395354;27/09/24;00:02:34;1.018;0.002;0.065;-0.018325956538319588;-0.018325956538319588;-0.010995574295520782
01:00:0A:00:00:00:00;1727395355;27/09/24;00:02:35;1.017;0.013;0.062;-0.024434609338641167;-0.009773843921720982;-0.0036651913542300463
01:00:0A:00:00:00:00;1727395356;27/09/24;00:02:36;1.016;0.001;0.064;-0.02932153083384037;-0.0012217304902151227;0.006108652334660292
01:00:0A:00:00:00:00;1727395357;27/09/24;00:02:37;1.014;-0.003;0.06;-0.019547687843441963;-0.014660765416920185;-0.014660765416920185
01:00:0A:00:00:00:00;1727395358;27/09/24;00:02:38;1.014;0.007;0.055;-0.024434609338641167;-0.013439035043120384;-0.004886921960860491
01:00:0A:00:00:00:00;1727395359;27/09/24;00:02:39;1.014;-0.001;0.059;-0.03176499158143997;-0.018325956538319588;0.02321287989616394
01:00:0A:00:00:00:00;1727395360;27/09/24;00:02:40;1.013;-0.003;0.062;-0.02076941914856434;-0.025656338781118393;-0.0024434609804302454
01:00:0A:00:00:00:00;1727395361;27/09/24;00:02:41;1.014;0.011;0.064;-0.02321287989616394;-0.02076941914856434;0.0036651913542300463
01:00:0A:00:00:00:00;1727395362;27/09/24;00:02:42;1.016;0.002;0.067;-0.030543262138962746;-0.010995574295520782;0.021991148591041565
01:00:0A:00:00:00:00;1727395363;27/09/24;00:02:43;1.019;0.0;0.066;-0.018325956538319588;-0.010995574295520782;-0.00855211354792118
01:00:0A:00:00:00:00;1727395364;27/09/24;00:02:44;1.022;0.013;0.066;-0.02076941914856434;-0.012217304669320583;-0.0024434609804302454
01:00:0A:00:00:00:00;1727395365;27/09/24;00:02:45;1.023;0.0;0.065;-0.028099799528717995;-0.004886921960860491;0.012217304669320583
01:00:0A:00:00:00:00;1727395366;27/09/24;00:02:46;1.019;-0.004;0.067;-0.018325956538319588;-0.0024434609804302454;-0.004886921960860491
01:00:0A:00:00:00:00;1727395367;27/09/24;00:02:47;1.016;0.01;0.064;-0.019547687843441963;-0.0012217304902151227;-0.004886921960860491
01:00:0A:00:00:00:00;1727395368;27/09/24;00:02:48;1.015;0.001;0.061;-0.030543262138962746;-0.006108652334660292;0.025656338781118393
01:00:0A:00:00:00:00;1727395369;27/09/24;00:02:49;1.012;-0.004;0.059;-0.019547687843441963;-0.009773843921720982;0.0
01:00:0A:00:00:00:00;1727395370;27/09/24;00:02:50;1.01;0.011;0.061;-0.019547687843441963;-0.02321287989616394;-0.006108652334660292
01:00:0A:00:00:00:00;1727395371;27/09/24;00:02:51;1.011;0.004;0.062;-0.030543262138962746;-0.021991148591041565;0.021991148591041565
01:00:0A:00:00:00:00;1727395372;27/09/24;00:02:52;1.015;-0.003;0.065;-0.02076941914856434;-0.01710422709584236;-0.004886921960860491
01:00:0A:00:00:00:00;1727395373;27/09/24;00:02:53;1.022;0.011;0.068;-0.02076941914856434;-0.014660765416920185;-0.0036651913542300463
01:00:0A:00:00:00:00;1727395374;27/09/24;00:02:54;1.028;0.007;0.067;-0.03420845419168472;-0.0073303827084600925;0.018325956538319588
01:00:0A:00:00:00:00;1727395375;27/09/24;00:02:55;1.026;-0.003;0.064;-0.02687807008624077;0.0036651913542300463;0.0036651913542300463
01:00:0A:00:00:00:00;1727395376;27/09/24;00:02:56;1.018;0.012;0.064;-0.025656338781118393;0.00855211354792118;-0.013439035043120384
01:00:0A:00:00:00:00;1727395377;27/09/24;00:02:57;1.004;0.006;0.061;-0.03787364438176155;-0.00855211354792118;0.01710422709584236
01:00:0A:00:00:00:00;1727395378;27/09/24;00:02:58;0.998;-0.002;0.056;-0.02932153083384037;-0.012217304669320583;0.0
01:00:0A:00:00:00:00;1727395379;27/09/24;00:02:59;1.002;0.011;0.061;-0.025656338781118393;-0.021991148591041565;-0.009773843921720982
01:00:0A:00:00:00:00;1727395380;27/09/24;00:03:00;1.011;0.008;0.064;-0.03787364438176155;-0.0354301817715168;0.018325956538319588
01:00:0A:00:00:00:00;1727395381;27/09/24;00:03:01;1.024;-0.002;0.066;-0.030543262138962746;-0.02076941914856434;-0.006108652334660292
01:00:0A:00:00:00:00;1727395382;27/09/24;00:03:02;1.027;0.01;0.07;-0.028099799528717995;-0.004886921960860491;-0.013439035043120384
01:00:0A:00:00:00:00;1727395383;27/09/24;00:03:03;1.025;0.005;0.068;-0.036651913076639175;-0.006108652334660292;0.009773843921720982
01:00:0A:00:00:00:00;1727395384;27/09/24;00:03:04;1.017;-0.004;0.059;-0.03176499158143997;-0.0012217304902151227;0.004886921960860491
01:00:0A:00:00:00:00;1727395385;27/09/24;00:03:05;1.016;0.006;0.063;-0.024434609338641167;0.0012217304902151227;-0.013439035043120384
01:00:0A:00:00:00:00;1727395386;27/09/24;00:03:06;1.013;0.007;0.066;-0.03298672288656235;-0.018325956538319588;0.013439035043120384
01:00:0A:00:00:00:00;1727395387;27/09/24;00:03:07;1.011;-0.004;0.06;-0.02687807008624077;-0.015882495790719986;0.0036651913542300463
01:00:0A:00:00:00:00;1727395388;27/09/24;00:03:08;1.012;0.004;0.064;-0.02076941914856434;-0.0036651913542300463;-0.009773843921720982
01:00:0A:00:00:00:00;1727395389;27/09/24;00:03:09;1.015;0.007;0.063;-0.028099799528717995;-0.019547687843441963;0.010995574295520782
01:00:0A:00:00:00:00;1727395390;27/09/24;00:03:10;1.019;-0.002;0.055;-0.02321287989616394;-0.02321287989616394;0.0
01:00:0A:00:00:00:00;1727395391;27/09/24;00:03:11;1.02;0.005;0.063;-0.01710422709584236;-0.012217304669320583;-0.018325956538319588
01:00:0A:00:00:00:00;1727395392;27/09/24;00:03:12;1.021;0.005;0.068;-0.025656338781118393;-0.021991148591041565;0.004886921960860491
01:00:0A:00:00:00:00;1727395393;27/09/24;00:03:13;1.018;-0.004;0.06;-0.025656338781118393;-0.015882495790719986;0.012217304669320583
01:00:0A:00:00:00:00;1727395394;27/09/24;00:03:14;1.016;0.001;0.066;-0.02076941914856434;0.0036651913542300463;-0.006108652334660292
01:00:0A:00:00:00:00;1727395395;27/09/24;00:03:15;1.014;0.009;0.067;-0.028099799528717995;-0.00855211354792118;0.009773843921720982
01:00:0A:00:00:00:00;1727395396;27/09/24;00:03:16;1.013;-0.001;0.056;-0.02687807008624077;-0.012217304669320583;0.006108652334660292
01:00:0A:00:00:00:00;1727395397;27/09/24;00:03:17;1.011;0.001;0.059;-0.02076941914856434;-0.0036651913542300463;-0.012217304669320583
01:00:0A:00:00:00:00;1727395398;27/09/24;00:03:18;1.013;0.004;0.065;-0.02687807008624077;-0.015882495790719986;0.0036651913542300463
01:00:0A:00:00:00:00;1727395399;27/09/24;00:03:19;1.016;-0.003;0.057;-0.028099799528717995;-0.019547687843441963;0.010995574295520782
01:00:0A:00:00:00:00;1727395400;27/09/24;00:03:20;1.018;0.0;0.063;-0.021991148591041565;-0.004886921960860491;-0.006108652334660292
01:00:0A:00:00:00:00;1727395401;27/09/24;00:03:21;1.02;0.006;0.068;-0.02687807008624077;-0.014660765416920185;0.006108652334660292
01:00:0A:00:00:00:00;1727395402;27/09/24;00:03:22;1.022;0.0;0.059;-0.028099799528717995;-0.018325956538319588;0.0073303827084600925
01:00:0A:00:00:00:00;1727395403;27/09/24;00:03:23;1.019;0.0;0.062;-0.02321287989616394;0.0012217304902151227;-0.004886921960860491
01:00:0A:00:00:00:00;1727395404;27/09/24;00:03:24;1.018;0.007;0.067;-0.025656338781118393;-0.006108652334660292;0.0024434609804302454
01:00:0A:00:00:00:00;1727395405;27/09/24;00:03:25;1.017;0.0;0.057;-0.02687807008624077;-0.010995574295520782;0.009773843921720982
01:00:0A:00:00:00:00;1727395406;27/09/24;00:03:26;1.014;0.0;0.056;-0.024434609338641167;-0.0024434609804302454;-0.0012217304902151227
01:00:0A:00:00:00:00;1727395407;27/09/24;00:03:27;1.014;0.006;0.065;-0.024434609338641167;-0.013439035043120384;0.0
01:00:0A:00:00:00:00;1727395408;27/09/24;00:03:28;1.014;0.002;0.056;-0.02687807008624077;-0.024434609338641167;0.006108652334660292
01:00:0A:00:00:00:00;1727395409;27/09/24;00:03:29;1.015;0.0;0.059;-0.024434609338641167;-0.006108652334660292;-0.0024434609804302454
01:00:0A:00:00:00:00;1727395410;27/09/24;00:03:30;1.017;0.006;0.068;-0.024434609338641167;-0.013439035043120384;0.0024434609804302454
01:00:0A:00:00:00:00;1727395411;27/09/24;00:03:31;1.019;0.004;0.059;-0.025656338781118393;-0.025656338781118393;0.004886921960860491
01:00:0A:00:00:00:00;1727395412;27/09/24;00:03:32;1.018;0.003;0.06;-0.02321287989616394;-0.0073303827084600925;-0.0036651913542300463
01:00:0A:00:00:00:00;1727395413;27/09/24;00:03:33;1.015;0.004;0.069;-0.02321287989616394;-0.012217304669320583;-0.006108652334660292
01:00:0A:00:00:00:00;1727395414;27/09/24;00:03:34;1.015;0.0;0.062;-0.024434609338641167;-0.021991148591041565;0.0012217304902151227
01:00:0A:00:00:00:00;1727395415;27/09/24;00:03:35;1.016;0.0;0.06;-0.024434609338641167;-0.004886921960860491;0.004886921960860491
01:00:0A:00:00:00:00;1727395416;27/09/24;00:03:36;1.017;0.004;0.071;-0.02321287989616394;-0.012217304669320583;0.0073303827084600925
01:00:0A:00:00:00:00;1727395417;27/09/24;00:03:37;1.019;0.005;0.063;-0.02321287989616394;-0.012217304669320583;0.004886921960860491
01:00:0A:00:00:00:00;1727395418;27/09/24;00:03:38;1.019;0.005;0.058;-0.021991148591041565;0.0012217304902151227;-0.0012217304902151227
01:00:0A:00:00:00:00;1727395419;27/09/24;00:03:39;1.016;0.004;0.067;-0.019547687843441963;-0.0024434609804302454;-0.006108652334660292
01:00:0A:00:00:00:00;1727395420;27/09/24;00:03:40;1.015;0.0;0.059;-0.02076941914856434;-0.021991148591041565;0.0012217304902151227
01:00:0A:00:00:00:00;1727395421;27/09/24;00:03:41;1.016;0.001;0.058;-0.021991148591041565;-0.0073303827084600925;0.004886921960860491
01:00:0A:00:00:00:00;1727395422;27/09/24;00:03:42;1.015;0.0;0.066;-0.02076941914856434;-0.012217304669320583;0.006108652334660292
01:00:0A:00:00:00:00;1727395423;27/09/24;00:03:43;1.016;0.004;0.064;-0.019547687843441963;-0.02321287989616394;0.0012217304902151227
01:00:0A:00:00:00:00;1727395424;27/09/24;00:03:44;1.016;0.002;0.06;-0.02076941914856434;-0.0036651913542300463;-0.0036651913542300463
01:00:0A:00:00:00:00;1727395425;27/09/24;00:03:45;1.016;0.0;0.066;-0.019547687843441963;-0.004886921960860491;-0.004886921960860491
01:00:0A:00:00:00:00;1727395426;27/09/24;00:03:46;1.016;-0.001;0.063;-0.019547687843441963;-0.014660765416920185;0.0012217304902151227
01:00:0A:00:00:00:00;1727395427;27/09/24;00:03:47;1.015;0.0;0.057;-0.02076941914856434;-0.009773843921720982;0.013439035043120384
01:00:0A:00:00:00:00;1727395428;27/09/24;00:03:48;1.014;0.001;0.065;-0.02076941914856434;-0.0073303827084600925;0.012217304669320583
01:00:0A:00:00:00:00;1727395429;27/09/24;00:03:49;1.015;0.007;0.064;-0.01710422709584236;-0.018325956538319588;0.0012217304902151227
01:00:0A:00:00:00:00;1727395430;27/09/24;00:03:50;1.016;0.007;0.061;-0.01710422709584236;-0.009773843921720982;-0.004886921960860491
01:00:0A:00:00:00:00;1727395431;27/09/24;00:03:51;1.02;0.0;0.064;-0.018325956538319588;-0.006108652334660292;-0.004886921960860491
01:00:0A:00:00:00:00;1727395432;27/09/24;00:03:52;1.021;0.0;0.063;-0.01710422709584236;-0.013439035043120384;-0.0012217304902151227
01:00:0A:00:00:00:00;1727395433;27/09/24;00:03:53;1.019;0.001;0.059;-0.019547687843441963;-0.0073303827084600925;0.00855211354792118
01:00:0A:00:00:00:00;1727395434;27/09/24;00:03:54;1.015;0.001;0.064;-0.02076941914856434;-0.0036651913542300463;0.012217304669320583
01:00:0A:00:00:00:00;1727395435;27/09/24;00:03:55;1.01;0.004;0.061;-0.018325956538319588;-0.02076941914856434;0.006108652334660292
01:00:0A:00:00:00:00;1727395436;27/09/24;00:03:56;1.012;0.006;0.059;-0.018325956538319588;-0.01710422709584236;-0.0024434609804302454
01:00:0A:00:00:00:00;1727395437;27/09/24;00:03:57;1.018;0.002;0.064;-0.019547687843441963;-0.013439035043120384;0.0
01:00:0A:00:00:00:00;1727395438;27/09/24;00:03:58;1.026;0.001;0.066;-0.018325956538319588;-0.012217304669320583;0.0
01:00:0A:00:00:00:00;1727395439;27/09/24;00:03:59;1.026;0.003;0.062;-0.01710422709584236;-0.00855211354792118;0.0012217304902151227
01:00:0A:00:00:00:00;1727395440;27/09/24;00:04:00;1.017;0.004;0.066;-0.018325956538319588;0.0012217304902151227;0.0036651913542300463
01:00:0A:00:00:00:00;1727395441;27/09/24;00:04:01;1.014;0.002;0.064;-0.014660765416920185;-0.006108652334660292;0.0
01:00:0A:00:00:00:00;1727395442;27/09/24;00:04:02;1.013;0.003;0.06;-0.014660765416920185;-0.013439035043120384;0.0012217304902151227
01:00:0A:00:00:00:00;1727395443;27/09/24;00:04:03;1.015;0.001;0.061;-0.013439035043120384;-0.0073303827084600925;0.0
01:00:0A:00:00:00:00;1727395444;27/09/24;00:04:04;1.019;0.0;0.062;-0.012217304669320583;-0.014660765416920185;0.0024434609804302454
01:00:0A:00:00:00:00;1727395445;27/09/24;00:04:05;1.017;-0.007;0.047;0.26145032048225403;-0.08918632566928864;0.06963863223791122
01:00:0A:00:00:00:00;1727395446;27/09/24;00:04:06;1.014;-0.042;-0.007;0.20402899384498596;-0.0012217304902151227;-0.039095375686883926
01:00:0A:00:00:00:00;1727395447;27/09/24;00:04:07;1.015;0.011;0.029;0.2736676335334778;0.05742133408784866;-0.0659734457731247
01:00:0A:00:00:00:00;1727395448;27/09/24;00:04:08;1.013;0.04;0.094;0.20647244155406952;0.02321287989616394;0.05864306166768074
01:00:0A:00:00:00:00;1727395449;27/09/24;00:04:09;1.019;-0.026;0.08;0.20036379992961884;-0.05619959905743599;0.05864306166768074
01:00:0A:00:00:00:00;1727395450;27/09/24;00:04:10;1.02;-0.01;0.04;0.2431243658065796;-0.024434609338641167;-0.05253440886735916
01:00:0A:00:00:00:00;1727395451;27/09/24;00:04:11;1.016;0.022;0.04;-0.02321287989616394;-0.04153883829712868;0.028099799528717995
01:00:0A:00:00:00:00;1727395452;27/09/24;00:04:12;1.013;-0.018;0.059;-0.010995574295520782;0.03176499158143997;0.025656338781118393
01:00:0A:00:00:00:00;1727395453;27/09/24;00:04:13;1.01;0.0;0.081;0.024434609338641167;-0.02321287989616394;-0.04642575979232788
01:00:0A:00:00:00:00;1727395454;27/09/24;00:04:14;1.016;0.025;0.054;0.0024434609804302454;-0.05009094998240471;0.010995574295520782
01:00:0A:00:00:00:00;1727395455;27/09/24;00:04:15;1.018;-0.01;0.05;-0.013439035043120384;0.00855211354792118;0.03420845419168472
01:00:0A:00:00:00:00;1727395456;27/09/24;00:04:16;1.022;-0.011;0.081;0.015882495790719986;0.0;-0.02932153083384037
01:00:0A:00:00:00:00;1727395457;27/09/24;00:04:17;1.021;0.025;0.062;0.0036651913542300463;-0.0354301817715168;-0.0036651913542300463
01:00:0A:00:00:00:00;1727395458;27/09/24;00:04:18;1.019;-0.002;0.05;-0.01710422709584236;0.0012217304902151227;0.039095375686883926
01:00:0A:00:00:00:00;1727395459;27/09/24;00:04:19;1.017;-0.011;0.072;0.00855211354792118;0.010995574295520782;-0.01710422709584236
01:00:0A:00:00:00:00;1727395460;27/09/24;00:04:20;1.015;0.019;0.063;0.0073303827084600925;-0.03176499158143997;-0.01710422709584236
01:00:0A:00:00:00:00;1727395461;27/09/24;00:04:21;1.016;0.001;0.05;-0.01710422709584236;-0.006108652334660292;0.036651913076639175
01:00:0A:00:00:00:00;1727395462;27/09/24;00:04:22;1.014;-0.011;0.067;0.0012217304902151227;0.0036651913542300463;-0.006108652334660292
01:00:0A:00:00:00:00;1727395463;27/09/24;00:04:23;1.016;0.011;0.07;0.00855211354792118;-0.028099799528717995;-0.018325956538319588
01:00:0A:00:00:00:00;1727395464;27/09/24;00:04:24;1.018;0.007;0.054;-0.013439035043120384;-0.014660765416920185;0.030543262138962746
01:00:0A:00:00:00:00;1727395465;27/09/24;00:04:25;1.02;-0.01;0.066;-0.004886921960860491;0.004886921960860491;0.006108652334660292
01:00:0A:00:00:00:00;1727395466;27/09/24;00:04:26;1.018;0.009;0.069;0.006108652334660292;-0.01710422709584236;-0.02076941914856434
01:00:0A:00:00:00:00;1727395467;27/09/24;00:04:27;1.016;0.011;0.055;-0.009773843921720982;-0.01710422709584236;0.015882495790719986
01:00:0A:00:00:00:00;1727395468;27/09/24;00:04:28;1.015;-0.009;0.062;-0.0073303827084600925;0.004886921960860491;0.012217304669320583
01:00:0A:00:00:00:00;1727395469;27/09/24;00:04:29;1.012;0.001;0.066;0.006108652334660292;-0.014660765416920185;-0.01710422709584236
01:00:0A:00:00:00:00;1727395470;27/09/24;00:04:30;1.015;0.012;0.059;-0.0073303827084600925;-0.02076941914856434;0.015882495790719986
01:00:0A:00:00:00:00;1727395471;27/09/24;00:04:31;1.016;-0.001;0.06;-0.009773843921720982;-0.0036651913542300463;0.014660765416920185
01:00:0A:00:00:00:00;1727395472;27/09/24;00:04:32;1.016;0.0;0.067;0.004886921960860491;-0.010995574295520782;-0.018325956538319588
01:00:0A:00:00:00:00;1727395473;27/09/24;00:04:33;1.016;0.011;0.061;-0.0024434609804302454;-0.02076941914856434;-0.0024434609804302454
01:00:0A:00:00:00:00;1727395474;27/09/24;00:04:34;1.014;-0.003;0.06;-0.009773843921720982;-0.010995574295520782;0.018325956538319588
01:00:0A:00:00:00:00;1727395475;27/09/24;00:04:35;1.016;-0.004;0.065;0.0024434609804302454;-0.010995574295520782;-0.009773843921720982
01:00:0A:00:00:00:00;1727395476;27/09/24;00:04:36;1.016;0.009;0.063;-0.0012217304902151227;-0.01710422709584236;0.0036651913542300463
01:00:0A:00:00:00:00;1727395477;27/09/24;00:04:37;1.02;0.002;0.059;-0.00855211354792118;-0.013439035043120384;0.018325956538319588
01:00:0A:00:00:00:00;1727395478;27/09/24;00:04:38;1.018;-0.002;0.063;0.0024434609804302454;-0.0073303827084600925;-0.0073303827084600925
01:00:0A:00:00:00:00;1727395479;27/09/24;00:04:39;1.017;0.009;0.065;0.0024434609804302454;-0.015882495790719986;-0.009773843921720982
01:00:0A:00:00:00:00;1727395480;27/09/24;00:04:40;1.015;0.001;0.064;-0.004886921960860491;-0.013439035043120384;0.012217304669320583
01:00:0A:00:00:00:00;1727395481;27/09/24;00:04:41;1.015;-0.004;0.062;0.0;-0.006108652334660292;0.006108652334660292
01:00:0A:00:00:00:00;1727395482;27/09/24;00:04:42;1.014;0.008;0.065;0.0036651913542300463;-0.0073303827084600925;-0.0024434609804302454
01:00:0A:00:00:00:00;1727395483;27/09/24;00:04:43;1.016;0.008;0.062;-0.0036651913542300463;-0.012217304669320583;0.014660765416920185
01:00:0A:00:00:00:00;1727395484;27/09/24;00:04:44;1.016;0.0;0.059;0.0012217304902151227;-0.010995574295520782;0.0012217304902151227
01:00:0A:00:00:00:00;1727395485;27/09/24;00:04:45;1.017;0.002;0.063;0.006108652334660292;-0.009773843921720982;-0.010995574295520782
01:00:0A:00:00:00:00;1727395486;27/09/24;00:04:46;1.017;0.003;0.064;0.0;-0.02076941914856434;0.009773843921720982
01:00:0A:00:00:00:00;1727395487;27/09/24;00:04:47;1.017;-0.002;0.06;0.0;-0.012217304669320583;0.013439035043120384
01:00:0A:00:00:00:00;1727395488;27/09/24;00:04:48;1.016;0.003;0.063;0.004886921960860491;-0.0036651913542300463;0.0
01:00:0A:00:00:00:00;1727395489;27/09/24;00:04:49;1.016;0.01;0.066;0.0012217304902151227;-0.013439035043120384;0.0073303827084600925
01:00:0A:00:00:00:00;1727395490;27/09/24;00:04:50;1.016;0.001;0.059;0.0;-0.018325956538319588;0.006108652334660292
01:00:0A:00:00:00:00;1727395491;27/09/24;00:04:51;1.016;0.0;0.062;0.006108652334660292;-0.0073303827084600925;-0.009773843921720982
01:00:0A:00:00:00:00;1727395492;27/09/24;00:04:52;1.017;0.005;0.068;0.0024434609804302454;-0.012217304669320583;0.0012217304902151227
01:00:0A:00:00:00:00;1727395493;27/09/24;00:04:53;1.017;-0.001;0.06;-0.0012217304902151227;-0.015882495790719986;0.013439035043120384
01:00:0A:00:00:00:00;1727395494;27/09/24;00:04:54;1.016;0.001;0.06;0.0036651913542300463;-0.0012217304902151227;0.0012217304902151227
01:00:0A:00:00:00:00;1727395495;27/09/24;00:04:55;1.016;0.008;0.066;0.0024434609804302454;-0.010995574295520782;0.0036651913542300463
01:00:0A:00:00:00:00;1727395496;27/09/24;00:04:56;1.016;0.003;0.059;-0.0012217304902151227;-0.02076941914856434;0.0073303827084600925
01:00:0A:00:00:00:00;1727395497;27/09/24;00:04:57;1.016;-0.001;0.058;0.0036651913542300463;-0.006108652334660292;-0.0036651913542300463
01:00:0A:00:00:00:00;1727395498;27/09/24;00:04:58;1.016;0.004;0.068;0.0036651913542300463;-0.009773843921720982;0.0
01:00:0A:00:00:00:00;1727395499;27/09/24;00:04:59;1.017;0.002;0.061;0.0;-0.018325956538319588;0.012217304669320583
01:00:0A:00:00:00:00;1727395500;27/09/24;00:05:00;1.017;0.0;0.058;0.0024434609804302454;-0.0012217304902151227;0.0036651913542300463
01:00:0A:00:00:00:00;1727395501;27/09/24;00:05:01;1.016;0.006;0.066;0.004886921960860491;-0.004886921960860491;-0.0036651913542300463
01:00:0A:00:00:00:00;1727395502;27/09/24;00:05:02;1.016;0.003;0.06;0.0012217304902151227;-0.02321287989616394;0.0073303827084600925
01:00:0A:00:00:00:00;1727395503;27/09/24;00:05:03;1.016;0.0;0.057;0.0036651913542300463;-0.0073303827084600925;-0.0012217304902151227
01:00:0A:00:00:00:00;1727395504;27/09/24;00:05:04;1.016;0.002;0.066;0.0036651913542300463;-0.0073303827084600925;-0.0036651913542300463
01:00:0A:00:00:00:00;1727395505;27/09/24;00:05:05;1.016;0.003;0.063;0.0;-0.024434609338641167;0.009773843921720982
01:00:0A:00:00:00:00;1727395506;27/09/24;00:05:06;1.018;0.0;0.056;0.0012217304902151227;-0.009773843921720982;0.0036651913542300463
01:00:0A:00:00:00:00;1727395507;27/09/24;00:05:07;1.018;0.005;0.068;0.0036651913542300463;-0.006108652334660292;-0.0024434609804302454
01:00:0A:00:00:00:00;1727395508;27/09/24;00:05:08;1.018;0.004;0.065;0.0012217304902151227;-0.02076941914856434;0.004886921960860491
01:00:0A:00:00:00:00;1727395509;27/09/24;00:05:09;1.018;0.0;0.057;0.0012217304902151227;-0.00855211354792118;0.0036651913542300463
01:00:0A:00:00:00:00;1727395510;27/09/24;00:05:10;1.015;0.002;0.068;0.0024434609804302454;0.0036651913542300463;-0.0012217304902151227
01:00:0A:00:00:00:00;1727395511;27/09/24;00:05:11;1.015;0.003;0.064;0.0;-0.018325956538319588;0.00855211354792118
01:00:0A:00:00:00:00;1727395512;27/09/24;00:05:12;1.013;0.0;0.056;0.0;-0.010995574295520782;0.004886921960860491
01:00:0A:00:00:00:00;1727395513;27/09/24;00:05:13;1.014;0.001;0.065;0.0024434609804302454;-0.0024434609804302454;-0.0024434609804302454
01:00:0A:00:00:00:00;1727395514;27/09/24;00:05:14;1.015;0.001;0.065;0.0;-0.02687807008624077;0.004886921960860491
01:00:0A:00:00:00:00;1727395515;27/09/24;00:05:15;1.017;0.0;0.056;-0.0012217304902151227;-0.015882495790719986;0.0073303827084600925
01:00:0A:00:00:00:00;1727395516;27/09/24;00:05:16;1.019;0.002;0.066;0.0;-0.0036651913542300463;0.0012217304902151227
01:00:0A:00:00:00:00;1727395517;27/09/24;00:05:17;1.019;0.005;0.067;-0.0012217304902151227;-0.018325956538319588;0.006108652334660292
01:00:0A:00:00:00:00;1727395518;27/09/24;00:05:18;1.018;0.002;0.056;-0.0024434609804302454;-0.013439035043120384;0.004886921960860491
01:00:0A:00:00:00:00;1727395519;27/09/24;00:05:19;1.016;0.002;0.064;-0.0012217304902151227;0.0;-0.0036651913542300463
01:00:0A:00:00:00:00;1727395520;27/09/24;00:05:20;1.016;0.004;0.067;-0.0024434609804302454;-0.019547687843441963;0.0024434609804302454
01:00:0A:00:00:00:00;1727395521;27/09/24;00:05:21;1.015;0.0;0.056;-0.0036651913542300463;-0.01710422709584236;0.006108652334660292
01:00:0A:00:00:00:00;1727395522;27/09/24;00:05:22;1.015;0.003;0.064;-0.0024434609804302454;0.0;0.0012217304902151227
01:00:0A:00:00:00:00;1727395523;27/09/24;00:05:23;1.015;0.005;0.066;-0.0036651913542300463;-0.02076941914856434;0.0024434609804302454
01:00:0A:00:00:00:00;1727395524;27/09/24;00:05:24;1.016;0.002;0.057;-0.004886921960860491;-0.019547687843441963;0.0024434609804302454
01:00:0A:00:00:00:00;1727395525;27/09/24;00:05:25;1.016;0.002;0.062;-0.0036651913542300463;-0.0012217304902151227;-0.0024434609804302454
01:00:0A:00:00:00:00;1727395526;27/09/24;00:05:26;1.016;0.002;0.067;-0.004886921960860491;-0.015882495790719986;0.0024434609804302454
01:00:0A:00:00:00:00;1727395527;27/09/24;00:05:27;1.017;0.001;0.056;-0.006108652334660292;-0.015882495790719986;0.006108652334660292
01:00:0A:00:00:00:00;1727395528;27/09/24;00:05:28;1.016;0.002;0.061;-0.004886921960860491;0.0024434609804302454;0.0024434609804302454
01:00:0A:00:00:00:00;1727395529;27/09/24;00:05:29;1.017;0.003;0.067;-0.004886921960860491;-0.013439035043120384;0.0
01:00:0A:00:00:00:00;1727395530;27/09/24;00:05:30;1.016;0.001;0.055;-0.004886921960860491;-0.018325956538319588;0.0024434609804302454
01:00:0A:00:00:00:00;1727395531;27/09/24;00:05:31;1.013;0.0;0.059;-0.004886921960860491;-0.0024434609804302454;0.0012217304902151227
01:00:0A:00:00:00:00;1727395532;27/09/24;00:05:32;1.015;0.001;0.067;-0.004886921960860491;-0.018325956538319588;0.0036651913542300463
01:00:0A:00:00:00:00;1727395533;27/09/24;00:05:33;1.017;0.0;0.059;-0.004886921960860491;-0.021991148591041565;0.006108652334660292
01:00:0A:00:00:00:00;1727395534;27/09/24;00:05:34;1.02;0.002;0.062;-0.004886921960860491;-0.0024434609804302454;0.0024434609804302454
01:00:0A:00:00:00:00;1727395535;27/09/24;00:05:35;1.018;0.003;0.07;-0.004886921960860491;-0.010995574295520782;0.0
01:00:0A:00:00:00:00;1727395536;27/09/24;00:05:36;1.018;0.0;0.058;-0.004886921960860491;-0.015882495790719986;0.0012217304902151227
01:00:0A:00:00:00:00;1727395537;27/09/24;00:05:37;1.016;0.002;0.059;-0.004886921960860491;0.0012217304902151227;0.0012217304902151227
01:00:0A:00:00:00:00;1727395538;27/09/24;00:05:38;1.015;0.002;0.067;-0.004886921960860491;-0.012217304669320583;0.0012217304902151227
01:00:0A:00:00:00:00;1727395539;27/09/24;00:05:39;1.016;0.002;0.058;-0.004886921960860491;-0.02321287989616394;0.0036651913542300463
01:00:0A:00:00:00:00;1727395540;27/09/24;00:05:40;1.015;0.002;0.06;-0.004886921960860491;-0.0036651913542300463;0.0012217304902151227
01:00:0A:00:00:00:00;1727395541;27/09/24;00:05:41;1.016;0.003;0.069;-0.004886921960860491;-0.010995574295520782;0.0024434609804302454
01:00:0A:00:00:00:00;1727395542;27/09/24;00:05:42;1.016;0.001;0.061;-0.0036651913542300463;-0.02076941914856434;0.0012217304902151227
01:00:0A:00:00:00:00;1727395543;27/09/24;00:05:43;1.016;0.001;0.059;-0.004886921960860491;-0.0024434609804302454;0.0024434609804302454
01:00:0A:00:00:00:00;1727395544;27/09/24;00:05:44;1.016;0.002;0.069;-0.0036651913542300463;-0.009773843921720982;0.0012217304902151227
01:00:0A:00:00:00:00;1727395545;27/09/24;00:05:45;1.017;0.001;0.061;-0.0036651913542300463;-0.019547687843441963;0.0024434609804302454
01:00:0A:00:00:00:00;1727395546;27/09/24;00:05:46;1.017;0.001;0.06;-0.004886921960860491;-0.0012217304902151227;0.0012217304902151227
01:00:0A:00:00:00:00;1727395547;27/09/24;00:05:47;1.016;0.002;0.068;-0.0036651913542300463;-0.006108652334660292;0.0024434609804302454
01:00:0A:00:00:00:00;1727395548;27/09/24;00:05:48;1.014;0.003;0.059;-0.0036651913542300463;-0.019547687843441963;0.0012217304902151227
01:00:0A:00:00:00:00;1727395549;27/09/24;00:05:49;1.014;0.001;0.057;-0.0036651913542300463;-0.006108652334660292;0.0024434609804302454
01:00:0A:00:00:00:00;1727395550;27/09/24;00:05:50;1.016;0.002;0.066;-0.0024434609804302454;-0.012217304669320583;0.0012217304902151227
01:00:0A:00:00:00:00;1727395551;27/09/24;00:05:51;1.018;0.001;0.06;-0.0024434609804302454;-0.024434609338641167;0.0012217304902151227
01:00:0A:00:00:00:00;1727395552;27/09/24;00:05:52;1.018;0.001;0.057;-0.0036651913542300463;-0.004886921960860491;0.0036651913542300463
01:00:0A:00:00:00:00;1727395553;27/09/24;00:05:53;1.018;0.001;0.067;-0.0024434609804302454;-0.004886921960860491;0.0036651913542300463
01:00:0A:00:00:00:00;1727395554;27/09/24;00:05:54;1.016;0.003;0.061;-0.0012217304902151227;-0.019547687843441963;0.004886921960860491
01:00:0A:00:00:00:00;1727395555;27/09/24;00:05:55;1.016;0.002;0.057;-0.0024434609804302454;-0.006108652334660292;0.0024434609804302454
01:00:0A:00:00:00:00;1727395556;27/09/24;00:05:56;1.016;0.0;0.067;-0.0012217304902151227;-0.0073303827084600925;0.0012217304902151227
01:00:0A:00:00:00:00;1727395557;27/09/24;00:05:57;1.016;0.002;0.061;0.0;-0.021991148591041565;0.0012217304902151227
01:00:0A:00:00:00:00;1727395558;27/09/24;00:05:58;1.016;0.0;0.056;-0.0024434609804302454;-0.00855211354792118;0.0036651913542300463
01:00:0A:00:00:00:00;1727395559;27/09/24;00:05:59;1.015;0.001;0.066;-0.0012217304902151227;-0.00855211354792118;0.0036651913542300463
01:00:0A:00:00:00:00;1727395560;27/09/24;00:06:00;1.016;0.003;0.063;0.0;-0.02321287989616394;0.0012217304902151227
01:00:0A:00:00:00:00;1727395561;27/09/24;00:06:01;1.017;0.003;0.057;-0.0012217304902151227;-0.0073303827084600925;0.0012217304902151227
01:00:0A:00:00:00:00;1727395562;27/09/24;00:06:02;1.016;0.0;0.066;-0.0012217304902151227;-0.004886921960860491;0.0012217304902151227
01:00:0A:00:00:00:00;1727395563;27/09/24;00:06:03;1.017;0.001;0.063;0.0012217304902151227;-0.02076941914856434;0.0012217304902151227
01:00:0A:00:00:00:00;1727395564;27/09/24;00:06:04;1.016;0.001;0.057;-0.0012217304902151227;-0.0073303827084600925;0.004886921960860491
01:00:0A:00:00:00:00;1727395565;27/09/24;00:06:05;1.015;0.002;0.066;0.0;-0.004886921960860491;0.004886921960860491
01:00:0A:00:00:00:00;1727395566;27/09/24;00:06:06;1.016;0.003;0.063;0.0024434609804302454;-0.021991148591041565;0.0
01:00:0A:00:00:00:00;1727395567;27/09/24;00:06:07;1.017;0.002;0.058;0.0012217304902151227;-0.010995574295520782;0.0012217304902151227
01:00:0A:00:00:00:00;1727395568;27/09/24;00:06:08;1.016;0.0;0.066;0.0012217304902151227;-0.004886921960860491;0.0
01:00:0A:00:00:00:00;1727395569;27/09/24;00:06:09;1.018;0.001;0.064;0.0024434609804302454;-0.019547687843441963;0.0012217304902151227
01:00:0A:00:00:00:00;1727395570;27/09/24;00:06:10;1.018;0.002;0.057;0.0012217304902151227;-0.009773843921720982;0.004886921960860491
01:00:0A:00:00:00:00;1727395571;27/09/24;00:06:11;1.017;0.002;0.066;0.0;-0.0024434609804302454;0.004886921960860491
01:00:0A:00:00:00:00;1727395572;27/09/24;00:06:12;1.016;0.002;0.063;0.0024434609804302454;-0.018325956538319588;0.0
01:00:0A:00:00:00:00;1727395573;27/09/24;00:06:13;1.015;0.003;0.056;0.0012217304902151227;-0.010995574295520782;0.0012217304902151227
01:00:0A:00:00:00:00;1727395574;27/09/24;00:06:14;1.015;0.0;0.064;0.0012217304902151227;-0.004886921960860491;0.0024434609804302454
01:00:0A:00:00:00:00;1727395575;27/09/24;00:06:15;1.015;0.001;0.064;0.0036651913542300463;-0.021991148591041565;0.0012217304902151227
01:00:0A:00:00:00:00;1727395576;27/09/24;00:06:16;1.017;0.002;0.058;0.0024434609804302454;-0.014660765416920185;0.004886921960860491
01:00:0A:00:00:00:00;1727395577;27/09/24;00:06:17;1.017;0.002;0.065;0.0012217304902151227;-0.004886921960860491;0.006108652334660292
01:00:0A:00:00:00:00;1727395578;27/09/24;00:06:18;1.018;0.002;0.065;0.004886921960860491;-0.018325956538319588;0.0
01:00:0A:00:00:00:00;1727395579;27/09/24;00:06:19;1.018;0.003;0.058;0.004886921960860491;-0.012217304669320583;0.0012217304902151227
01:00:0A:00:00:00:00;1727395580;27/09/24;00:06:20;1.016;0.001;0.063;0.0036651913542300463;-0.0012217304902151227;0.004886921960860491
01:00:0A:00:00:00:00;1727395581;27/09/24;00:06:21;1.016;0.001;0.064;0.0073303827084600925;-0.01710422709584236;0.0012217304902151227
01:00:0A:00:00:00:00;1727395582;27/09/24;00:06:22;1.015;0.003;0.058;0.006108652334660292;-0.014660765416920185;0.004886921960860491
01:00:0A:00:00:00:00;1727395583;27/09/24;00:06:23;1.015;0.002;0.064;0.006108652334660292;-0.0036651913542300463;0.006108652334660292
01:00:0A:00:00:00:00;1727395584;27/09/24;00:06:24;1.015;0.001;0.066;0.00855211354792118;-0.01710422709584236;0.0
01:00:0A:00:00:00:00;1727395585;27/09/24;00:06:25;1.016;0.004;0.058;0.00855211354792118;-0.015882495790719986;0.0
01:00:0A:00:00:00:00;1727395586;27/09/24;00:06:26;1.016;0.002;0.062;0.006108652334660292;-0.0036651913542300463;0.004886921960860491
01:00:0A:00:00:00:00;1727395587;27/09/24;00:06:27;1.016;0.001;0.066;0.009773843921720982;-0.01710422709584236;0.0024434609804302454
01:00:0A:00:00:00:00;1727395588;27/09/24;00:06:28;1.016;0.002;0.059;0.009773843921720982;-0.01710422709584236;0.0036651913542300463
01:00:0A:00:00:00:00;1727395589;27/09/24;00:06:29;1.017;0.003;0.063;0.0073303827084600925;-0.0024434609804302454;0.006108652334660292
01:00:0A:00:00:00:00;1727395590;27/09/24;00:06:30;1.017;0.001;0.066;0.010995574295520782;-0.015882495790719986;0.0012217304902151227
01:00:0A:00:00:00:00;1727395591;27/09/24;00:06:31;1.017;0.002;0.059;0.010995574295520782;-0.015882495790719986;0.0012217304902151227
01:00:0A:00:00:00:00;1727395592;27/09/24;00:06:32;1.016;0.002;0.063;0.00855211354792118;-0.0024434609804302454;0.004886921960860491
01:00:0A:00:00:00:00;1727395593;27/09/24;00:06:33;1.017;0.001;0.068;0.012217304669320583;-0.014660765416920185;0.0024434609804302454
01:00:0A:00:00:00:00;1727395594;27/09/24;00:06:34;1.017;0.003;0.06;0.012217304669320583;-0.015882495790719986;0.0012217304902151227
01:00:0A:00:00:00:00;1727395595;27/09/24;00:06:35;1.015;0.003;0.061;0.009773843921720982;-0.0024434609804302454;0.004886921960860491
01:00:0A:00:00:00:00;1727395596;27/09/24;00:06:36;1.016;0.0;0.067;0.012217304669320583;-0.010995574295520782;0.0024434609804302454
01:00:0A:00:00:00:00;1727395597;27/09/24;00:06:37;1.015;0.002;0.059;0.012217304669320583;-0.015882495790719986;0.0012217304902151227
01:00:0A:00:00:00:00;1727395598;27/09/24;00:06:38;1.016;0.002;0.06;0.00855211354792118;-0.0024434609804302454;0.004886921960860491
01:00:0A:00:00:00:00;1727395599;27/09/24;00:06:39;1.016;0.001;0.067;0.009773843921720982;-0.014660765416920185;0.0036651913542300463
01:00:0A:00:00:00:00;1727395600;27/09/24;00:06:40;1.017;0.004;0.06;0.009773843921720982;-0.01710422709584236;0.0
01:00:0A:00:00:00:00;1727395601;27/09/24;00:06:41;1.016;0.004;0.06;0.0073303827084600925;-0.0024434609804302454;0.0036651913542300463
01:00:0A:00:00:00:00;1727395602;27/09/24;00:06:42;1.016;0.001;0.067;0.0073303827084600925;-0.010995574295520782;0.0024434609804302454
01:00:0A:00:00:00:00;1727395603;27/09/24;00:06:43;1.016;0.004;0.06;0.00855211354792118;-0.01710422709584236;0.0
01:00:0A:00:00:00:00;1727395604;27/09/24;00:06:44;1.016;0.003;0.06;0.004886921960860491;-0.0036651913542300463;0.004886921960860491
01:00:0A:00:00:00:00;1727395605;27/09/24;00:06:45;1.016;0.002;0.066;0.004886921960860491;-0.009773843921720982;0.0036651913542300463
01:00:0A:00:00:00:00;1727395606;27/09/24;00:06:46;1.016;0.003;0.06;0.006108652334660292;-0.018325956538319588;0.0
01:00:0A:00:00:00:00;1727395607;27/09/24;00:06:47;1.015;0.003;0.06;0.0036651913542300463;-0.0036651913542300463;0.0024434609804302454
01:00:0A:00:00:00:00;1727395608;27/09/24;00:06:48;1.015;0.001;0.066;0.0036651913542300463;-0.010995574295520782;0.0036651913542300463
01:00:0A:00:00:00:00;1727395609;27/09/24;00:06:49;1.016;0.002;0.061;0.004886921960860491;-0.02076941914856434;0.0012217304902151227
01:00:0A:00:00:00:00;1727395610;27/09/24;00:06:50;1.017;0.004;0.059;0.0024434609804302454;-0.006108652334660292;0.0036651913542300463
01:00:0A:00:00:00:00;1727395611;27/09/24;00:06:51;1.016;0.002;0.066;0.0024434609804302454;-0.00855211354792118;0.0036651913542300463
01:00:0A:00:00:00:00;1727395612;27/09/24;00:06:52;1.016;0.002;0.061;0.004886921960860491;-0.01710422709584236;0.0
01:00:0A:00:00:00:00;1727395613;27/09/24;00:06:53;1.016;0.004;0.059;0.0024434609804302454;-0.0036651913542300463;0.0024434609804302454
01:00:0A:00:00:00:00;1727395614;27/09/24;00:06:54;1.015;0.0;0.066;0.0024434609804302454;-0.00855211354792118;0.0036651913542300463
01:00:0A:00:00:00:00;1727395615;27/09/24;00:06:55;1.016;0.002;0.061;0.004886921960860491;-0.02076941914856434;0.0024434609804302454
01:00:0A:00:00:00:00;1727395616;27/09/24;00:06:56;1.017;0.002;0.058;0.0024434609804302454;-0.00855211354792118;0.0036651913542300463
01:00:0A:00:00:00:00;1727395617;27/09/24;00:06:57;1.018;0.001;0.067;0.0024434609804302454;-0.0073303827084600925;0.0036651913542300463
01:00:0A:00:00:00:00;1727395618;27/09/24;00:06:58;1.017;0.001;0.063;0.004886921960860491;-0.01710422709584236;0.0012217304902151227
01:00:0A:00:00:00:00;1727395619;27/09/24;00:06:59;1.016;0.002;0.058;0.0036651913542300463;-0.006108652334660292;0.0024434609804302454
01:00:0A:00:00:00:00;1727395620;27/09/24;00:07:00;1.015;0.001;0.065;0.0036651913542300463;-0.006108652334660292;0.0036651913542300463
01:00:0A:00:00:00:00;1727395621;27/09/24;00:07:01;1.016;0.002;0.063;0.006108652334660292;-0.018325956538319588;0.0024434609804302454
01:00:0A:00:00:00:00;1727395622;27/09/24;00:07:02;1.016;0.003;0.059;0.004886921960860491;-0.0073303827084600925;0.0036651913542300463
01:00:0A:00:00:00:00;1727395623;27/09/24;00:07:03;1.017;0.002;0.066;0.004886921960860491;-0.006108652334660292;0.0036651913542300463
01:00:0A:00:00:00:00;1727395624;27/09/24;00:07:04;1.017;0.002;0.062;0.0073303827084600925;-0.015882495790719986;0.0012217304902151227
01:00:0A:00:00:00:00;1727395625;27/09/24;00:07:05;1.016;0.002;0.059;0.0073303827084600925;-0.009773843921720982;0.0024434609804302454
01:00:0A:00:00:00:00;1727395626;27/09/24;00:07:06;1.015;0.002;0.063;0.006108652334660292;-0.006108652334660292;0.0036651913542300463
01:00:0A:00:00:00:00;1727395627;27/09/24;00:07:07;1.016;0.003;0.063;0.00855211354792118;-0.019547687843441963;0.0024434609804302454
01:00:0A:00:00:00:00;1727395628;27/09/24;00:07:08;1.017;0.002;0.059;0.00855211354792118;-0.010995574295520782;0.0024434609804302454
01:00:0A:00:00:00:00;1727395629;27/09/24;00:07:09;1.016;0.002;0.065;0.0073303827084600925;-0.004886921960860491;0.0036651913542300463
01:00:0A:00:00:00:00;1727395630;27/09/24;00:07:10;1.016;0.002;0.063;0.009773843921720982;-0.015882495790719986;0.0024434609804302454
01:00:0A:00:00:00:00;1727395631;27/09/24;00:07:11;1.016;0.002;0.059;0.009773843921720982;-0.010995574295520782;0.0024434609804302454
01:00:0A:00:00:00:00;1727395632;27/09/24;00:07:12;1.016;0.003;0.064;0.009773843921720982;-0.00855211354792118;0.0024434609804302454
01:00:0A:00:00:00:00;1727395633;27/09/24;00:07:13;1.017;0.001;0.064;0.010995574295520782;-0.01710422709584236;0.0024434609804302454
01:00:0A:00:00:00:00;1727395634;27/09/24;00:07:14;1.017;0.001;0.059;0.010995574295520782;-0.012217304669320583;0.0024434609804302454
01:00:0A:00:00:00:00;1727395635;27/09/24;00:07:15;1.018;0.001;0.064;0.012217304669320583;-0.006108652334660292;0.0036651913542300463
01:00:0A:00:00:00:00;1727395636;27/09/24;00:07:16;1.016;0.0;0.065;0.0708603635430336;-0.0073303827084600925;0.02076941914856434
01:00:0A:00:00:00:00;1727395637;27/09/24;00:07:17;1.016;-0.004;0.062;0.07330382615327835;-0.013439035043120384;-0.0012217304902151227
01:00:0A:00:00:00:00;1727395638;27/09/24;00:07:18;1.016;0.003;0.062;0.08429940044879913;-0.004886921960860491;0.004886921960860491
01:00:0A:00:00:00:00;1727395639;27/09/24;00:07:19;1.016;0.002;0.064;0.07941248267889023;-0.010995574295520782;0.0073303827084600925
01:00:0A:00:00:00:00;1727395640;27/09/24;00:07:20;1.017;0.0;0.062;0.07819075137376785;-0.012217304669320583;0.0036651913542300463
01:00:0A:00:00:00:00;1727395641;27/09/24;00:07:21;1.017;0.003;0.062;0.0757472887635231;-0.006108652334660292;0.0036651913542300463
01:00:0A:00:00:00:00;1727395642;27/09/24;00:07:22;1.016;0.002;0.064;0.07208210229873657;-0.009773843921720982;0.00855211354792118
01:00:0A:00:00:00:00;1727395643;27/09/24;00:07:23;1.016;0.0;0.061;0.07208210229873657;-0.010995574295520782;0.006108652334660292
01:00:0A:00:00:00:00;1727395644;27/09/24;00:07:24;1.016;0.003;0.061;0.07208210229873657;-0.009773843921720982;0.0024434609804302454
01:00:0A:00:00:00:00;1727395645;27/09/24;00:07:25;1.016;0.003;0.064;0.06963863223791122;-0.00855211354792118;0.006108652334660292
01:00:0A:00:00:00:00;1727395646;27/09/24;00:07:26;1.017;0.0;0.063;0.06841690838336945;-0.009773843921720982;0.006108652334660292
01:00:0A:00:00:00:00;1727395647;27/09/24;00:07:27;1.017;0.002;0.062;0.06963863223791122;-0.0073303827084600925;0.0012217304902151227
01:00:0A:00:00:00:00;1727395648;27/09/24;00:07:28;1.016;0.004;0.063;0.06719517707824707;-0.00855211354792118;0.006108652334660292
01:00:0A:00:00:00:00;1727395649;27/09/24;00:07:29;1.016;0.0;0.062;0.0659734457731247;-0.00855211354792118;0.006108652334660292
01:00:0A:00:00:00:00;1727395650;27/09/24;00:07:30;1.016;0.001;0.062;0.06719517707824707;-0.00855211354792118;0.0024434609804302454
01:00:0A:00:00:00:00;1727395651;27/09/24;00:07:31;1.015;0.003;0.063;0.06352998316287994;-0.010995574295520782;0.0073303827084600925
01:00:0A:00:00:00:00;1727395652;27/09/24;00:07:32;1.016;0.0;0.062;0.06352998316287994;-0.009773843921720982;0.004886921960860491
01:00:0A:00:00:00:00;1727395653;27/09/24;00:07:33;1.016;0.002;0.062;0.06475171446800232;-0.010995574295520782;0.0024434609804302454
01:00:0A:00:00:00:00;1727395654;27/09/24;00:07:34;1.016;0.003;0.062;0.06352998316287994;-0.012217304669320583;0.006108652334660292
01:00:0A:00:00:00:00;1727395655;27/09/24;00:07:35;1.018;0.001;0.062;0.06230825558304787;-0.009773843921720982;0.006108652334660292
01:00:0A:00:00:00:00;1727395656;27/09/24;00:07:36;1.017;0.002;0.062;0.06352998316287994;-0.00855211354792118;0.0024434609804302454
01:00:0A:00:00:00:00;1727395657;27/09/24;00:07:37;1.017;0.003;0.063;0.06108652427792549;-0.00855211354792118;0.006108652334660292
01:00:0A:00:00:00:00;1727395658;27/09/24;00:07:38;1.016;0.0;0.062;0.06230825558304787;-0.00855211354792118;0.0073303827084600925
01:00:0A:00:00:00:00;1727395659;27/09/24;00:07:39;1.015;0.002;0.062;0.06352998316287994;-0.010995574295520782;0.0012217304902151227
01:00:0A:00:00:00:00;1727395660;27/09/24;00:07:40;1.016;0.003;0.062;0.06108652427792549;-0.010995574295520782;0.0073303827084600925
01:00:0A:00:00:00:00;1727395661;27/09/24;00:07:41;1.017;0.002;0.062;0.06108652427792549;-0.009773843921720982;0.0073303827084600925
01:00:0A:00:00:00:00;1727395662;27/09/24;00:07:42;1.017;0.001;0.062;0.06352998316287994;-0.009773843921720982;0.0024434609804302454
01:00:0A:00:00:00:00;1727395663;27/09/24;00:07:43;1.016;0.003;0.062;0.059864792972803116;-0.00855211354792118;0.0073303827084600925
01:00:0A:00:00:00:00;1727395664;27/09/24;00:07:44;1.015;0.0;0.062;0.059864792972803116;-0.00855211354792118;0.0073303827084600925
01:00:0A:00:00:00:00;1727395665;27/09/24;00:07:45;1.016;0.001;0.061;0.06230825558304787;-0.012217304669320583;0.0012217304902151227
01:00:0A:00:00:00:00;1727395666;27/09/24;00:07:46;1.016;0.002;0.062;0.06108652427792549;-0.010995574295520782;0.004886921960860491
01:00:0A:00:00:00:00;1727395677;27/09/24;00:07:57;1.016;0.0;0.063;0.059864792972803116;-0.014660765416920185;0.0024434609804302454
01:00:0A:00:00:00:00;1727395678;27/09/24;00:07:58;1.016;0.002;0.06;0.05864306166768074;-0.012217304669320583;0.0036651913542300463
01:00:0A:00:00:00:00;1727395679;27/09/24;00:07:59;1.017;0.0;0.064;0.05742133408784866;-0.006108652334660292;0.0073303827084600925
01:00:0A:00:00:00:00;1727395680;27/09/24;00:08:00;1.017;0.001;0.064;0.05864306166768074;-0.012217304669320583;0.0036651913542300463
01:00:0A:00:00:00:00;1727395681;27/09/24;00:08:01;1.016;0.003;0.061;0.05742133408784866;-0.009773843921720982;0.004886921960860491
01:00:0A:00:00:00:00;1727395682;27/09/24;00:08:02;1.015;0.002;0.063;0.05619959905743599;-0.004886921960860491;0.006108652334660292
01:00:0A:00:00:00:00;1727395683;27/09/24;00:08:03;1.015;0.001;0.065;0.05742133408784866;-0.013439035043120384;0.004886921960860491
01:00:0A:00:00:00:00;1727395684;27/09/24;00:08:04;1.016;0.003;0.06;0.05619959905743599;-0.012217304669320583;0.004886921960860491
01:00:0A:00:00:00:00;1727395685;27/09/24;00:08:05;1.018;0.002;0.063;0.05497787147760391;-0.006108652334660292;0.004886921960860491
01:00:0A:00:00:00:00;1727395686;27/09/24;00:08:06;1.017;0.001;0.065;0.05497787147760391;-0.009773843921720982;0.004886921960860491
01:00:0A:00:00:00:00;1727395687;27/09/24;00:08:07;1.017;0.002;0.06;0.05497787147760391;-0.010995574295520782;0.004886921960860491
01:00:0A:00:00:00:00;1727395688;27/09/24;00:08:08;1.015;0.002;0.062;0.05375614017248154;-0.006108652334660292;0.004886921960860491
01:00:0A:00:00:00:00;1727395689;27/09/24;00:08:09;1.015;0.003;0.065;0.05253440886735916;-0.012217304669320583;0.004886921960860491
01:00:0A:00:00:00:00;1727395690;27/09/24;00:08:10;1.016;0.002;0.06;0.05253440886735916;-0.014660765416920185;0.0036651913542300463
01:00:0A:00:00:00:00;1727395691;27/09/24;00:08:11;1.016;0.002;0.061;0.051312677562236786;-0.006108652334660292;0.0036651913542300463
01:00:0A:00:00:00:00;1727395692;27/09/24;00:08:12;1.016;0.003;0.064;0.05009094998240471;-0.010995574295520782;0.004886921960860491
01:00:0A:00:00:00:00;1727395693;27/09/24;00:08:13;1.017;0.002;0.061;0.04886921867728233;-0.012217304669320583;0.004886921960860491
01:00:0A:00:00:00:00;1727395694;27/09/24;00:08:14;1.016;0.002;0.062;0.04886921867728233;-0.004886921960860491;0.0036651913542300463
01:00:0A:00:00:00:00;1727395695;27/09/24;00:08:15;1.016;0.002;0.065;0.04764748737215996;-0.009773843921720982;0.004886921960860491
01:00:0A:00:00:00:00;1727395696;27/09/24;00:08:16;1.016;0.002;0.061;0.04642575979232788;-0.014660765416920185;0.004886921960860491
01:00:0A:00:00:00:00;1727395697;27/09/24;00:08:17;1.016;0.002;0.062;0.04642575979232788;-0.0073303827084600925;0.0024434609804302454
01:00:0A:00:00:00:00;1727395698;27/09/24;00:08:18;1.016;0.002;0.064;0.04398229718208313;-0.009773843921720982;0.004886921960860491
01:00:0A:00:00:00:00;1727395699;27/09/24;00:08:19;1.015;0.001;0.062;0.04398229718208313;-0.013439035043120384;0.006108652334660292
01:00:0A:00:00:00:00;1727395700;27/09/24;00:08:20;1.016;0.002;0.061;0.042760565876960754;-0.0073303827084600925;0.0024434609804302454
01:00:0A:00:00:00:00;1727395701;27/09/24;00:08:21;1.016;0.004;0.064;0.04153883829712868;-0.010995574295520782;0.0036651913542300463
01:00:0A:00:00:00:00;1727395702;27/09/24;00:08:22;1.017;0.002;0.061;0.040317103266716;-0.013439035043120384;0.004886921960860491
01:00:0A:00:00:00:00;1727395703;27/09/24;00:08:23;1.016;0.002;0.062;0.040317103266716;-0.00855211354792118;0.0024434609804302454
01:00:0A:00:00:00:00;1727395704;27/09/24;00:08:24;1.016;0.003;0.065;0.039095375686883926;-0.00855211354792118;0.0036651913542300463
01:00:0A:00:00:00:00;1727395705;27/09/24;00:08:25;1.017;0.001;0.062;0.03787364438176155;-0.012217304669320583;0.006108652334660292
01:00:0A:00:00:00:00;1727395706;27/09/24;00:08:26;1.016;0.001;0.06;0.03787364438176155;-0.00855211354792118;0.0036651913542300463
01:00:0A:00:00:00:00;1727395707;27/09/24;00:08:27;1.016;0.003;0.063;0.036651913076639175;-0.009773843921720982;0.0036651913542300463
01:00:0A:00:00:00:00;1727395708;27/09/24;00:08:28;1.015;0.002;0.062;0.0354301817715168;-0.014660765416920185;0.006108652334660292
01:00:0A:00:00:00:00;1727395709;27/09/24;00:08:29;1.016;0.002;0.062;0.0354301817715168;-0.00855211354792118;0.0024434609804302454
01:00:0A:00:00:00:00;1727395710;27/09/24;00:08:30;1.016;0.004;0.063;0.03420845419168472;-0.009773843921720982;0.0024434609804302454
01:00:0A:00:00:00:00;1727395711;27/09/24;00:08:31;1.016;0.002;0.062;0.03298672288656235;-0.013439035043120384;0.006108652334660292
01:00:0A:00:00:00:00;1727395712;27/09/24;00:08:32;1.016;0.002;0.061;0.03298672288656235;-0.00855211354792118;0.0024434609804302454
01:00:0A:00:00:00:00;1727395713;27/09/24;00:08:33;1.016;0.003;0.064;0.03298672288656235;-0.00855211354792118;0.0036651913542300463
01:00:0A:00:00:00:00;1727395714;27/09/24;00:08:34;1.016;0.001;0.063;0.03176499158143997;-0.012217304669320583;0.006108652334660292
01:00:0A:00:00:00:00;1727395715;27/09/24;00:08:35;1.016;0.002;0.061;0.03176499158143997;-0.009773843921720982;0.0036651913542300463
01:00:0A:00:00:00:00;1727395716;27/09/24;00:08:36;1.016;0.003;0.063;0.03176499158143997;-0.00855211354792118;0.0024434609804302454
01:00:0A:00:00:00:00;1727395717;27/09/24;00:08:37;1.016;0.003;0.062;0.030543262138962746;-0.012217304669320583;0.004886921960860491
01:00:0A:00:00:00:00;1727395718;27/09/24;00:08:38;1.016;0.001;0.062;0.030543262138962746;-0.009773843921720982;0.0036651913542300463
01:00:0A:00:00:00:00;1727395719;27/09/24;00:08:39;1.016;0.002;0.062;0.030543262138962746;-0.00855211354792118;0.0024434609804302454
01:00:0A:00:00:00:00;1727395720;27/09/24;00:08:40;1.016;0.002;0.064;0.02932153083384037;-0.012217304669320583;0.004886921960860491
01:00:0A:00:00:00:00;1727395721;27/09/24;00:08:41;1.016;0.002;0.061;0.030543262138962746;-0.009773843921720982;0.0036651913542300463
01:00:0A:00:00:00:00;1727395722;27/09/24;00:08:42;1.016;0.002;0.062;0.030543262138962746;-0.009773843921720982;0.0024434609804302454
01:00:0A:00:00:00:00;1727395723;27/09/24;00:08:43;1.017;0.003;0.063;0.02932153083384037;-0.012217304669320583;0.004886921960860491
01:00:0A:00:00:00:00;1727395724;27/09/24;00:08:44;1.016;0.002;0.063;0.030543262138962746;-0.010995574295520782;0.0036651913542300463
01:00:0A:00:00:00:00;1727395725;27/09/24;00:08:45;1.016;0.003;0.063;0.030543262138962746;-0.0073303827084600925;0.0036651913542300463
01:00:0A:00:00:00:00;1727395726;27/09/24;00:08:46;1.016;0.002;0.063;0.02932153083384037;-0.009773843921720982;0.004886921960860491
01:00:0A:00:00:00:00;1727395727;27/09/24;00:08:47;1.015;0.002;0.061;0.030543262138962746;-0.010995574295520782;0.004886921960860491
01:00:0A:00:00:00:00;1727395728;27/09/24;00:08:48;1.016;0.002;0.062;0.030543262138962746;-0.009773843921720982;0.0024434609804302454
01:00:0A:00:00:00:00;1727395729;27/09/24;00:08:49;1.016;0.003;0.063;0.02932153083384037;-0.012217304669320583;0.004886921960860491
01:00:0A:00:00:00:00;1727395730;27/09/24;00:08:50;1.016;0.002;0.062;0.030543262138962746;-0.010995574295520782;0.0036651913542300463
01:00:0A:00:00:00:00;1727395731;27/09/24;00:08:51;1.017;0.001;0.063;0.030543262138962746;-0.00855211354792118;0.0036651913542300463
01:00:0A:00:00:00:00;1727395732;27/09/24;00:08:52;1.016;0.002;0.063;0.030543262138962746;-0.009773843921720982;0.004886921960860491
01:00:0A:00:00:00:00;1727395733;27/09/24;00:08:53;1.015;0.003;0.062;0.030543262138962746;-0.010995574295520782;0.004886921960860491
01:00:0A:00:00:00:00;1727395734;27/09/24;00:08:54;1.016;0.001;0.061;0.030543262138962746;-0.010995574295520782;0.0024434609804302454
01:00:0A:00:00:00:00;1727395735;27/09/24;00:08:55;1.016;0.002;0.063;0.030543262138962746;-0.010995574295520782;0.0036651913542300463
01:00:0A:00:00:00:00;1727395736;27/09/24;00:08:56;1.016;0.001;0.062;0.030543262138962746;-0.010995574295520782;0.0036651913542300463
01:00:0A:00:00:00:00;1727395737;27/09/24;00:08:57;1.017;0.001;0.062;0.03176499158143997;-0.009773843921720982;0.0036651913542300463
01:00:0A:00:00:00:00;1727395738;27/09/24;00:08:58;1.016;0.002;0.063;0.030543262138962746;-0.00855211354792118;0.0036651913542300463
01:00:0A:00:00:00:00;1727395739;27/09/24;00:08:59;1.015;0.002;0.062;0.030543262138962746;-0.010995574295520782;0.004886921960860491
01:00:0A:00:00:00:00;1727395740;27/09/24;00:09:00;1.016;0.002;0.063;0.03176499158143997;-0.010995574295520782;0.0036651913542300463
01:00:0A:00:00:00:00;1727395741;27/09/24;00:09:01;1.016;0.002;0.063;0.03176499158143997;-0.010995574295520782;0.0036651913542300463
01:00:0A:00:00:00:00;1727395742;27/09/24;00:09:02;1.017;0.002;0.062;0.030543262138962746;-0.009773843921720982;0.0036651913542300463
01:00:0A:00:00:00:00;1727395743;27/09/24;00:09:03;1.016;0.003;0.062;0.030543262138962746;-0.009773843921720982;0.0036651913542300463
01:00:0A:00:00:00:00;1727395744;27/09/24;00:09:04;1.016;0.003;0.062;0.030543262138962746;-0.009773843921720982;0.0036651913542300463
01:00:0A:00:00:00:00;1727395745;27/09/24;00:09:05;1.015;0.002;0.063;0.03176499158143997;-0.010995574295520782;0.0036651913542300463
01:00:0A:00:00:00:00;1727395746;27/09/24;00:09:06;1.015;0.001;0.061;0.03176499158143997;-0.010995574295520782;0.0036651913542300463
01:00:0A:00:00:00:00;1727395747;27/09/24;00:09:07;1.016;0.002;0.062;0.03176499158143997;-0.010995574295520782;0.0036651913542300463
01:00:0A:00:00:00:00;1727395748;27/09/24;00:09:08;1.016;0.001;0.062;0.03176499158143997;-0.010995574295520782;0.0036651913542300463
01:00:0A:00:00:00:00;1727395749;27/09/24;00:09:09;1.016;0.002;0.063;0.03176499158143997;-0.009773843921720982;0.0036651913542300463
01:00:0A:00:00:00:00;1727395750;27/09/24;00:09:10;1.016;0.002;0.063;0.03176499158143997;-0.009773843921720982;0.0036651913542300463
01:00:0A:00:00:00:00;1727395751;27/09/24;00:09:11;1.016;0.002;0.063;0.03176499158143997;-0.009773843921720982;0.0036651913542300463
01:00:0A:00:00:00:00;1727395752;27/09/24;00:09:12;1.015;0.0;0.061;0.03298672288656235;-0.010995574295520782;0.0024434609804302454
01:00:0A:00:00:00:00;1727395753;27/09/24;00:09:13;1.016;0.001;0.062;0.03298672288656235;-0.010995574295520782;0.0036651913542300463
01:00:0A:00:00:00:00;1727395754;27/09/24;00:09:14;1.016;0.002;0.062;0.03298672288656235;-0.009773843921720982;0.0036651913542300463
01:00:0A:00:00:00:00;1727395755;27/09/24;00:09:15;1.017;0.002;0.061;0.03298672288656235;-0.010995574295520782;0.0036651913542300463
01:00:0A:00:00:00:00;1727395756;27/09/24;00:09:16;1.017;0.005;0.049;0.0024434609804302454;-0.01710422709584236;0.0012217304902151227
01:00:0A:00:00:00:00;1727395757;27/09/24;00:09:17;1.016;0.004;0.049;-0.042760565876960754;-0.009773843921720982;0.0024434609804302454
01:00:0A:00:00:00:00;1727395758;27/09/24;00:09:18;1.016;0.002;0.062;-0.05375614017248154;0.0024434609804302454;0.0036651913542300463
01:00:0A:00:00:00:00;1727395759;27/09/24;00:09:19;1.016;0.001;0.068;-0.04764748737215996;-0.013439035043120384;-0.0012217304902151227
01:00:0A:00:00:00:00;1727395760;27/09/24;00:09:20;1.016;0.004;0.062;-0.042760565876960754;-0.02076941914856434;-0.0012217304902151227
01:00:0A:00:00:00:00;1727395761;27/09/24;00:09:21;1.015;0.004;0.058;-0.042760565876960754;-0.0073303827084600925;0.0036651913542300463
01:00:0A:00:00:00:00;1727395762;27/09/24;00:09:22;1.016;0.001;0.067;-0.03787364438176155;-0.006108652334660292;0.0024434609804302454
01:00:0A:00:00:00:00;1727395763;27/09/24;00:09:23;1.016;0.001;0.064;-0.03176499158143997;-0.019547687843441963;-0.0036651913542300463
01:00:0A:00:00:00:00;1727395764;27/09/24;00:09:24;1.016;0.004;0.058;-0.03298672288656235;-0.012217304669320583;0.0024434609804302454
01:00:0A:00:00:00:00;1727395765;27/09/24;00:09:25;1.016;0.002;0.064;-0.03176499158143997;-0.004886921960860491;0.004886921960860491
01:00:0A:00:00:00:00;1727395766;27/09/24;00:09:26;1.016;0.001;0.066;-0.025656338781118393;-0.015882495790719986;-0.0024434609804302454
01:00:0A:00:00:00:00;1727395767;27/09/24;00:09:27;1.016;0.005;0.06;-0.025656338781118393;-0.014660765416920185;0.0
01:00:0A:00:00:00:00;1727395768;27/09/24;00:09:28;1.016;0.002;0.06;-0.02687807008624077;-0.006108652334660292;0.006108652334660292
01:00:0A:00:00:00:00;1727395769;27/09/24;00:09:29;1.016;0.0;0.064;-0.02321287989616394;-0.012217304669320583;0.0
01:00:0A:00:00:00:00;1727395770;27/09/24;00:09:30;1.016;0.004;0.061;-0.02076941914856434;-0.015882495790719986;-0.0024434609804302454
01:00:0A:00:00:00:00;1727395771;27/09/24;00:09:31;1.016;0.003;0.06;-0.024434609338641167;-0.00855211354792118;0.006108652334660292
01:00:0A:00:00:00:00;1727395772;27/09/24;00:09:32;1.016;0.001;0.064;-0.02076941914856434;-0.009773843921720982;0.0024434609804302454
01:00:0A:00:00:00:00;1727395773;27/09/24;00:09:33;1.016;0.002;0.063;-0.01710422709584236;-0.014660765416920185;-0.0024434609804302454
01:00:0A:00:00:00:00;1727395774;27/09/24;00:09:34;1.016;0.004;0.061;-0.019547687843441963;-0.010995574295520782;0.004886921960860491
01:00:0A:00:00:00:00;1727395775;27/09/24;00:09:35;1.017;0.0;0.063;-0.018325956538319588;-0.00855211354792118;0.004886921960860491
01:00:0A:00:00:00:00;1727395776;27/09/24;00:09:36;1.016;0.002;0.063;-0.014660765416920185;-0.013439035043120384;-0.0024434609804302454
01:00:0A:00:00:00:00;1727395777;27/09/24;00:09:37;1.016;0.006;0.061;-0.015882495790719986;-0.012217304669320583;0.0024434609804302454
01:00:0A:00:00:00:00;1727395778;27/09/24;00:09:38;1.016;0.0;0.061;-0.015882495790719986;-0.009773843921720982;0.006108652334660292
01:00:0A:00:00:00:00;1727395779;27/09/24;00:09:39;1.016;0.002;0.063;-0.010995574295520782;-0.012217304669320583;-0.0024434609804302454
01:00:0A:00:00:00:00;1727395780;27/09/24;00:09:40;1.016;0.006;0.061;-0.012217304669320583;-0.013439035043120384;0.0012217304902151227
01:00:0A:00:00:00:00;1727395781;27/09/24;00:09:41;1.018;0.002;0.062;-0.013439035043120384;-0.009773843921720982;0.006108652334660292
01:00:0A:00:00:00:00;1727395782;27/09/24;00:09:42;1.016;0.001;0.062;-0.00855211354792118;-0.009773843921720982;-0.0012217304902151227
01:00:0A:00:00:00:00;1727395783;27/09/24;00:09:43;1.016;0.005;0.063;-0.00855211354792118;-0.012217304669320583;0.0
01:00:0A:00:00:00:00;1727395784;27/09/24;00:09:44;1.016;0.003;0.062;-0.009773843921720982;-0.010995574295520782;0.006108652334660292
01:00:0A:00:00:00:00;1727395785;27/09/24;00:09:45;1.016;0.001;0.063;-0.006108652334660292;-0.009773843921720982;0.0012217304902151227
01:00:0A:00:00:00:00;1727395786;27/09/24;00:09:46;1.017;0.004;0.063;-0.004886921960860491;-0.012217304669320583;0.0
01:00:0A:00:00:00:00;1727395787;27/09/24;00:09:47;1.017;0.003;0.062;-0.006108652334660292;-0.012217304669320583;0.006108652334660292
01:00:0A:00:00:00:00;1727395788;27/09/24;00:09:48;1.016;0.0;0.062;-0.0036651913542300463;-0.00855211354792118;0.0024434609804302454
01:00:0A:00:00:00:00;1727395789;27/09/24;00:09:49;1.016;0.003;0.062;-0.0024434609804302454;-0.010995574295520782;0.0
01:00:0A:00:00:00:00;1727395790;27/09/24;00:09:50;1.015;0.004;0.06;-0.0024434609804302454;-0.013439035043120384;0.004886921960860491
01:00:0A:00:00:00:00;1727395791;27/09/24;00:09:51;1.016;0.001;0.062;-0.0012217304902151227;-0.009773843921720982;0.0024434609804302454
01:00:0A:00:00:00:00;1727395792;27/09/24;00:09:52;1.017;0.002;0.064;0.0012217304902151227;-0.010995574295520782;0.0
01:00:0A:00:00:00:00;1727395793;27/09/24;00:09:53;1.016;0.002;0.062;0.0;-0.013439035043120384;0.004886921960860491
01:00:0A:00:00:00:00;1727395794;27/09/24;00:09:54;1.016;0.0;0.061;0.0012217304902151227;-0.009773843921720982;0.0036651913542300463
01:00:0A:00:00:00:00;1727395795;27/09/24;00:09:55;1.016;0.002;0.063;0.0036651913542300463;-0.009773843921720982;0.0012217304902151227
01:00:0A:00:00:00:00;1727395796;27/09/24;00:09:56;1.016;0.004;0.062;0.0036651913542300463;-0.013439035043120384;0.0036651913542300463
01:00:0A:00:00:00:00;1727395797;27/09/24;00:09:57;1.015;0.001;0.061;0.0036651913542300463;-0.010995574295520782;0.0036651913542300463
01:00:0A:00:00:00:00;1727395798;27/09/24;00:09:58;1.016;0.003;0.063;0.006108652334660292;-0.009773843921720982;0.0012217304902151227
01:00:0A:00:00:00:00;1727395799;27/09/24;00:09:59;1.016;0.003;0.063;0.006108652334660292;-0.012217304669320583;0.0036651913542300463
01:00:0A:00:00:00:00;1727395800;27/09/24;00:10:00;1.017;0.002;0.061;0.006108652334660292;-0.009773843921720982;0.004886921960860491
01:00:0A:00:00:00:00;1727395801;27/09/24;00:10:01;1.016;0.002;0.063;0.0073303827084600925;-0.00855211354792118;0.0012217304902151227
01:00:0A:00:00:00:00;1727395802;27/09/24;00:10:02;1.016;0.003;0.062;0.00855211354792118;-0.013439035043120384;0.0036651913542300463
01:00:0A:00:00:00:00;1727395803;27/09/24;00:10:03;1.016;0.002;0.06;0.00855211354792118;-0.012217304669320583;0.0036651913542300463
01:00:0A:00:00:00:00;1727395804;27/09/24;00:10:04;1.016;0.003;0.062;0.009773843921720982;-0.009773843921720982;0.0024434609804302454
01:00:0A:00:00:00:00;1727395805;27/09/24;00:10:05;1.016;0.004;0.064;0.009773843921720982;-0.012217304669320583;0.0024434609804302454
01:00:0A:00:00:00:00;1727395806;27/09/24;00:10:06;1.016;0.002;0.061;0.009773843921720982;-0.010995574295520782;0.0036651913542300463
01:00:0A:00:00:00:00;1727395807;27/09/24;00:10:07;1.016;0.002;0.063;0.010995574295520782;-0.00855211354792118;0.0024434609804302454
01:00:0A:00:00:00:00;1727395808;27/09/24;00:10:08;1.015;0.003;0.063;0.012217304669320583;-0.012217304669320583;0.0024434609804302454
01:00:0A:00:00:00:00;1727395809;27/09/24;00:10:09;1.016;0.002;0.061;0.012217304669320583;-0.012217304669320583;0.0036651913542300463
01:00:0A:00:00:00:00;1727395810;27/09/24;00:10:10;1.016;0.003;0.062;0.013439035043120384;-0.009773843921720982;0.0024434609804302454
01:00:0A:00:00:00:00;1727395811;27/09/24;00:10:11;1.017;0.003;0.063;0.013439035043120384;-0.012217304669320583;0.0036651913542300463
01:00:0A:00:00:00:00;1727395812;27/09/24;00:10:12;1.016;0.003;0.062;0.013439035043120384;-0.010995574295520782;0.0036651913542300463
01:00:0A:00:00:00:00;1727395813;27/09/24;00:10:13;1.016;0.002;0.062;0.014660765416920185;-0.00855211354792118;0.0024434609804302454
01:00:0A:00:00:00:00;1727395813;27/09/24;00:10:13;1.016;0.003;0.063;0.014660765416920185;-0.012217304669320583;0.0036651913542300463
01:00:0A:00:00:00:00;1727395814;27/09/24;00:10:14;1.016;0.002;0.061;0.015882495790719986;-0.012217304669320583;0.0036651913542300463
01:00:0A:00:00:00:00;1727395815;27/09/24;00:10:15;1.016;0.003;0.063;0.015882495790719986;-0.009773843921720982;0.0024434609804302454
01:00:0A:00:00:00:00;1727395816;27/09/24;00:10:16;1.016;0.002;0.062;0.015882495790719986;-0.010995574295520782;0.0036651913542300463
01:00:0A:00:00:00:00;1727395817;27/09/24;00:10:17;1.016;0.002;0.063;0.015882495790719986;-0.010995574295520782;0.0036651913542300463
01:00:0A:00:00:00:00;1727395818;27/09/24;00:10:18;1.016;0.003;0.063;0.01710422709584236;-0.009773843921720982;0.0024434609804302454
01:00:0A:00:00:00:00;1727395819;27/09/24;00:10:19;1.016;0.001;0.062;0.01710422709584236;-0.010995574295520782;0.0036651913542300463
01:00:0A:00:00:00:00;1727395820;27/09/24;00:10:20;1.016;0.002;0.062;0.01710422709584236;-0.012217304669320583;0.0036651913542300463
01:00:0A:00:00:00:00;1727395821;27/09/24;00:10:21;1.016;0.002;0.062;0.018325956538319588;-0.009773843921720982;0.0024434609804302454
01:00:0A:00:00:00:00;1727395822;27/09/24;00:10:22;1.016;0.002;0.063;0.01710422709584236;-0.010995574295520782;0.0036651913542300463
01:00:0A:00:00:00:00;1727395823;27/09/24;00:10:23;1.016;0.002;0.061;0.018325956538319588;-0.010995574295520782;0.0036651913542300463
01:00:0A:00:00:00:00;1727395824;27/09/24;00:10:24;1.016;0.002;0.062;0.018325956538319588;-0.009773843921720982;0.0024434609804302454
01:00:0A:00:00:00:00;1727395825;27/09/24;00:10:25;1.016;0.002;0.063;0.018325956538319588;-0.009773843921720982;0.0036651913542300463
01:00:0A:00:00:00:00;1727395826;27/09/24;00:10:26;1.016;0.001;0.061;0.018325956538319588;-0.012217304669320583;0.0036651913542300463
01:00:0A:00:00:00:00;1727395827;27/09/24;00:10:27;1.016;0.003;0.063;0.018325956538319588;-0.009773843921720982;0.0024434609804302454
01:00:0A:00:00:00:00;1727395828;27/09/24;00:10:28;1.016;0.003;0.063;0.018325956538319588;-0.009773843921720982;0.0036651913542300463
01:00:0A:00:00:00:00;1727395829;27/09/24;00:10:29;1.016;0.002;0.062;0.018325956538319588;-0.010995574295520782;0.0036651913542300463
01:00:0A:00:00:00:00;1727395830;27/09/24;00:10:30;1.016;0.001;0.062;0.019547687843441963;-0.010995574295520782;0.0024434609804302454
01:00:0A:00:00:00:00;1727395831;27/09/24;00:10:31;1.016;0.003;0.063;0.019547687843441963;-0.010995574295520782;0.0036651913542300463
01:00:0A:00:00:00:00;1727395832;27/09/24;00:10:32;1.016;0.001;0.063;0.018325956538319588;-0.010995574295520782;0.0036651913542300463
01:00:0A:00:00:00:00;1727395833;27/09/24;00:10:33;1.016;0.002;0.062;0.019547687843441963;-0.009773843921720982;0.0024434609804302454
01:00:0A:00:00:00:00;1727395834;27/09/24;00:10:34;1.016;0.003;0.061;0.019547687843441963;-0.009773843921720982;0.0036651913542300463
01:00:0A:00:00:00:00;1727395835;27/09/24;00:10:35;1.016;0.002;0.062;0.019547687843441963;-0.010995574295520782;0.0036651913542300463
01:00:0A:00:00:00:00;1727395836;27/09/24;00:10:36;1.016;0.002;0.062;0.019547687843441963;-0.010995574295520782;0.0024434609804302454
01:00:0A:00:00:00:00;1727395837;27/09/24;00:10:37;1.016;0.003;0.063;0.019547687843441963;-0.009773843921720982;0.0024434609804302454
01:00:0A:00:00:00:00;1727395838;27/09/24;00:10:38;1.017;0.002;0.062;0.019547687843441963;-0.010995574295520782;0.0036651913542300463
01:00:0A:00:00:00:00;1727395839;27/09/24;00:10:39;1.016;0.002;0.063;0.02076941914856434;-0.010995574295520782;0.0024434609804302454
01:00:0A:00:00:00:00;1727395840;27/09/24;00:10:40;1.016;0.002;0.062;0.02076941914856434;-0.010995574295520782;0.0024434609804302454
01:00:0A:00:00:00:00;1727395841;27/09/24;00:10:41;1.016;0.002;0.062;0.02076941914856434;-0.012217304669320583;0.0036651913542300463
01:00:0A:00:00:00:00;1727395842;27/09/24;00:10:42;1.015;-0.001;0.059;0.006108652334660292;-0.015882495790719986;0.009773843921720982
01:00:0A:00:00:00:00;1727395843;27/09/24;00:10:43;1.017;0.0;0.06;0.0;-0.009773843921720982;0.0012217304902151227
01:00:0A:00:00:00:00;1727395844;27/09/24;00:10:44;1.016;0.003;0.064;-0.0024434609804302454;-0.00855211354792118;-0.0012217304902151227
01:00:0A:00:00:00:00;1727395845;27/09/24;00:10:45;1.016;0.004;0.064;-0.0036651913542300463;-0.012217304669320583;0.004886921960860491
01:00:0A:00:00:00:00;1727395846;27/09/24;00:10:46;1.016;0.002;0.06;-0.0024434609804302454;-0.013439035043120384;0.004886921960860491
01:00:0A:00:00:00:00;1727395847;27/09/24;00:10:47;1.016;0.002;0.062;0.0012217304902151227;-0.009773843921720982;0.0
01:00:0A:00:00:00:00;1727395848;27/09/24;00:10:48;1.016;0.004;0.065;0.0012217304902151227;-0.010995574295520782;0.0024434609804302454
01:00:0A:00:00:00:00;1727395849;27/09/24;00:10:49;1.016;0.002;0.063;0.0;-0.013439035043120384;0.006108652334660292
01:00:0A:00:00:00:00;1727395850;27/09/24;00:10:50;1.016;0.0;0.06;0.0036651913542300463;-0.009773843921720982;0.0012217304902151227
01:00:0A:00:00:00:00;1727395851;27/09/24;00:10:51;1.016;0.003;0.063;0.0036651913542300463;-0.00855211354792118;0.0
01:00:0A:00:00:00:00;1727395852;27/09/24;00:10:52;1.016;0.003;0.064;0.0024434609804302454;-0.013439035043120384;0.004886921960860491
01:00:0A:00:00:00:00;1727395853;27/09/24;00:10:53;1.016;0.001;0.062;0.0036651913542300463;-0.012217304669320583;0.0024434609804302454
01:00:0A:00:00:00:00;1727395854;27/09/24;00:10:54;1.016;0.003;0.063;0.006108652334660292;-0.009773843921720982;0.0
01:00:0A:00:00:00:00;1727395855;27/09/24;00:10:55;1.016;0.004;0.064;0.004886921960860491;-0.012217304669320583;0.0036651913542300463
01:00:0A:00:00:00:00;1727395856;27/09/24;00:10:56;1.016;0.0;0.063;0.004886921960860491;-0.012217304669320583;0.004886921960860491
01:00:0A:00:00:00:00;1727395857;27/09/24;00:10:57;1.016;0.002;0.062;0.0073303827084600925;-0.00855211354792118;0.0012217304902151227
01:00:0A:00:00:00:00;1727395858;27/09/24;00:10:58;1.016;0.003;0.062;0.0073303827084600925;-0.010995574295520782;0.0024434609804302454
01:00:0A:00:00:00:00;1727395859;27/09/24;00:10:59;1.016;0.002;0.062;0.006108652334660292;-0.013439035043120384;0.004886921960860491
01:00:0A:00:00:00:00;1727395860;27/09/24;00:11:00;1.017;0.001;0.061;0.0073303827084600925;-0.009773843921720982;0.0024434609804302454
01:00:0A:00:00:00:00;1727395861;27/09/24;00:11:01;1.016;0.003;0.063;0.00855211354792118;-0.009773843921720982;0.0012217304902151227
01:00:0A:00:00:00:00;1727395862;27/09/24;00:11:02;1.016;0.002;0.063;0.0073303827084600925;-0.012217304669320583;0.004886921960860491
01:00:0A:00:00:00:00;1727395863;27/09/24;00:11:03;1.016;0.001;0.061;0.00855211354792118;-0.009773843921720982;0.0024434609804302454
01:00:0A:00:00:00:00;1727395864;27/09/24;00:11:04;1.015;0.002;0.062;0.009773843921720982;-0.009773843921720982;0.0012217304902151227
01:00:0A:00:00:00:00;1727395865;27/09/24;00:11:05;1.016;0.003;0.063;0.00855211354792118;-0.012217304669320583;0.0036651913542300463
01:00:0A:00:00:00:00;1727395866;27/09/24;00:11:06;1.016;0.001;0.061;0.009773843921720982;-0.010995574295520782;0.0036651913542300463
01:00:0A:00:00:00:00;1727395867;27/09/24;00:11:07;1.016;0.003;0.063;0.009773843921720982;-0.009773843921720982;0.0012217304902151227
01:00:0A:00:00:00:00;1727395868;27/09/24;00:11:08;1.016;0.003;0.062;0.009773843921720982;-0.010995574295520782;0.0036651913542300463
01:00:0A:00:00:00:00;1727395869;27/09/24;00:11:09;1.016;0.002;0.062;0.009773843921720982;-0.010995574295520782;0.0036651913542300463
01:00:0A:00:00:00:00;1727395870;27/09/24;00:11:10;1.017;0.001;0.062;0.010995574295520782;-0.009773843921720982;0.0024434609804302454
01:00:0A:00:00:00:00;1727395871;27/09/24;00:11:11;1.016;0.002;0.063;0.010995574295520782;-0.010995574295520782;0.0036651913542300463
01:00:0A:00:00:00:00;1727395872;27/09/24;00:11:12;1.016;0.002;0.063;0.010995574295520782;-0.012217304669320583;0.0036651913542300463
01:00:0A:00:00:00:00;1727395873;27/09/24;00:11:13;1.016;0.001;0.062;0.012217304669320583;-0.009773843921720982;0.0024434609804302454
01:00:0A:00:00:00:00;1727395874;27/09/24;00:11:14;1.016;0.003;0.062;0.012217304669320583;-0.009773843921720982;0.0024434609804302454
01:00:0A:00:00:00:00;1727395875;27/09/24;00:11:15;1.016;0.002;0.061;0.012217304669320583;-0.012217304669320583;0.0036651913542300463
01:00:0A:00:00:00:00;1727395876;27/09/24;00:11:16;1.015;0.002;0.061;0.012217304669320583;-0.010995574295520782;0.0024434609804302454
01:00:0A:00:00:00:00;1727395877;27/09/24;00:11:17;1.016;0.003;0.062;0.012217304669320583;-0.009773843921720982;0.0024434609804302454
01:00:0A:00:00:00:00;1727395878;27/09/24;00:11:18;1.016;0.001;0.062;0.012217304669320583;-0.012217304669320583;0.0036651913542300463
01:00:0A:00:00:00:00;1727395879;27/09/24;00:11:19;1.016;0.001;0.061;0.013439035043120384;-0.010995574295520782;0.0024434609804302454
01:00:0A:00:00:00:00;1727395880;27/09/24;00:11:20;1.016;0.003;0.062;0.013439035043120384;-0.009773843921720982;0.0024434609804302454
01:00:0A:00:00:00:00;1727395881;27/09/24;00:11:21;1.016;0.001;0.062;0.013439035043120384;-0.010995574295520782;0.0036651913542300463
01:00:0A:00:00:00:00;1727395882;27/09/24;00:11:22;1.016;0.001;0.062;0.014660765416920185;-0.010995574295520782;0.0024434609804302454
01:00:0A:00:00:00:00;1727395883;27/09/24;00:11:23;1.017;0.003;0.062;0.014660765416920185;-0.010995574295520782;0.0036651913542300463
01:00:0A:00:00:00:00;1727395884;27/09/24;00:11:24;1.016;0.001;0.062;0.014660765416920185;-0.010995574295520782;0.0036651913542300463
01:00:0A:00:00:00:00;1727395885;27/09/24;00:11:25;1.017;0.001;0.062;0.014660765416920185;-0.010995574295520782;0.0024434609804302454
01:00:0A:00:00:00:00;1727395886;27/09/24;00:11:26;1.016;0.002;0.061;0.014660765416920185;-0.009773843921720982;0.0036651913542300463
01:00:0A:00:00:00:00;1727395887;27/09/24;00:11:27;1.016;0.002;0.063;0.014660765416920185;-0.010995574295520782;0.0036651913542300463
01:00:0A:00:00:00:00;1727395888;27/09/24;00:11:28;1.017;0.002;0.063;0.015882495790719986;-0.010995574295520782;0.0024434609804302454
01:00:0A:00:00:00:00;1727395889;27/09/24;00:11:29;1.016;0.003;0.062;0.014660765416920185;-0.009773843921720982;0.0036651913542300463
01:00:0A:00:00:00:00;1727395890;27/09/24;00:11:30;1.015;0.002;0.062;0.015882495790719986;-0.009773843921720982;0.0036651913542300463
01:00:0A:00:00:00:00;1727395891;27/09/24;00:11:31;1.016;0.002;0.062;0.015882495790719986;-0.010995574295520782;0.0024434609804302454
01:00:0A:00:00:00:00;1727395892;27/09/24;00:11:32;1.016;0.002;0.063;0.014660765416920185;-0.010995574295520782;0.0036651913542300463
01:00:0A:00:00:00:00;1727395893;27/09/24;00:11:33;1.016;0.001;0.062;0.015882495790719986;-0.010995574295520782;0.0036651913542300463
01:00:0A:00:00:00:00;1727395894;27/09/24;00:11:34;1.017;0.003;0.063;0.015882495790719986;-0.010995574295520782;0.0024434609804302454
01:00:0A:00:00:00:00;1727395895;27/09/24;00:11:35;1.016;0.002;0.061;0.015882495790719986;-0.010995574295520782;0.0036651913542300463
01:00:0A:00:00:00:00;1727395896;27/09/24;00:11:36;1.016;0.001;0.062;0.015882495790719986;-0.010995574295520782;0.0036651913542300463
01:00:0A:00:00:00:00;1727395897;27/09/24;00:11:37;1.016;0.002;0.062;0.015882495790719986;-0.010995574295520782;0.0024434609804302454
01:00:0A:00:00:00:00;1727395898;27/09/24;00:11:38;1.016;0.003;0.062;0.015882495790719986;-0.010995574295520782;0.0036651913542300463
01:00:0A:00:00:00:00;1727395899;27/09/24;00:11:39;1.016;0.002;0.062;0.014660765416920185;-0.010995574295520782;0.0036651913542300463
01:00:0A:00:00:00:00;1727395900;27/09/24;00:11:40;1.016;0.002;0.062;0.015882495790719986;-0.009773843921720982;0.0024434609804302454
01:00:0A:00:00:00:00;1727395901;27/09/24;00:11:41;1.016;0.003;0.063;0.014660765416920185;-0.010995574295520782;0.0036651913542300463
01:00:0A:00:00:00:00;1727395902;27/09/24;00:11:42;1.016;0.002;0.062;0.014660765416920185;-0.010995574295520782;0.0036651913542300463
01:00:0A:00:00:00:00;1727395903;27/09/24;00:11:43;1.016;0.002;0.062;0.015882495790719986;-0.010995574295520782;0.0024434609804302454
01:00:0A:00:00:00:00;1727395904;27/09/24;00:11:44;1.016;0.002;0.062;0.014660765416920185;-0.010995574295520782;0.0036651913542300463
01:00:0A:00:00:00:00;1727395905;27/09/24;00:11:45;1.016;0.002;0.062;0.014660765416920185;-0.010995574295520782;0.0036651913542300463
01:00:0A:00:00:00:00;1727395906;27/09/24;00:11:46;1.016;0.001;0.063;0.014660765416920185;-0.009773843921720982;0.0024434609804302454
01:00:0A:00:00:00:00;1727395907;27/09/24;00:11:47;1.016;0.003;0.062;0.014660765416920185;-0.010995574295520782;0.0036651913542300463
01:00:0A:00:00:00:00;1727395908;27/09/24;00:11:48;1.015;0.001;0.061;0.013439035043120384;-0.009773843921720982;0.0073303827084600925
01:00:0A:00:00:00:00;1727395909;27/09/24;00:11:49;1.02;0.004;0.064;0.013439035043120384;-0.014660765416920185;0.014660765416920185
01:00:0A:00:00:00:00;1727395910;27/09/24;00:11:50;1.027;0.009;0.067;0.014660765416920185;-0.00855211354792118;0.009773843921720982
01:00:0A:00:00:00:00;1727395911;27/09/24;00:11:51;1.017;0.005;0.063;0.019547687843441963;0.0024434609804302454;-0.013439035043120384
01:00:0A:00:00:00:00;1727395912;27/09/24;00:11:52;1.009;0.001;0.065;0.024434609338641167;-0.0012217304902151227;-0.02321287989616394
01:00:0A:00:00:00:00;1727395913;27/09/24;00:11:53;1.0;-0.005;0.066;0.024434609338641167;-0.010995574295520782;-0.006108652334660292
01:00:0A:00:00:00:00;1727395914;27/09/24;00:11:54;0.995;-0.013;0.061;0.02687807008624077;-0.014660765416920185;0.00855211354792118
01:00:0A:00:00:00:00;1727395915;27/09/24;00:11:55;1.005;-0.013;0.055;0.03176499158143997;-0.02932153083384037;0.03787364438176155
01:00:0A:00:00:00:00;1727395916;27/09/24;00:11:56;1.027;-0.001;0.055;0.040317103266716;-0.036651913076639175;0.045204028487205505
01:00:0A:00:00:00:00;1727395917;27/09/24;00:11:57;1.054;0.011;0.061;0.051312677562236786;-0.02321287989616394;0.021991148591041565
01:00:0A:00:00:00:00;1727395918;27/09/24;00:11:58;1.047;0.026;0.051;0.059864792972803116;-0.00855211354792118;-0.06719517707824707
01:00:0A:00:00:00:00;1727395919;27/09/24;00:11:59;1.025;0.066;0.075;0.010995574295520782;0.036651913076639175;-0.09529497474431992
01:00:0A:00:00:00:00;1727395920;27/09/24;00:12:00;0.983;-0.048;0.033;-0.02321287989616394;-0.0354301817715168;0.12339477241039276
01:00:0A:00:00:00:00;1727395921;27/09/24;00:12:01;0.966;-0.055;0.027;0.0659734457731247;0.09162978082895279;-0.12095131725072861
01:00:0A:00:00:00:00;1727395922;27/09/24;00:12:02;0.993;0.028;0.072;0.02076941914856434;-0.013439035043120384;0.006108652334660292
01:00:0A:00:00:00:00;1727395923;27/09/24;00:12:03;1.012;0.098;0.038;-0.12828169763088226;-0.1869247555732727;0.06352998316287994
01:00:0A:00:00:00:00;1727395924;27/09/24;00:12:04;1.016;0.163;0.061;-0.3799581527709961;0.021991148591041565;0.1258382350206375
01:00:0A:00:00:00:00;1727395925;27/09/24;00:12:05;1.019;-0.008;0.17;-0.44715335965156555;-0.08796459436416626;-0.02932153083384037
01:00:0A:00:00:00:00;1727395926;27/09/24;00:12:06;1.038;-0.03;0.064;-0.436157763004303;-0.06108652427792549;0.018325956538319588
01:00:0A:00:00:00:00;1727395927;27/09/24;00:12:07;1.04;-0.041;-0.023;-0.3897320330142975;0.080634206533432;-0.00855211354792118
01:00:0A:00:00:00:00;1727395928;27/09/24;00:12:08;1.023;0.039;0.169;-0.33597588539123535;0.18936821818351746;-0.08918632566928864
01:00:0A:00:00:00:00;1727395929;27/09/24;00:12:09;0.987;0.037;0.003;-0.322536826133728;-0.2675589621067047;-0.07941248267889023
01:00:0A:00:00:00:00;1727395930;27/09/24;00:12:10;0.95;-0.019;0.033;-0.37629297375679016;0.10873401165008545;0.13927726447582245
01:00:0A:00:00:00:00;1727395931;27/09/24;00:12:11;0.965;-0.001;0.069;-0.294437050819397;-0.14905111491680145;-0.2028072476387024
01:00:0A:00:00:00:00;1727395932;27/09/24;00:12:12;1.002;0.089;0.08;-0.41661006212234497;-0.06352998316287994;0.21502456068992615
01:00:0A:00:00:00:00;1727395933;27/09/24;00:12:13;1.067;-0.091;0.046;-0.3078760802745819;0.0;-0.10873401165008545
01:00:0A:00:00:00:00;1727395934;27/09/24;00:12:14;1.065;0.128;0.123;-0.3042108714580536;0.07208210229873657;-0.059864792972803116
01:00:0A:00:00:00:00;1727395935;27/09/24;00:12:15;1.046;-0.07;0.105;-0.3848450779914856;0.09407324343919754;0.09529497474431992
01:00:0A:00:00:00:00;1727395936;27/09/24;00:12:16;0.966;0.054;0.136;-0.36651912331581116;0.08307767659425735;-0.2871066629886627
01:00:0A:00:00:00:00;1727395937;27/09/24;00:12:17;0.951;0.025;0.081;-0.4544837474822998;-0.22968533635139465;0.11484266817569733
01:00:0A:00:00:00:00;1727395938;27/09/24;00:12:18;0.986;0.019;0.021;-0.38117989897727966;-0.080634206533432;-0.14905111491680145
01:00:0A:00:00:00:00;1727395939;27/09/24;00:12:19;1.015;0.118;0.055;-0.50335294008255;-0.04764748737215996;0.13927726447582245
01:00:0A:00:00:00:00;1727395940;27/09/24;00:12:20;1.057;-0.012;0.061;-0.5119050741195679;-0.0708603635430336;-0.02687807008624077
01:00:0A:00:00:00:00;1727395941;27/09/24;00:12:21;1.052;0.092;0.042;-0.5497786998748779;0.019547687843441963;-0.10018189996480942
01:00:0A:00:00:00:00;1727395942;27/09/24;00:12:22;1.022;-0.004;0.108;-0.598647952079773;-0.014660765416920185;0.13072516024112701
01:00:0A:00:00:00:00;1727395943;27/09/24;00:12:23;1.001;0.006;-0.048;-0.4911356568336487;-0.10506881773471832;-0.1062905490398407
01:00:0A:00:00:00:00;1727395944;27/09/24;00:12:24;0.985;0.041;0.084;-0.5412266254425049;0.20402899384498596;0.13072516024112701
01:00:0A:00:00:00:00;1727395945;27/09/24;00:12:25;0.999;-0.055;0.059;-0.4202752709388733;-0.24678954482078552;-0.0757472887635231
01:00:0A:00:00:00:00;1727395946;27/09/24;00:12:26;1.01;0.064;-0.004;-0.40194931626319885;0.10018189996480942;-0.03787364438176155
01:00:0A:00:00:00:00;1727395947;27/09/24;00:12:27;1.033;0.015;0.032;-0.4202752709388733;-0.036651913076639175;-0.004886921960860491
01:00:0A:00:00:00:00;1727395948;27/09/24;00:12:28;1.032;0.071;-0.005;-0.4495967924594879;-0.10995574295520782;0.014660765416920185
01:00:0A:00:00:00:00;1727395949;27/09/24;00:12:29;1.019;0.024;0.078;-0.4715879559516907;0.19303341209888458;0.0073303827084600925
01:00:0A:00:00:00:00;1727395950;27/09/24;00:12:30;1.006;-0.066;0.145;-0.3237585723400116;-0.0012217304902151227;-0.0012217304902151227
01:00:0A:00:00:00:00;1727395951;27/09/24;00:12:31;0.988;0.088;0.007;-0.23090705275535583;-0.1722639948129654;-0.2223549485206604
01:00:0A:00:00:00:00;1727395952;27/09/24;00:12:32;0.978;0.101;-0.031;-0.4703662395477295;-0.08307767659425735;0.26633724570274353
01:00:0A:00:00:00:00;1727395953;27/09/24;00:12:33;0.993;-0.056;-0.093;-0.533896267414093;0.10506881773471832;0.34208452701568604
01:00:0A:00:00:00:00;1727395954;27/09/24;00:12:34;1.002;-0.239;0.017;-0.2724458873271942;0.4495967924594879;-0.26022857427597046
01:00:0A:00:00:00:00;1727395955;27/09/24;00:12:35;1.002;0.088;0.3;-0.16859880089759827;-0.17837265133857727;-0.02932153083384037
01:00:0A:00:00:00:00;1727395956;27/09/24;00:12:36;1.038;-0.108;0.08;-0.15882496535778046;-0.004886921960860491;0.10262535512447357
01:00:0A:00:00:00:00;1727395957;27/09/24;00:12:37;1.007;0.099;0.139;-0.03420845419168472;0.07819075137376785;-0.26145032048225403
01:00:0A:00:00:00:00;1727395958;27/09/24;00:12:38;0.968;0.06;0.102;-0.16371189057826996;-0.16493360698223114;0.15027284622192383
01:00:0A:00:00:00:00;1727395959;27/09/24;00:12:39;0.97;0.055;-0.006;-0.21991148591041565;-0.09529497474431992;0.009773843921720982
01:00:0A:00:00:00:00;1727395960;27/09/24;00:12:40;1.021;0.035;0.019;-0.37262779474258423;0.08918632566928864;0.34574973583221436
01:00:0A:00:00:00:00;1727395961;27/09/24;00:12:41;1.048;-0.231;0.149;-0.21013763546943665;-0.07696902006864548;-0.19792033731937408
01:00:0A:00:00:00:00;1727395962;27/09/24;00:12:42;1.001;0.4;-0.038;-0.39706242084503174;0.17348572611808777;0.01710422709584236
01:00:0A:00:00:00:00;1727395963;27/09/24;00:12:43;1.033;-0.162;0.176;-0.4996877610683441;0.03176499158143997;0.3579670488834381
01:00:0A:00:00:00:00;1727395964;27/09/24;00:12:44;0.999;0.011;0.093;-0.2076941877603531;0.19547687470912933;-0.4996877610683441
01:00:0A:00:00:00:00;1727395965;27/09/24;00:12:45;0.867;0.31;0.149;-0.5998696088790894;-0.6988298296928406;-0.33964109420776367
01:00:0A:00:00:00:00;1727395966;27/09/24;00:12:46;0.879;0.193;-0.326;-1.3048081398010254;-1.1826351881027222;0.8429940342903137
01:00:0A:00:00:00:00;1727395967;27/09/24;00:12:47;0.94;0.24;-0.193;-1.7373007535934448;0.10262535512447357;1.0519099235534668
01:00:0A:00:00:00:00;1727395968;27/09/24;00:12:48;0.973;-0.14;-0.182;-2.5754077434539795;0.3530800938606262;0.3628539443016052
01:00:0A:00:00:00:00;1727395969;27/09/24;00:12:49;1.022;-0.117;0.123;-2.1392500400543213;0.12950342893600464;-0.09285151958465576
01:00:0A:00:00:00:00;1727395970;27/09/24;00:12:50;1.015;-0.005;0.154;-1.8716909885406494;-0.14416420459747314;-0.2675589621067047
01:00:0A:00:00:00:00;1727395971;27/09/24;00:12:51;0.987;-0.078;-0.047;-2.2956316471099854;-0.4642575681209564;0.9272934198379517
01:00:0A:00:00:00:00;1727395972;27/09/24;00:12:52;0.972;0.044;0.066;-2.0928242206573486;0.44226640462875366;-0.06963863223791122
01:00:0A:00:00:00:00;1727395973;27/09/24;00:12:53;0.98;-0.156;-0.07;-1.6896531581878662;-0.34208452701568604;-0.2687807083129883
01:00:0A:00:00:00:00;1727395974;27/09/24;00:12:54;0.908;0.41;0.133;-1.8264870643615723;-0.7147123217582703;0.03787364438176155
01:00:0A:00:00:00:00;1727395975;27/09/24;00:12:55;0.97;0.308;0.142;-1.987755537033081;-1.1655309200286865;0.09040805697441101
01:00:0A:00:00:00:00;1727395976;27/09/24;00:12:56;0.956;0.34;0.157;-2.1991147994995117;-0.3090977966785431;0.013439035043120384
01:00:0A:00:00:00:00;1727395977;27/09/24;00:12:57;1.017;-0.044;0.149;-1.8875735998153687;-0.2785545289516449;-0.6084217429161072
01:00:0A:00:00:00:00;1727395978;27/09/24;00:12:58;0.888;0.1;0.477;-1.6859880685806274;0.05009094998240471;-0.5925393104553223
01:00:0A:00:00:00:00;1727395979;27/09/24;00:12:59;0.887;0.051;0.45;-1.281595230102539;-0.37262779474258423;-0.836885392665863
01:00:0A:00:00:00:00;1727395980;27/09/24;00:13:00;0.935;0.123;0.292;-1.1288789510726929;-0.4092797040939331;-0.7318165302276611
01:00:0A:00:00:00:00;1727395981;27/09/24;00:13:01;0.915;0.308;0.17;-1.3194688558578491;-1.260825753211975;-0.32009339332580566
01:00:0A:00:00:00:00;1727395982;27/09/24;00:13:02;0.926;0.352;0.123;-2.046398639678955;-0.9724974632263184;-0.006108652334660292
01:00:0A:00:00:00:00;1727395983;27/09/24;00:13:03;0.974;0.213;0.271;-2.138028383255005;-0.6145303845405579;-0.12217304855585098
01:00:0A:00:00:00:00;1727395984;27/09/24;00:13:04;1.008;0.277;0.119;-2.057394027709961;-0.21624629199504852;-0.6731734871864319
01:00:0A:00:00:00:00;1727395985;27/09/24;00:13:05;0.959;-0.011;0.417;-1.9156733751296997;-0.30543261766433716;-0.6194173693656921
01:00:0A:00:00:00:00;1727395986;27/09/24;00:13:06;0.911;0.325;0.246;-1.803274154663086;-0.27122414112091064;-0.8271114826202393
01:00:0A:00:00:00:00;1727395987;27/09/24;00:13:07;0.894;0.03;0.406;-1.5992451906204224;-0.3042108714580536;-0.6426302194595337
01:00:0A:00:00:00:00;1727395988;27/09/24;00:13:08;0.931;0.108;0.309;-1.186300277709961;-0.5583308339118958;-0.5119050741195679
01:00:0A:00:00:00:00;1727395989;27/09/24;00:13:09;1.006;0.08;0.162;-1.1007791757583618;-0.4141666293144226;-0.0024434609804302454
01:00:0A:00:00:00:00;1727395990;27/09/24;00:13:10;1.066;0.018;0.024;-0.9822713136672974;0.08796459436416626;0.040317103266716
01:00:0A:00:00:00:00;1727395991;27/09/24;00:13:11;1.045;-0.146;0.207;-0.6646214127540588;0.09529497474431992;-0.18570303916931152
01:00:0A:00:00:00:00;1727395992;27/09/24;00:13:12;0.95;0.283;0.187;-0.6365215182304382;-0.03787364438176155;-0.6120869517326355
01:00:0A:00:00:00:00;1727395993;27/09/24;00:13:13;0.969;0.143;0.063;-0.9028588533401489;-0.4899139106273651;0.06230825558304787
01:00:0A:00:00:00:00;1727395994;27/09/24;00:13:14;0.94;0.092;-0.078;-1.0714576244354248;-0.2822197377681732;0.051312677562236786
01:00:0A:00:00:00:00;1727395995;27/09/24;00:13:15;0.968;0.117;0.047;-1.214400053024292;-0.021991148591041565;0.38117989897727966
01:00:0A:00:00:00:00;1727395996;27/09/24;00:13:16;1.041;-0.033;0.071;-1.0103710889816284;-0.012217304669320583;-0.3017674386501312
01:00:0A:00:00:00:00;1727395997;27/09/24;00:13:17;1.017;0.195;0.28;-0.9737191796302795;-0.34086278080940247;-0.12339477241039276
01:00:0A:00:00:00:00;1727395998;27/09/24;00:13:18;1.029;0.228;-0.032;-1.0531316995620728;-0.15393804013729095;-0.05497787147760391
01:00:0A:00:00:00:00;1727395999;27/09/24;00:13:19;1.009;-0.161;0.054;-0.9162978529930115;-0.15515977144241333;0.1771509200334549
01:00:0A:00:00:00:00;1727396000;27/09/24;00:13:20;0.967;0.191;0.124;-0.7538076639175415;0.2223549485206604;-0.5998696088790894
01:00:0A:00:00:00:00;1727396001;27/09/24;00:13:21;0.902;0.352;0.182;-1.036027431488037;-0.9346237778663635;-0.2785545289516449
01:00:0A:00:00:00:00;1727396002;27/09/24;00:13:22;0.869;0.387;-0.316;-1.5870277881622314;-1.3170254230499268;0.4508185386657715
01:00:0A:00:00:00:00;1727396003;27/09/24;00:13:23;0.84;0.579;0.005;-2.057394027709961;-0.7880162000656128;0.36163222789764404
01:00:0A:00:00:00:00;1727396004;27/09/24;00:13:24;0.977;0.289;0.001;-2.2101104259490967;-0.846659243106842;0.2076941877603531
01:00:0A:00:00:00:00;1727396005;27/09/24;00:13:25;1.039;0.008;0.001;-2.3823745250701904;-0.015882495790719986;0.05375614017248154
01:00:0A:00:00:00:00;1727396006;27/09/24;00:13:26;0.988;-0.177;0.261;-2.001194477081299;0.24434609711170197;-0.6524040699005127
01:00:0A:00:00:00:00;1727396007;27/09/24;00:13:27;0.858;0.18;0.495;-1.5821410417556763;-1.1313223838806152;-1.1313223838806152
01:00:0A:00:00:00:00;1727396008;27/09/24;00:13:28;0.93;0.002;0.379;-1.3524556159973145;0.05497787147760391;0.1111774742603302
01:00:0A:00:00:00:00;1727396009;27/09/24;00:13:29;0.875;0.288;0.366;-0.8319984674453735;-0.7806857824325562;-1.4758504629135132
01:00:0A:00:00:00:00;1727396010;27/09/24;00:13:30;0.732;0.626;-0.112;-1.1533136367797852;-1.7360789775848389;0.6499606370925903
01:00:0A:00:00:00:00;1727396011;27/09/24;00:13:31;0.904;0.158;-0.433;-1.2571606636047363;0.09896016865968704;0.38728854060173035
01:00:0A:00:00:00:00;1727396012;27/09/24;00:13:32;1.011;-0.112;0.222;-1.3768903017044067;0.14782939851284027;0.6438519358634949
01:00:0A:00:00:00:00;1727396013;27/09/24;00:13:33;1.006;-0.128;0.168;-0.645073652267456;1.5980234146118164;0.39828410744667053
01:00:0A:00:00:00:00;1727396014;27/09/24;00:13:34;1.013;0.133;0.15;-2.1783454418182373;-0.4141666293144226;-0.45814892649650574
01:00:0A:00:00:00:00;1727396015;27/09/24;00:13:35;0.982;0.107;-0.069;-2.0952677726745605;-0.7012733221054077;0.24678954482078552
01:00:0A:00:00:00:00;1727396016;27/09/24;00:13:36;0.915;0.064;-0.28;-2.2382102012634277;-0.5717698335647583;0.9712756872177124
01:00:0A:00:00:00:00;1727396017;27/09/24;00:13:37;0.956;-0.323;-0.219;-1.2877038717269897;0.3274237811565399;-0.322536826133728
01:00:0A:00:00:00:00;1727396018;27/09/24;00:13:38;0.988;-0.213;0.224;-2.0231857299804688;0.14782939851284027;-0.29565879702568054
01:00:0A:00:00:00:00;1727396019;27/09/24;00:13:39;1.03;-0.259;0.181;-1.624901533126831;-0.0024434609804302454;-0.38117989897727966
01:00:0A:00:00:00:00;1727396020;27/09/24;00:13:40;0.981;-0.075;0.534;-0.9761626720428467;0.7745770812034607;-0.03298672288656235
01:00:0A:00:00:00:00;1727396021;27/09/24;00:13:41;0.96;0.283;0.241;-1.4868459701538086;-0.6963863372802734;-0.2871066629886627
01:00:0A:00:00:00:00;1727396022;27/09/24;00:13:42;0.969;-0.008;-0.202;-1.588249683380127;-0.44715335965156555;0.38117989897727966
01:00:0A:00:00:00:00;1727396023;27/09/24;00:13:43;0.941;0.137;-0.147;-1.7678439617156982;-0.04886921867728233;0.2724458873271942
01:00:0A:00:00:00:00;1727396024;27/09/24;00:13:44;0.959;0.227;-0.066;-1.4746286869049072;-0.06475171446800232;0.5827654600143433
01:00:0A:00:00:00:00;1727396025;27/09/24;00:13:45;0.976;0.215;0.224;-0.8881980776786804;-0.2822197377681732;-0.12828169763088226
01:00:0A:00:00:00:00;1727396026;27/09/24;00:13:46;1.047;0.0;0.15;-0.9358454942703247;-0.3188716471195221;0.22968533635139465
01:00:0A:00:00:00:00;1727396027;27/09/24;00:13:47;1.013;0.009;-0.298;-0.8906415700912476;-0.08185594528913498;-0.006108652334660292
01:00:0A:00:00:00:00;1727396028;27/09/24;00:13:48;1.034;0.069;0.146;-0.960280179977417;0.19425514340400696;0.14416420459747314
01:00:0A:00:00:00:00;1727396029;27/09/24;00:13:49;1.013;-0.041;-0.138;-0.7171557545661926;-0.2480112910270691;-0.06352998316287994
01:00:0A:00:00:00:00;1727396030;27/09/24;00:13:50;0.987;0.059;0.071;-0.7892378568649292;0.38117989897727966;0.2272418737411499
01:00:0A:00:00:00:00;1727396031;27/09/24;00:13:51;0.986;-0.118;0.05;-0.5424482822418213;-0.14905111491680145;-0.04398229718208313
01:00:0A:00:00:00:00;1727396032;27/09/24;00:13:52;1.0;0.099;-0.02;-0.5094615817070007;0.010995574295520782;-0.13927726447582245
01:00:0A:00:00:00:00;1727396033;27/09/24;00:13:53;1.025;0.071;-0.011;-0.6096435189247131;-0.14294245839118958;0.3347541391849518
01:00:0A:00:00:00:00;1727396034;27/09/24;00:13:54;1.035;-0.062;-0.09;-0.5803219676017761;0.09285151958465576;-0.10506881773471832
01:00:0A:00:00:00:00;1727396035;27/09/24;00:13:55;1.023;0.153;0.2;-0.5693264007568359;0.01710422709584236;-0.0012217304902151227
01:00:0A:00:00:00:00;1727396036;27/09/24;00:13:56;1.05;0.0;-0.034;-0.48747044801712036;-0.23457224667072296;0.06230825558304787
01:00:0A:00:00:00:00;1727396037;27/09/24;00:13:57;1.016;0.064;-0.069;-0.5241223573684692;0.039095375686883926;0.042760565876960754
01:00:0A:00:00:00:00;1727396038;27/09/24;00:13:58;0.998;-0.056;0.081;-0.5180137157440186;0.1319468915462494;0.14538592100143433
01:00:0A:00:00:00:00;1727396039;27/09/24;00:13:59;0.998;0.005;0.045;-0.39584067463874817;-0.06230825558304787;-0.17470745742321014
01:00:0A:00:00:00:00;1727396040;27/09/24;00:14:00;1.004;0.076;0.017;-0.4337143301963806;-0.09773843735456467;0.14416420459747314
01:00:0A:00:00:00:00;1727396041;27/09/24;00:14:01;1.027;-0.05;-0.019;-0.41783180832862854;-0.08674286305904388;0.09896016865968704
01:00:0A:00:00:00:00;1727396042;27/09/24;00:14:02;1.038;-0.023;0.0;-0.375071257352829;0.03420845419168472;-0.03787364438176155
01:00:0A:00:00:00:00;1727396043;27/09/24;00:14:03;1.015;0.04;0.138;-0.3628539443016052;-0.03298672288656235;-0.02321287989616394
01:00:0A:00:00:00:00;1727396044;27/09/24;00:14:04;1.01;0.023;0.042;-0.3433062732219696;-0.1966986060142517;0.03420845419168472
01:00:0A:00:00:00:00;1727396045;27/09/24;00:14:05;1.008;0.028;-0.029;-0.4153883755207062;0.09407324343919754;0.07452555745840073
01:00:0A:00:00:00:00;1727396046;27/09/24;00:14:06;1.022;0.001;0.097;-0.40194931626319885;0.04642575979232788;0.08552113175392151
01:00:0A:00:00:00:00;1727396047;27/09/24;00:14:07;1.033;0.023;0.066;-0.31154125928878784;-0.12950342893600464;-0.04764748737215996
01:00:0A:00:00:00:00;1727396048;27/09/24;00:14:08;1.026;0.084;0.042;-0.3335324227809906;0.0;-0.01710422709584236
01:00:0A:00:00:00:00;1727396049;27/09/24;00:14:09;1.021;0.013;0.082;-0.3347541391849518;0.0036651913542300463;0.04764748737215996
01:00:0A:00:00:00:00;1727396050;27/09/24;00:14:10;1.017;0.039;0.091;-0.27000245451927185;-0.0012217304902151227;-0.014660765416920185
01:00:0A:00:00:00:00;1727396051;27/09/24;00:14:11;1.023;0.041;0.124;-0.21624629199504852;-0.040317103266716;0.014660765416920185
01:00:0A:00:00:00:00;1727396052;27/09/24;00:14:12;1.035;-0.009;0.056;-0.14416420459747314;-0.05253440886735916;0.0024434609804302454
01:00:0A:00:00:00:00;1727396053;27/09/24;00:14:13;1.018;0.056;0.062;-0.12217304855585098;0.05619959905743599;-0.051312677562236786
01:00:0A:00:00:00:00;1727396054;27/09/24;00:14:14;0.993;0.011;0.076;-0.1062905490398407;0.01710422709584236;0.06108652427792549
01:00:0A:00:00:00:00;1727396055;27/09/24;00:14:15;0.975;-0.003;0.012;-0.042760565876960754;-0.06352998316287994;-0.051312677562236786
01:00:0A:00:00:00:00;1727396056;27/09/24;00:14:16;0.987;0.025;0.016;-0.04886921867728233;0.05619959905743599;-0.028099799528717995
01:00:0A:00:00:00:00;1727396057;27/09/24;00:14:17;1.03;0.012;0.064;-0.04398229718208313;-0.09651670604944229;0.025656338781118393
01:00:0A:00:00:00:00;1727396058;27/09/24;00:14:18;1.048;-0.007;0.017;-0.039095375686883926;-0.05619959905743599;-0.0024434609804302454
01:00:0A:00:00:00:00;1727396059;27/09/24;00:14:19;1.042;0.018;0.058;-0.051312677562236786;0.00855211354792118;-0.00855211354792118
01:00:0A:00:00:00:00;1727396060;27/09/24;00:14:20;1.001;0.012;0.073;-0.05742133408784866;0.009773843921720982;0.010995574295520782
01:00:0A:00:00:00:00;1727396061;27/09/24;00:14:21;0.985;0.004;0.046;-0.05864306166768074;-0.015882495790719986;0.012217304669320583
01:00:0A:00:00:00:00;1727396062;27/09/24;00:14:22;0.996;0.004;0.044;-0.0708603635430336;0.04764748737215996;0.045204028487205505
01:00:0A:00:00:00:00;1727396063;27/09/24;00:14:23;1.009;-0.002;0.069;-0.04886921867728233;-0.021991148591041565;0.025656338781118393
01:00:0A:00:00:00:00;1727396064;27/09/24;00:14:24;1.016;0.013;0.048;-0.030543262138962746;-0.04764748737215996;-0.006108652334660292
01:00:0A:00:00:00:00;1727396065;27/09/24;00:14:25;1.011;0.022;0.041;-0.04764748737215996;-0.015882495790719986;0.02076941914856434
01:00:0A:00:00:00:00;1727396066;27/09/24;00:14:26;1.023;0.005;0.057;-0.059864792972803116;-0.013439035043120384;0.02932153083384037
01:00:0A:00:00:00:00;1727396067;27/09/24;00:14:27;1.035;0.018;0.053;-0.05742133408784866;-0.012217304669320583;0.010995574295520782
01:00:0A:00:00:00:00;1727396068;27/09/24;00:14:28;1.044;0.039;0.04;-0.05864306166768074;0.0024434609804302454;-0.013439035043120384
01:00:0A:00:00:00:00;1727396069;27/09/24;00:14:29;1.024;0.02;0.052;-0.051312677562236786;0.0036651913542300463;-0.04764748737215996
01:00:0A:00:00:00:00;1727396070;27/09/24;00:14:30;1.005;0.006;0.048;-0.02932153083384037;-0.018325956538319588;-0.05619959905743599
01:00:0A:00:00:00:00;1727396071;27/09/24;00:14:31;0.98;0.0;0.043;-0.024434609338641167;-0.028099799528717995;-0.04764748737215996
01:00:0A:00:00:00:00;1727396072;27/09/24;00:14:32;0.987;0.0;0.055;-0.03420845419168472;0.009773843921720982;-0.0012217304902151227
01:00:0A:00:00:00:00;1727396073;27/09/24;00:14:33;1.012;-0.004;0.062;-0.02687807008624077;-0.014660765416920185;0.036651913076639175
01:00:0A:00:00:00:00;1727396074;27/09/24;00:14:34;1.017;0.0;0.043;-0.012217304669320583;-0.030543262138962746;0.040317103266716
01:00:0A:00:00:00:00;1727396075;27/09/24;00:14:35;1.019;0.032;0.031;-0.013439035043120384;-0.03787364438176155;0.021991148591041565
01:00:0A:00:00:00:00;1727396076;27/09/24;00:14:36;1.023;0.034;0.05;-0.014660765416920185;-0.045204028487205505;0.004886921960860491
01:00:0A:00:00:00:00;1727396077;27/09/24;00:14:37;1.027;0.016;0.059;-0.0024434609804302454;-0.0354301817715168;-0.01710422709584236
01:00:0A:00:00:00:00;1727396078;27/09/24;00:14:38;1.04;0.018;0.062;-0.004886921960860491;0.02076941914856434;-0.036651913076639175
01:00:0A:00:00:00:00;1727396079;27/09/24;00:14:39;1.045;0.013;0.07;-0.00855211354792118;0.05497787147760391;-0.010995574295520782
01:00:0A:00:00:00:00;1727396080;27/09/24;00:14:40;1.023;0.006;0.056;-0.009773843921720982;0.045204028487205505;0.0
01:00:0A:00:00:00:00;1727396081;27/09/24;00:14:41;1.0;0.009;0.054;-0.004886921960860491;0.02932153083384037;0.0
01:00:0A:00:00:00:00;1727396082;27/09/24;00:14:42;0.97;0.003;0.046;0.0036651913542300463;-0.02687807008624077;0.018325956538319588
01:00:0A:00:00:00:00;1727396083;27/09/24;00:14:43;0.974;0.006;0.031;0.19303341209888458;-0.09773843735456467;0.010995574295520782
01:00:0A:00:00:00:00;1727396084;27/09/24;00:14:44;1.015;0.016;0.072;0.6328563690185547;-0.02321287989616394;-0.021991148591041565
01:00:0A:00:00:00:00;1727396085;27/09/24;00:14:45;1.054;0.018;-0.018;0.8283332586288452;0.030543262138962746;0.010995574295520782
01:00:0A:00:00:00:00;1727396086;27/09/24;00:14:46;1.06;0.056;0.105;0.7232644557952881;0.019547687843441963;0.012217304669320583
01:00:0A:00:00:00:00;1727396087;27/09/24;00:14:47;1.057;0.015;0.042;0.6365215182304382;0.0073303827084600925;0.07330382615327835
01:00:0A:00:00:00:00;1727396088;27/09/24;00:14:48;1.036;0.008;0.066;0.5827654600143433;0.07208210229873657;0.0012217304902151227
01:00:0A:00:00:00:00;1727396089;27/09/24;00:14:49;0.982;0.031;0.017;0.5351179242134094;-0.0354301817715168;-0.024434609338641167
01:00:0A:00:00:00:00;1727396090;27/09/24;00:14:50;0.963;-0.001;0.038;0.46670106053352356;0.045204028487205505;0.028099799528717995
01:00:0A:00:00:00:00;1727396091;27/09/24;00:14:51;0.97;0.009;0.054;0.4593706727027893;-0.11972958594560623;0.021991148591041565
01:00:0A:00:00:00:00;1727396092;27/09/24;00:14:52;0.992;0.02;0.032;0.4105014204978943;0.02687807008624077;0.040317103266716
01:00:0A:00:00:00:00;1727396093;27/09/24;00:14:53;1.037;0.04;0.072;0.3897320330142975;-0.018325956538319588;-0.006108652334660292
01:00:0A:00:00:00:00;1727396094;27/09/24;00:14:54;1.058;0.038;0.051;0.3591887652873993;-0.014660765416920185;-0.03787364438176155
01:00:0A:00:00:00:00;1727396095;27/09/24;00:14:55;1.056;0.002;0.05;0.3323107063770294;0.00855211354792118;-0.040317103266716
01:00:0A:00:00:00:00;1727396096;27/09/24;00:14:56;1.037;0.011;0.06;0.31031954288482666;0.018325956538319588;-0.040317103266716
01:00:0A:00:00:00:00;1727396097;27/09/24;00:14:57;1.018;-0.004;0.062;0.27611109614372253;0.0354301817715168;0.024434609338641167
01:00:0A:00:00:00:00;1727396098;27/09/24;00:14:58;0.989;-0.007;0.058;0.2675589621067047;0.039095375686883926;0.036651913076639175
01:00:0A:00:00:00:00;1727396099;27/09/24;00:14:59;0.993;0.009;0.046;0.25534167885780334;-0.0012217304902151227;0.04153883829712868
01:00:0A:00:00:00:00;1727396100;27/09/24;00:15:00;1.014;0.014;0.038;0.2321287840604782;0.0024434609804302454;0.04764748737215996
01:00:0A:00:00:00:00;1727396101;27/09/24;00:15:01;1.024;0.027;0.059;0.21624629199504852;-0.0024434609804302454;0.014660765416920185
01:00:0A:00:00:00:00;1727396102;27/09/24;00:15:02;1.02;0.039;0.042;0.19547687470912933;-0.02076941914856434;0.0
01:00:0A:00:00:00:00;1727396103;27/09/24;00:15:03;1.004;0.017;0.039;0.17104226350784302;-0.004886921960860491;0.0036651913542300463
01:00:0A:00:00:00:00;1727396104;27/09/24;00:15:04;0.994;0.007;0.047;0.16004669666290283;-0.012217304669320583;-0.013439035043120384
01:00:0A:00:00:00:00;1727396105;27/09/24;00:15:05;1.012;0.005;0.043;0.14416420459747314;-0.05009094998240471;0.039095375686883926
01:00:0A:00:00:00:00;1727396106;27/09/24;00:15:06;1.03;-0.004;0.034;0.13072516024112701;-0.019547687843441963;0.05864306166768074
01:00:0A:00:00:00:00;1727396107;27/09/24;00:15:07;1.044;0.015;0.059;0.13072516024112701;0.0036651913542300463;0.03298672288656235
01:00:0A:00:00:00:00;1727396108;27/09/24;00:15:08;1.041;0.034;0.051;0.1270599663257599;-0.02076941914856434;0.028099799528717995
01:00:0A:00:00:00:00;1727396109;27/09/24;00:15:09;1.022;0.02;0.055;0.12339477241039276;0.004886921960860491;0.0073303827084600925
01:00:0A:00:00:00:00;1727396110;27/09/24;00:15:10;1.014;0.022;0.063;0.12828169763088226;0.01710422709584236;-0.0354301817715168
01:00:0A:00:00:00:00;1727396111;27/09/24;00:15:11;0.998;0.021;0.052;0.12339477241039276;0.0073303827084600925;-0.019547687843441963
01:00:0A:00:00:00:00;1727396112;27/09/24;00:15:12;0.993;0.0;0.042;0.11484266817569733;0.013439035043120384;0.004886921960860491
01:00:0A:00:00:00:00;1727396113;27/09/24;00:15:13;0.995;-0.006;0.04;0.12217304855585098;-0.00855211354792118;-0.018325956538319588
