Source;Epoch timestamp (UTC);Date;Time (UTC);Accel X (G);Accel Y (G);Accel Z (G);Gyro X (rad/s);Gyro Y (rad/s);Gyro Z (rad/s)
01:00:0A:00:00:00:00;1723420796;11/08/24;23:59:56;1.0;-0.027;0.072;-0.012217304669320583;-0.021991148591041565;-0.01710422709584236
01:00:0A:00:00:00:00;1723420797;11/08/24;23:59:57;1.016;-0.027;0.078;-0.015882495790719986;-0.024434609338641167;-0.010995574295520782
01:00:0A:00:00:00:00;1723420798;11/08/24;23:59:58;1.025;-0.032;0.073;-0.01710422709584236;-0.012217304669320583;0.0
01:00:0A:00:00:00:00;1723420799;11/08/24;23:59:59;1.024;-0.03;0.073;-0.01710422709584236;-0.009773843921720982;-0.0012217304902151227
01:00:0A:00:00:00:00;1723420800;12/08/24;00:00:00;1.016;-0.026;0.071;-0.02076941914856434;-0.014660765416920185;0.006108652334660292
01:00:0A:00:00:00:00;1723420801;12/08/24;00:00:01;1.01;-0.028;0.069;-0.02321287989616394;-0.01710422709584236;0.0073303827084600925
01:00:0A:00:00:00:00;1723420802;12/08/24;00:00:02;1.005;-0.029;0.074;-0.02076941914856434;-0.010995574295520782;-0.0024434609804302454
01:00:0A:00:00:00:00;1723420803;12/08/24;00:00:03;1.01;-0.025;0.074;-0.02321287989616394;-0.018325956538319588;0.0036651913542300463
01:00:0A:00:00:00:00;1723420804;12/08/24;00:00:04;1.019;-0.029;0.07;-0.021991148591041565;-0.012217304669320583;-0.0036651913542300463
01:00:0A:00:00:00:00;1723420805;12/08/24;00:00:05;1.03;-0.032;0.071;-0.019547687843441963;-0.006108652334660292;-0.0024434609804302454
01:00:0A:00:00:00:00;1723420806;12/08/24;00:00:06;1.026;-0.03;0.071;-0.02321287989616394;-0.00855211354792118;0.012217304669320583
01:00:0A:00:00:00:00;1723420807;12/08/24;00:00:07;1.008;-0.031;0.07;-0.02321287989616394;-0.009773843921720982;0.01710422709584236
01:00:0A:00:00:00:00;1723420808;12/08/24;00:00:08;0.999;-0.028;0.071;-0.021991148591041565;-0.009773843921720982;-0.0024434609804302454
01:00:0A:00:00:00:00;1723420809;12/08/24;00:00:09;0.995;-0.025;0.073;-0.024434609338641167;-0.024434609338641167;-0.00855211354792118
01:00:0A:00:00:00:00;1723420810;12/08/24;00:00:10;1.005;-0.031;0.077;-0.024434609338641167;-0.010995574295520782;-0.010995574295520782
01:00:0A:00:00:00:00;1723420811;12/08/24;00:00:11;1.029;-0.037;0.081;-0.025656338781118393;-0.0024434609804302454;-0.0024434609804302454
01:00:0A:00:00:00:00;1723420812;12/08/24;00:00:12;1.04;-0.029;0.074;-0.028099799528717995;0.0036651913542300463;0.013439035043120384
01:00:0A:00:00:00:00;1723420813;12/08/24;00:00:13;1.032;-0.03;0.069;-0.02932153083384037;0.0036651913542300463;0.03176499158143997
01:00:0A:00:00:00:00;1723420814;12/08/24;00:00:14;1.005;0.0;0.076;-0.018325956538319588;0.0036651913542300463;-0.006108652334660292
01:00:0A:00:00:00:00;1723420815;12/08/24;00:00:15;0.995;-0.01;0.07;-0.03298672288656235;-0.015882495790719986;0.00855211354792118
01:00:0A:00:00:00:00;1723420816;12/08/24;00:00:16;0.994;-0.024;0.067;-0.025656338781118393;-0.02687807008624077;0.0012217304902151227
01:00:0A:00:00:00:00;1723420817;12/08/24;00:00:17;1.002;-0.034;0.07;-0.018325956538319588;-0.01710422709584236;-0.025656338781118393
01:00:0A:00:00:00:00;1723420818;12/08/24;00:00:18;1.023;-0.033;0.075;-0.015882495790719986;-0.018325956538319588;-0.014660765416920185
01:00:0A:00:00:00:00;1723420819;12/08/24;00:00:19;1.032;-0.031;0.074;-0.018325956538319588;-0.006108652334660292;0.010995574295520782
01:00:0A:00:00:00:00;1723420820;12/08/24;00:00:20;1.03;-0.039;0.072;-0.014660765416920185;-0.006108652334660292;0.012217304669320583
01:00:0A:00:00:00:00;1723420821;12/08/24;00:00:21;1.02;-0.029;0.07;-0.010995574295520782;-0.0073303827084600925;0.009773843921720982
01:00:0A:00:00:00:00;1723420822;12/08/24;00:00:22;1.012;-0.028;0.074;-0.013439035043120384;-0.0036651913542300463;0.02321287989616394
01:00:0A:00:00:00:00;1723420823;12/08/24;00:00:23;1.001;-0.031;0.07;-0.010995574295520782;-0.010995574295520782;0.004886921960860491
01:00:0A:00:00:00:00;1723420824;12/08/24;00:00:24;1.002;-0.025;0.069;-0.0073303827084600925;-0.012217304669320583;-0.00855211354792118
01:00:0A:00:00:00:00;1723420825;12/08/24;00:00:25;1.009;-0.024;0.068;-0.00855211354792118;-0.012217304669320583;0.0024434609804302454
01:00:0A:00:00:00:00;1723420826;12/08/24;00:00:26;1.013;-0.028;0.068;-0.0073303827084600925;-0.013439035043120384;0.0012217304902151227
01:00:0A:00:00:00:00;1723420827;12/08/24;00:00:27;1.015;-0.027;0.07;-0.004886921960860491;-0.013439035043120384;-0.006108652334660292
01:00:0A:00:00:00:00;1723420828;12/08/24;00:00:28;1.013;-0.026;0.07;-0.006108652334660292;-0.019547687843441963;-0.0024434609804302454
01:00:0A:00:00:00:00;1723420829;12/08/24;00:00:29;1.009;-0.029;0.07;-0.004886921960860491;-0.019547687843441963;-0.0024434609804302454
01:00:0A:00:00:00:00;1723420830;12/08/24;00:00:30;1.01;-0.03;0.072;-0.0024434609804302454;-0.014660765416920185;-0.006108652334660292
01:00:0A:00:00:00:00;1723420831;12/08/24;00:00:31;1.012;-0.028;0.074;-0.0036651913542300463;-0.014660765416920185;0.0012217304902151227
01:00:0A:00:00:00:00;1723420832;12/08/24;00:00:32;1.02;-0.031;0.074;-0.004886921960860491;-0.0073303827084600925;0.004886921960860491
01:00:0A:00:00:00:00;1723420833;12/08/24;00:00:33;1.024;-0.029;0.073;-0.004886921960860491;-0.006108652334660292;0.0024434609804302454
01:00:0A:00:00:00:00;1723420834;12/08/24;00:00:34;1.022;-0.026;0.072;-0.00855211354792118;-0.004886921960860491;0.010995574295520782
01:00:0A:00:00:00:00;1723420835;12/08/24;00:00:35;1.016;-0.027;0.071;-0.010995574295520782;-0.0073303827084600925;0.012217304669320583
01:00:0A:00:00:00:00;1723420836;12/08/24;00:00:36;1.006;-0.025;0.071;-0.012217304669320583;-0.012217304669320583;0.0
01:00:0A:00:00:00:00;1723420837;12/08/24;00:00:37;1.003;-0.028;0.073;-0.015882495790719986;-0.014660765416920185;-0.0036651913542300463
01:00:0A:00:00:00:00;1723420838;12/08/24;00:00:38;1.008;-0.03;0.075;-0.018325956538319588;-0.01710422709584236;-0.006108652334660292
01:00:0A:00:00:00:00;1723420839;12/08/24;00:00:39;1.02;-0.027;0.082;-0.03420845419168472;0.0024434609804302454;-0.014660765416920185
01:00:0A:00:00:00:00;1723420840;12/08/24;00:00:40;1.023;-0.02;0.088;-0.05619959905743599;-0.0036651913542300463;0.00855211354792118
01:00:0A:00:00:00:00;1723420841;12/08/24;00:00:41;1.025;-0.026;0.081;-0.059864792972803116;-0.015882495790719986;0.024434609338641167
01:00:0A:00:00:00:00;1723420842;12/08/24;00:00:42;1.021;-0.033;0.067;-0.04886921867728233;-0.015882495790719986;0.015882495790719986
01:00:0A:00:00:00:00;1723420843;12/08/24;00:00:43;1.009;-0.027;0.07;-0.03787364438176155;0.0036651913542300463;0.0
01:00:0A:00:00:00:00;1723420844;12/08/24;00:00:44;1.001;-0.024;0.076;-0.04153883829712868;-0.009773843921720982;0.006108652334660292
01:00:0A:00:00:00:00;1723420845;12/08/24;00:00:45;1.003;-0.029;0.069;-0.040317103266716;-0.018325956538319588;0.0
01:00:0A:00:00:00:00;1723420846;12/08/24;00:00:46;1.014;-0.028;0.068;-0.03176499158143997;-0.0073303827084600925;-0.013439035043120384
01:00:0A:00:00:00:00;1723420847;12/08/24;00:00:47;1.017;-0.023;0.074;-0.03298672288656235;-0.013439035043120384;-0.0073303827084600925
01:00:0A:00:00:00:00;1723420848;12/08/24;00:00:48;1.021;-0.029;0.07;-0.03420845419168472;-0.019547687843441963;-0.0012217304902151227
01:00:0A:00:00:00:00;1723420849;12/08/24;00:00:49;1.018;-0.028;0.069;-0.028099799528717995;-0.00855211354792118;-0.0036651913542300463
01:00:0A:00:00:00:00;1723420850;12/08/24;00:00:50;1.013;-0.027;0.077;-0.02932153083384037;-0.00855211354792118;0.0012217304902151227
01:00:0A:00:00:00:00;1723420851;12/08/24;00:00:51;1.009;-0.032;0.073;-0.030543262138962746;-0.014660765416920185;0.006108652334660292
01:00:0A:00:00:00:00;1723420852;12/08/24;00:00:52;1.008;-0.03;0.07;-0.02687807008624077;-0.0036651913542300463;0.006108652334660292
01:00:0A:00:00:00:00;1723420853;12/08/24;00:00:53;1.012;-0.027;0.074;-0.028099799528717995;-0.00855211354792118;0.010995574295520782
01:00:0A:00:00:00:00;1723420854;12/08/24;00:00:54;1.017;-0.027;0.072;-0.02932153083384037;-0.014660765416920185;0.00855211354792118
01:00:0A:00:00:00:00;1723420855;12/08/24;00:00:55;1.019;-0.026;0.07;-0.02687807008624077;-0.00855211354792118;-0.0012217304902151227
01:00:0A:00:00:00:00;1723420856;12/08/24;00:00:56;1.017;-0.022;0.075;-0.02687807008624077;-0.00855211354792118;-0.00855211354792118
01:00:0A:00:00:00:00;1723420857;12/08/24;00:00:57;1.011;-0.03;0.073;-0.02932153083384037;-0.015882495790719986;-0.004886921960860491
01:00:0A:00:00:00:00;1723420858;12/08/24;00:00:58;1.009;-0.033;0.081;-0.05009094998240471;0.0024434609804302454;-0.0036651913542300463
01:00:0A:00:00:00:00;1723420859;12/08/24;00:00:59;1.008;-0.031;0.077;-0.06963863223791122;-0.01710422709584236;-0.006108652334660292
01:00:0A:00:00:00:00;1723420860;12/08/24;00:01:00;1.009;-0.032;0.069;-0.08185594528913498;-0.013439035043120384;0.0024434609804302454
01:00:0A:00:00:00:00;1723420861;12/08/24;00:01:01;1.011;-0.029;0.067;-0.07452555745840073;-0.00855211354792118;0.0012217304902151227
01:00:0A:00:00:00:00;1723420862;12/08/24;00:01:02;1.012;-0.026;0.074;-0.0708603635430336;-0.00855211354792118;0.0
01:00:0A:00:00:00:00;1723420863;12/08/24;00:01:03;1.018;-0.028;0.073;-0.06963863223791122;-0.015882495790719986;0.0024434609804302454
01:00:0A:00:00:00:00;1723420864;12/08/24;00:01:04;1.019;-0.028;0.069;-0.06475171446800232;-0.009773843921720982;-0.0012217304902151227
01:00:0A:00:00:00:00;1723420865;12/08/24;00:01:05;1.02;-0.027;0.073;-0.06352998316287994;-0.00855211354792118;0.0024434609804302454
01:00:0A:00:00:00:00;1723420866;12/08/24;00:01:06;1.02;-0.03;0.074;-0.06352998316287994;-0.013439035043120384;0.004886921960860491
01:00:0A:00:00:00:00;1723420867;12/08/24;00:01:07;1.016;-0.029;0.071;-0.06108652427792549;-0.009773843921720982;0.0012217304902151227
01:00:0A:00:00:00:00;1723420868;12/08/24;00:01:08;1.01;-0.025;0.072;-0.059864792972803116;-0.0073303827084600925;0.0036651913542300463
01:00:0A:00:00:00:00;1723420869;12/08/24;00:01:09;1.007;-0.028;0.072;-0.05864306166768074;-0.012217304669320583;0.0024434609804302454
01:00:0A:00:00:00:00;1723420870;12/08/24;00:01:10;1.009;-0.029;0.071;-0.05619959905743599;-0.010995574295520782;-0.0024434609804302454
01:00:0A:00:00:00:00;1723420871;12/08/24;00:01:11;1.011;-0.027;0.07;-0.05497787147760391;-0.009773843921720982;0.0
01:00:0A:00:00:00:00;1723420872;12/08/24;00:01:12;1.014;-0.029;0.071;-0.05497787147760391;-0.015882495790719986;0.0036651913542300463
01:00:0A:00:00:00:00;1723420873;12/08/24;00:01:13;1.016;-0.029;0.071;-0.05253440886735916;-0.014660765416920185;0.0
01:00:0A:00:00:00:00;1723420874;12/08/24;00:01:14;1.016;-0.027;0.072;-0.051312677562236786;-0.013439035043120384;0.0012217304902151227
01:00:0A:00:00:00:00;1723420875;12/08/24;00:01:15;1.017;-0.028;0.074;-0.051312677562236786;-0.014660765416920185;0.0012217304902151227
01:00:0A:00:00:00:00;1723420876;12/08/24;00:01:16;1.017;-0.029;0.073;-0.04886921867728233;-0.010995574295520782;-0.0012217304902151227
01:00:0A:00:00:00:00;1723420877;12/08/24;00:01:17;1.02;-0.028;0.074;-0.04886921867728233;-0.0036651913542300463;0.0
01:00:0A:00:00:00:00;1723420878;12/08/24;00:01:18;1.021;-0.029;0.073;-0.04886921867728233;-0.006108652334660292;0.0024434609804302454
01:00:0A:00:00:00:00;1723420879;12/08/24;00:01:19;1.019;-0.029;0.073;-0.04764748737215996;-0.004886921960860491;0.004886921960860491
01:00:0A:00:00:00:00;1723420880;12/08/24;00:01:20;1.014;-0.026;0.074;-0.04642575979232788;-0.004886921960860491;0.006108652334660292
01:00:0A:00:00:00:00;1723420881;12/08/24;00:01:21;1.005;-0.029;0.071;-0.04642575979232788;-0.009773843921720982;0.004886921960860491
01:00:0A:00:00:00:00;1723420882;12/08/24;00:01:22;1.005;-0.028;0.07;-0.042760565876960754;-0.010995574295520782;-0.0012217304902151227
01:00:0A:00:00:00:00;1723420883;12/08/24;00:01:23;1.006;-0.027;0.072;-0.04153883829712868;-0.014660765416920185;-0.0036651913542300463
01:00:0A:00:00:00:00;1723420884;12/08/24;00:01:24;1.017;-0.029;0.072;-0.04153883829712868;-0.01710422709584236;-0.0024434609804302454
01:00:0A:00:00:00:00;1723420885;12/08/24;00:01:25;1.02;-0.029;0.073;-0.039095375686883926;-0.01710422709584236;-0.0024434609804302454
01:00:0A:00:00:00:00;1723420886;12/08/24;00:01:26;1.025;-0.028;0.074;-0.03787364438176155;-0.014660765416920185;0.0012217304902151227
01:00:0A:00:00:00:00;1723420887;12/08/24;00:01:27;1.022;-0.029;0.073;-0.036651913076639175;-0.012217304669320583;0.006108652334660292
01:00:0A:00:00:00:00;1723420888;12/08/24;00:01:28;1.014;-0.029;0.073;-0.0354301817715168;-0.0073303827084600925;0.006108652334660292
01:00:0A:00:00:00:00;1723420889;12/08/24;00:01:29;1.01;-0.027;0.072;-0.0354301817715168;-0.00855211354792118;0.0036651913542300463
01:00:0A:00:00:00:00;1723420890;12/08/24;00:01:30;1.008;-0.026;0.071;-0.0354301817715168;-0.010995574295520782;0.0024434609804302454
01:00:0A:00:00:00:00;1723420891;12/08/24;00:01:31;1.011;-0.028;0.072;-0.03420845419168472;-0.009773843921720982;0.0
01:00:0A:00:00:00:00;1723420892;12/08/24;00:01:32;1.015;-0.029;0.074;-0.03420845419168472;-0.013439035043120384;0.0012217304902151227
01:00:0A:00:00:00:00;1723420893;12/08/24;00:01:33;1.016;-0.029;0.072;-0.03298672288656235;-0.0073303827084600925;0.004886921960860491
01:00:0A:00:00:00:00;1723420894;12/08/24;00:01:34;1.015;-0.028;0.073;-0.03176499158143997;-0.004886921960860491;0.004886921960860491
01:00:0A:00:00:00:00;1723420895;12/08/24;00:01:35;1.013;-0.026;0.07;-0.030543262138962746;-0.010995574295520782;0.0073303827084600925
01:00:0A:00:00:00:00;1723420896;12/08/24;00:01:36;1.011;-0.025;0.069;-0.030543262138962746;-0.013439035043120384;0.004886921960860491
01:00:0A:00:00:00:00;1723420897;12/08/24;00:01:37;1.013;-0.024;0.071;-0.02932153083384037;-0.01710422709584236;-0.0036651913542300463
01:00:0A:00:00:00:00;1723420898;12/08/24;00:01:38;1.014;-0.026;0.073;-0.028099799528717995;-0.019547687843441963;-0.0036651913542300463
01:00:0A:00:00:00:00;1723420899;12/08/24;00:01:39;1.016;-0.029;0.074;-0.028099799528717995;-0.01710422709584236;-0.0012217304902151227
01:00:0A:00:00:00:00;1723420900;12/08/24;00:01:40;1.019;-0.03;0.075;-0.02687807008624077;-0.00855211354792118;0.0036651913542300463
01:00:0A:00:00:00:00;1723420901;12/08/24;00:01:41;1.019;-0.029;0.076;-0.02687807008624077;-0.004886921960860491;0.0073303827084600925
01:00:0A:00:00:00:00;1723420902;12/08/24;00:01:42;1.017;-0.027;0.07;-0.025656338781118393;-0.0036651913542300463;0.010995574295520782
01:00:0A:00:00:00:00;1723420903;12/08/24;00:01:43;1.016;-0.026;0.07;-0.025656338781118393;-0.0073303827084600925;0.009773843921720982
01:00:0A:00:00:00:00;1723420904;12/08/24;00:01:44;1.012;-0.024;0.07;-0.025656338781118393;-0.013439035043120384;0.006108652334660292
01:00:0A:00:00:00:00;1723420905;12/08/24;00:01:45;1.01;-0.024;0.068;-0.024434609338641167;-0.014660765416920185;0.0024434609804302454
01:00:0A:00:00:00:00;1723420906;12/08/24;00:01:46;1.008;-0.024;0.071;-0.024434609338641167;-0.01710422709584236;-0.0024434609804302454
01:00:0A:00:00:00:00;1723420907;12/08/24;00:01:47;1.011;-0.026;0.071;-0.02321287989616394;-0.01710422709584236;-0.0036651913542300463
01:00:0A:00:00:00:00;1723420908;12/08/24;00:01:48;1.014;-0.027;0.071;-0.021991148591041565;-0.013439035043120384;-0.0024434609804302454
01:00:0A:00:00:00:00;1723420909;12/08/24;00:01:49;1.019;-0.027;0.073;-0.021991148591041565;-0.014660765416920185;0.0012217304902151227
01:00:0A:00:00:00:00;1723420910;12/08/24;00:01:50;1.019;-0.028;0.072;-0.021991148591041565;-0.014660765416920185;0.0012217304902151227
01:00:0A:00:00:00:00;1723420911;12/08/24;00:01:51;1.018;-0.027;0.071;-0.02076941914856434;-0.010995574295520782;0.0024434609804302454
01:00:0A:00:00:00:00;1723420912;12/08/24;00:01:52;1.016;-0.029;0.072;-0.02076941914856434;-0.013439035043120384;0.006108652334660292
01:00:0A:00:00:00:00;1723420913;12/08/24;00:01:53;1.013;-0.027;0.073;-0.02076941914856434;-0.01710422709584236;0.00855211354792118
01:00:0A:00:00:00:00;1723420914;12/08/24;00:01:54;1.012;-0.028;0.073;-0.018325956538319588;-0.014660765416920185;0.004886921960860491
01:00:0A:00:00:00:00;1723420915;12/08/24;00:01:55;1.012;-0.027;0.074;-0.01710422709584236;-0.012217304669320583;0.0036651913542300463
01:00:0A:00:00:00:00;1723420916;12/08/24;00:01:56;1.016;-0.028;0.072;-0.015882495790719986;-0.012217304669320583;0.0024434609804302454
01:00:0A:00:00:00:00;1723420917;12/08/24;00:01:57;1.016;-0.026;0.074;-0.014660765416920185;-0.00855211354792118;0.0012217304902151227
01:00:0A:00:00:00:00;1723420918;12/08/24;00:01:58;1.016;-0.027;0.074;-0.014660765416920185;-0.0073303827084600925;0.0
01:00:0A:00:00:00:00;1723420919;12/08/24;00:01:59;1.015;-0.029;0.071;-0.013439035043120384;-0.00855211354792118;-0.0012217304902151227
01:00:0A:00:00:00:00;1723420920;12/08/24;00:02:00;1.014;-0.027;0.072;-0.012217304669320583;-0.009773843921720982;0.0012217304902151227
01:00:0A:00:00:00:00;1723420921;12/08/24;00:02:01;1.013;-0.028;0.073;-0.013439035043120384;-0.014660765416920185;0.0036651913542300463
01:00:0A:00:00:00:00;1723420922;12/08/24;00:02:02;1.016;-0.029;0.071;-0.012217304669320583;-0.010995574295520782;0.004886921960860491
01:00:0A:00:00:00:00;1723420923;12/08/24;00:02:03;1.019;-0.027;0.074;-0.012217304669320583;-0.0073303827084600925;0.004886921960860491
01:00:0A:00:00:00:00;1723420924;12/08/24;00:02:04;1.018;-0.029;0.073;-0.013439035043120384;-0.012217304669320583;0.0073303827084600925
01:00:0A:00:00:00:00;1723420925;12/08/24;00:02:05;1.014;-0.027;0.07;-0.013439035043120384;-0.012217304669320583;0.006108652334660292
01:00:0A:00:00:00:00;1723420926;12/08/24;00:02:06;1.011;-0.026;0.073;-0.013439035043120384;-0.010995574295520782;0.004886921960860491
01:00:0A:00:00:00:00;1723420927;12/08/24;00:02:07;1.008;-0.026;0.073;-0.014660765416920185;-0.014660765416920185;0.0036651913542300463
01:00:0A:00:00:00:00;1723420928;12/08/24;00:02:08;1.008;-0.027;0.071;-0.012217304669320583;-0.012217304669320583;0.0
01:00:0A:00:00:00:00;1723420929;12/08/24;00:02:09;1.013;-0.027;0.074;-0.012217304669320583;-0.013439035043120384;0.0
01:00:0A:00:00:00:00;1723420930;12/08/24;00:02:10;1.016;-0.028;0.073;-0.013439035043120384;-0.01710422709584236;0.0024434609804302454
01:00:0A:00:00:00:00;1723420931;12/08/24;00:02:11;1.018;-0.028;0.074;-0.012217304669320583;-0.00855211354792118;0.0024434609804302454
01:00:0A:00:00:00:00;1723420932;12/08/24;00:02:12;1.017;-0.026;0.074;-0.012217304669320583;-0.006108652334660292;0.006108652334660292
01:00:0A:00:00:00:00;1723420933;12/08/24;00:02:13;1.016;-0.028;0.071;-0.013439035043120384;-0.012217304669320583;0.0073303827084600925
01:00:0A:00:00:00:00;1723420934;12/08/24;00:02:14;1.012;-0.027;0.071;-0.010995574295520782;-0.00855211354792118;0.0036651913542300463
01:00:0A:00:00:00:00;1723420935;12/08/24;00:02:15;1.011;-0.026;0.072;-0.012217304669320583;-0.00855211354792118;0.0024434609804302454
01:00:0A:00:00:00:00;1723420936;12/08/24;00:02:16;1.013;-0.027;0.07;-0.012217304669320583;-0.015882495790719986;0.0024434609804302454
01:00:0A:00:00:00:00;1723420937;12/08/24;00:02:17;1.014;-0.026;0.069;-0.010995574295520782;-0.013439035043120384;-0.0012217304902151227
01:00:0A:00:00:00:00;1723420938;12/08/24;00:02:18;1.016;-0.027;0.075;-0.010995574295520782;-0.014660765416920185;0.0012217304902151227
01:00:0A:00:00:00:00;1723420939;12/08/24;00:02:19;1.017;-0.029;0.073;-0.012217304669320583;-0.015882495790719986;0.0036651913542300463
01:00:0A:00:00:00:00;1723420940;12/08/24;00:02:20;1.016;-0.028;0.072;-0.009773843921720982;-0.0073303827084600925;0.0036651913542300463
01:00:0A:00:00:00:00;1723420941;12/08/24;00:02:21;1.015;-0.027;0.075;-0.010995574295520782;-0.010995574295520782;0.004886921960860491
01:00:0A:00:00:00:00;1723420942;12/08/24;00:02:22;1.014;-0.028;0.073;-0.010995574295520782;-0.012217304669320583;0.006108652334660292
01:00:0A:00:00:00:00;1723420943;12/08/24;00:02:23;1.012;-0.027;0.071;-0.00855211354792118;-0.004886921960860491;0.004886921960860491
01:00:0A:00:00:00:00;1723420944;12/08/24;00:02:24;1.013;-0.026;0.073;-0.010995574295520782;-0.010995574295520782;0.004886921960860491
01:00:0A:00:00:00:00;1723420945;12/08/24;00:02:25;1.01;-0.026;0.069;-0.010995574295520782;-0.015882495790719986;0.0024434609804302454
01:00:0A:00:00:00:00;1723420946;12/08/24;00:02:26;1.011;-0.03;0.068;-0.009773843921720982;-0.0073303827084600925;0.0
01:00:0A:00:00:00:00;1723420947;12/08/24;00:02:27;1.013;-0.018;0.078;-0.036651913076639175;-0.010995574295520782;-0.00855211354792118
01:00:0A:00:00:00:00;1723420948;12/08/24;00:02:28;1.013;-0.022;0.074;-0.07452555745840073;-0.01710422709584236;0.0024434609804302454
01:00:0A:00:00:00:00;1723420949;12/08/24;00:02:29;1.016;-0.032;0.07;-0.07208210229873657;-0.013439035043120384;0.006108652334660292
01:00:0A:00:00:00:00;1723420950;12/08/24;00:02:30;1.016;-0.031;0.073;-0.06475171446800232;-0.004886921960860491;-0.006108652334660292
01:00:0A:00:00:00:00;1723420951;12/08/24;00:02:31;1.016;-0.023;0.073;-0.0659734457731247;-0.012217304669320583;0.0024434609804302454
01:00:0A:00:00:00:00;1723420952;12/08/24;00:02:32;1.013;-0.029;0.07;-0.0659734457731247;-0.012217304669320583;0.012217304669320583
01:00:0A:00:00:00:00;1723420953;12/08/24;00:02:33;1.011;-0.029;0.072;-0.059864792972803116;-0.004886921960860491;-0.006108652334660292
01:00:0A:00:00:00:00;1723420954;12/08/24;00:02:34;1.013;-0.024;0.073;-0.06108652427792549;-0.010995574295520782;-0.0036651913542300463
01:00:0A:00:00:00:00;1723420955;12/08/24;00:02:35;1.015;-0.031;0.071;-0.06352998316287994;-0.012217304669320583;0.006108652334660292
01:00:0A:00:00:00:00;1723420956;12/08/24;00:02:36;1.018;-0.032;0.071;-0.05864306166768074;-0.0073303827084600925;-0.0036651913542300463
01:00:0A:00:00:00:00;1723420957;12/08/24;00:02:37;1.019;-0.024;0.074;-0.059864792972803116;-0.00855211354792118;0.0012217304902151227
01:00:0A:00:00:00:00;1723420958;12/08/24;00:02:38;1.019;-0.028;0.072;-0.06108652427792549;-0.012217304669320583;0.009773843921720982
01:00:0A:00:00:00:00;1723420959;12/08/24;00:02:39;1.016;-0.03;0.071;-0.05619959905743599;-0.00855211354792118;-0.0012217304902151227
01:00:0A:00:00:00:00;1723420960;12/08/24;00:02:40;1.013;-0.023;0.073;-0.05619959905743599;-0.00855211354792118;0.0024434609804302454
01:00:0A:00:00:00:00;1723420961;12/08/24;00:02:41;1.008;-0.028;0.071;-0.05864306166768074;-0.014660765416920185;0.0073303827084600925
01:00:0A:00:00:00:00;1723420962;12/08/24;00:02:42;1.01;-0.03;0.07;-0.05253440886735916;-0.009773843921720982;-0.00855211354792118
01:00:0A:00:00:00:00;1723420963;12/08/24;00:02:43;1.013;-0.026;0.072;-0.05375614017248154;-0.010995574295520782;-0.0012217304902151227
01:00:0A:00:00:00:00;1723420964;12/08/24;00:02:44;1.016;-0.03;0.071;-0.05497787147760391;-0.015882495790719986;0.0024434609804302454
01:00:0A:00:00:00:00;1723420965;12/08/24;00:02:45;1.019;-0.031;0.072;-0.05009094998240471;-0.009773843921720982;-0.006108652334660292
01:00:0A:00:00:00:00;1723420966;12/08/24;00:02:46;1.02;-0.026;0.074;-0.05009094998240471;-0.009773843921720982;0.004886921960860491
01:00:0A:00:00:00:00;1723420967;12/08/24;00:02:47;1.019;-0.032;0.071;-0.05009094998240471;-0.012217304669320583;0.009773843921720982
01:00:0A:00:00:00:00;1723420968;12/08/24;00:02:48;1.016;-0.029;0.071;-0.045204028487205505;-0.0073303827084600925;-0.0024434609804302454
01:00:0A:00:00:00:00;1723420969;12/08/24;00:02:49;1.013;-0.025;0.074;-0.045204028487205505;-0.00855211354792118;0.0073303827084600925
01:00:0A:00:00:00:00;1723420970;12/08/24;00:02:50;1.011;-0.031;0.07;-0.045204028487205505;-0.013439035043120384;0.00855211354792118
01:00:0A:00:00:00:00;1723420971;12/08/24;00:02:51;1.012;-0.026;0.071;-0.040317103266716;-0.00855211354792118;-0.0036651913542300463
01:00:0A:00:00:00:00;1723420972;12/08/24;00:02:52;1.012;-0.025;0.072;-0.04153883829712868;-0.010995574295520782;0.0036651913542300463
01:00:0A:00:00:00:00;1723420973;12/08/24;00:02:53;1.012;-0.032;0.071;-0.040317103266716;-0.012217304669320583;0.0012217304902151227
01:00:0A:00:00:00:00;1723420974;12/08/24;00:02:54;1.014;-0.026;0.072;-0.0354301817715168;-0.00855211354792118;-0.006108652334660292
01:00:0A:00:00:00:00;1723420975;12/08/24;00:02:55;1.015;-0.025;0.074;-0.03787364438176155;-0.014660765416920185;0.006108652334660292
01:00:0A:00:00:00:00;1723420976;12/08/24;00:02:56;1.018;-0.031;0.071;-0.0354301817715168;-0.012217304669320583;0.0012217304902151227
01:00:0A:00:00:00:00;1723420977;12/08/24;00:02:57;1.018;-0.027;0.073;-0.03298672288656235;-0.0073303827084600925;-0.0024434609804302454
01:00:0A:00:00:00:00;1723420978;12/08/24;00:02:58;1.018;-0.028;0.074;-0.0354301817715168;-0.012217304669320583;0.0073303827084600925
01:00:0A:00:00:00:00;1723420979;12/08/24;00:02:59;1.015;-0.032;0.07;-0.03176499158143997;-0.009773843921720982;0.0024434609804302454
01:00:0A:00:00:00:00;1723420980;12/08/24;00:03:00;1.014;-0.025;0.073;-0.02932153083384037;-0.004886921960860491;-0.0024434609804302454
01:00:0A:00:00:00:00;1723420981;12/08/24;00:03:01;1.011;-0.028;0.071;-0.03176499158143997;-0.013439035043120384;0.0073303827084600925
01:00:0A:00:00:00:00;1723420982;12/08/24;00:03:02;1.012;-0.031;0.069;-0.028099799528717995;-0.009773843921720982;0.0
01:00:0A:00:00:00:00;1723420983;12/08/24;00:03:03;1.013;-0.025;0.073;-0.02687807008624077;-0.009773843921720982;0.0
01:00:0A:00:00:00:00;1723420984;12/08/24;00:03:04;1.013;-0.028;0.071;-0.02932153083384037;-0.01710422709584236;0.00855211354792118
01:00:0A:00:00:00:00;1723420985;12/08/24;00:03:05;1.015;-0.03;0.069;-0.025656338781118393;-0.010995574295520782;-0.0024434609804302454
01:00:0A:00:00:00:00;1723420986;12/08/24;00:03:06;1.016;-0.026;0.074;-0.024434609338641167;-0.009773843921720982;-0.0012217304902151227
01:00:0A:00:00:00:00;1723420987;12/08/24;00:03:07;1.018;-0.029;0.071;-0.02687807008624077;-0.018325956538319588;0.00855211354792118
01:00:0A:00:00:00:00;1723420988;12/08/24;00:03:08;1.019;-0.031;0.07;-0.02321287989616394;-0.00855211354792118;-0.0012217304902151227
01:00:0A:00:00:00:00;1723420989;12/08/24;00:03:09;1.018;-0.025;0.075;-0.02321287989616394;-0.0073303827084600925;0.0012217304902151227
01:00:0A:00:00:00:00;1723420990;12/08/24;00:03:10;1.016;-0.029;0.07;-0.025656338781118393;-0.015882495790719986;0.010995574295520782
01:00:0A:00:00:00:00;1723420991;12/08/24;00:03:11;1.015;-0.028;0.069;-0.021991148591041565;-0.0073303827084600925;0.0012217304902151227
01:00:0A:00:00:00:00;1723420992;12/08/24;00:03:12;1.014;-0.024;0.074;-0.02321287989616394;-0.009773843921720982;0.0036651913542300463
01:00:0A:00:00:00:00;1723420993;12/08/24;00:03:13;1.012;-0.028;0.07;-0.025656338781118393;-0.015882495790719986;0.0073303827084600925
01:00:0A:00:00:00:00;1723420994;12/08/24;00:03:14;1.013;-0.029;0.07;-0.02076941914856434;-0.0073303827084600925;-0.0024434609804302454
01:00:0A:00:00:00:00;1723420995;12/08/24;00:03:15;1.014;-0.026;0.075;-0.02321287989616394;-0.013439035043120384;0.0012217304902151227
01:00:0A:00:00:00:00;1723420996;12/08/24;00:03:16;1.016;-0.028;0.07;-0.025656338781118393;-0.01710422709584236;0.0036651913542300463
01:00:0A:00:00:00:00;1723420997;12/08/24;00:03:17;1.016;-0.029;0.071;-0.021991148591041565;-0.006108652334660292;0.0
01:00:0A:00:00:00:00;1723420998;12/08/24;00:03:18;1.016;-0.027;0.074;-0.025656338781118393;-0.013439035043120384;0.004886921960860491
01:00:0A:00:00:00:00;1723420999;12/08/24;00:03:19;1.016;-0.029;0.07;-0.02687807008624077;-0.01710422709584236;0.006108652334660292
01:00:0A:00:00:00:00;1723421000;12/08/24;00:03:20;1.016;-0.027;0.072;-0.02321287989616394;-0.004886921960860491;0.0
01:00:0A:00:00:00:00;1723421001;12/08/24;00:03:21;1.013;-0.026;0.076;-0.02687807008624077;-0.012217304669320583;0.004886921960860491
01:00:0A:00:00:00:00;1723421002;12/08/24;00:03:22;1.013;-0.028;0.069;-0.025656338781118393;-0.013439035043120384;0.0036651913542300463
01:00:0A:00:00:00:00;1723421003;12/08/24;00:03:23;1.013;-0.028;0.072;-0.02321287989616394;-0.004886921960860491;0.0
01:00:0A:00:00:00:00;1723421004;12/08/24;00:03:24;1.015;-0.026;0.077;-0.025656338781118393;-0.01710422709584236;0.0036651913542300463
01:00:0A:00:00:00:00;1723421005;12/08/24;00:03:25;1.015;-0.031;0.069;-0.024434609338641167;-0.014660765416920185;0.0024434609804302454
01:00:0A:00:00:00:00;1723421006;12/08/24;00:03:26;1.016;-0.028;0.072;-0.02076941914856434;-0.0036651913542300463;-0.0012217304902151227
01:00:0A:00:00:00:00;1723421007;12/08/24;00:03:27;1.016;-0.026;0.075;-0.025656338781118393;-0.015882495790719986;0.0036651913542300463
01:00:0A:00:00:00:00;1723421008;12/08/24;00:03:28;1.016;-0.03;0.068;-0.02321287989616394;-0.012217304669320583;0.0036651913542300463
01:00:0A:00:00:00:00;1723421009;12/08/24;00:03:29;1.016;-0.027;0.074;-0.019547687843441963;-0.0012217304902151227;0.0024434609804302454
01:00:0A:00:00:00:00;1723421010;12/08/24;00:03:30;1.014;-0.028;0.073;-0.021991148591041565;-0.01710422709584236;0.004886921960860491
01:00:0A:00:00:00:00;1723421011;12/08/24;00:03:31;1.013;-0.029;0.067;-0.019547687843441963;-0.013439035043120384;0.0024434609804302454
01:00:0A:00:00:00:00;1723421012;12/08/24;00:03:32;1.012;-0.027;0.074;-0.01710422709584236;-0.006108652334660292;0.0024434609804302454
01:00:0A:00:00:00:00;1723421013;12/08/24;00:03:33;1.013;-0.027;0.073;-0.019547687843441963;-0.019547687843441963;0.0024434609804302454
01:00:0A:00:00:00:00;1723421014;12/08/24;00:03:34;1.014;-0.028;0.066;-0.015882495790719986;-0.009773843921720982;0.0012217304902151227
01:00:0A:00:00:00:00;1723421015;12/08/24;00:03:35;1.014;-0.027;0.073;-0.014660765416920185;-0.00855211354792118;0.0012217304902151227
01:00:0A:00:00:00:00;1723421016;12/08/24;00:03:36;1.015;-0.028;0.072;-0.01710422709584236;-0.021991148591041565;0.0012217304902151227
01:00:0A:00:00:00:00;1723421017;12/08/24;00:03:37;1.016;-0.028;0.067;-0.013439035043120384;-0.009773843921720982;0.0024434609804302454
01:00:0A:00:00:00:00;1723421018;12/08/24;00:03:38;1.016;-0.028;0.075;-0.013439035043120384;-0.0073303827084600925;0.0024434609804302454
01:00:0A:00:00:00:00;1723421019;12/08/24;00:03:39;1.016;-0.028;0.072;-0.015882495790719986;-0.021991148591041565;0.0024434609804302454
01:00:0A:00:00:00:00;1723421020;12/08/24;00:03:40;1.015;-0.028;0.068;-0.012217304669320583;-0.010995574295520782;0.0024434609804302454
01:00:0A:00:00:00:00;1723421021;12/08/24;00:03:41;1.016;-0.027;0.076;-0.012217304669320583;-0.0073303827084600925;0.0036651913542300463
01:00:0A:00:00:00:00;1723421022;12/08/24;00:03:42;1.014;-0.028;0.073;-0.015882495790719986;-0.018325956538319588;0.0024434609804302454
01:00:0A:00:00:00:00;1723421023;12/08/24;00:03:43;1.016;-0.028;0.069;-0.012217304669320583;-0.0073303827084600925;0.0024434609804302454
01:00:0A:00:00:00:00;1723421024;12/08/24;00:03:44;1.015;-0.029;0.077;-0.013439035043120384;-0.009773843921720982;0.0036651913542300463
01:00:0A:00:00:00:00;1723421025;12/08/24;00:03:45;1.014;-0.027;0.071;-0.015882495790719986;-0.02076941914856434;0.0012217304902151227
01:00:0A:00:00:00:00;1723421026;12/08/24;00:03:46;1.013;-0.025;0.07;-0.013439035043120384;-0.0073303827084600925;0.0036651913542300463
01:00:0A:00:00:00:00;1723421027;12/08/24;00:03:47;1.013;-0.028;0.076;-0.014660765416920185;-0.012217304669320583;0.0024434609804302454
01:00:0A:00:00:00:00;1723421028;12/08/24;00:03:48;1.015;-0.028;0.07;-0.015882495790719986;-0.02076941914856434;0.0
01:00:0A:00:00:00:00;1723421029;12/08/24;00:03:49;1.015;-0.027;0.071;-0.013439035043120384;-0.004886921960860491;0.0024434609804302454
01:00:0A:00:00:00:00;1723421030;12/08/24;00:03:50;1.015;-0.029;0.075;-0.015882495790719986;-0.010995574295520782;0.0036651913542300463
01:00:0A:00:00:00:00;1723421031;12/08/24;00:03:51;1.016;-0.027;0.069;-0.01710422709584236;-0.018325956538319588;0.0
01:00:0A:00:00:00:00;1723421032;12/08/24;00:03:52;1.015;-0.028;0.071;-0.014660765416920185;-0.006108652334660292;0.004886921960860491
01:00:0A:00:00:00:00;1723421033;12/08/24;00:03:53;1.014;-0.03;0.077;-0.01710422709584236;-0.010995574295520782;0.0036651913542300463
01:00:0A:00:00:00:00;1723421034;12/08/24;00:03:54;1.015;-0.027;0.072;-0.01710422709584236;-0.015882495790719986;0.0012217304902151227
01:00:0A:00:00:00:00;1723421035;12/08/24;00:03:55;1.014;-0.028;0.07;-0.015882495790719986;-0.004886921960860491;0.004886921960860491
01:00:0A:00:00:00:00;1723421036;12/08/24;00:03:56;1.014;-0.029;0.075;-0.01710422709584236;-0.013439035043120384;0.0012217304902151227
01:00:0A:00:00:00:00;1723421037;12/08/24;00:03:57;1.015;-0.027;0.07;-0.01710422709584236;-0.01710422709584236;0.0
01:00:0A:00:00:00:00;1723421038;12/08/24;00:03:58;1.016;-0.026;0.069;-0.015882495790719986;-0.004886921960860491;0.004886921960860491
01:00:0A:00:00:00:00;1723421039;12/08/24;00:03:59;1.014;-0.043;0.065;0.006108652334660292;-0.013439035043120384;0.004886921960860491
01:00:0A:00:00:00:00;1723421040;12/08/24;00:04:00;1.015;-0.034;0.068;0.04398229718208313;-0.00855211354792118;-0.012217304669320583
01:00:0A:00:00:00:00;1723421041;12/08/24;00:04:01;1.016;-0.019;0.076;0.045204028487205505;-0.006108652334660292;0.0
01:00:0A:00:00:00:00;1723421042;12/08/24;00:04:02;1.014;-0.028;0.074;0.03298672288656235;-0.01710422709584236;0.02076941914856434
01:00:0A:00:00:00:00;1723421043;12/08/24;00:04:03;1.014;-0.032;0.067;0.036651913076639175;-0.013439035043120384;-0.0024434609804302454
01:00:0A:00:00:00:00;1723421044;12/08/24;00:04:04;1.014;-0.022;0.074;0.03787364438176155;-0.0073303827084600925;-0.004886921960860491
01:00:0A:00:00:00:00;1723421045;12/08/24;00:04:05;1.014;-0.026;0.075;0.02687807008624077;-0.018325956538319588;0.015882495790719986
01:00:0A:00:00:00:00;1723421046;12/08/24;00:04:06;1.014;-0.034;0.068;0.030543262138962746;-0.015882495790719986;0.0012217304902151227
01:00:0A:00:00:00:00;1723421047;12/08/24;00:04:07;1.015;-0.024;0.073;0.03298672288656235;-0.0073303827084600925;-0.004886921960860491
01:00:0A:00:00:00:00;1723421048;12/08/24;00:04:08;1.015;-0.025;0.074;0.02321287989616394;-0.018325956538319588;0.013439035043120384
01:00:0A:00:00:00:00;1723421049;12/08/24;00:04:09;1.016;-0.032;0.07;0.024434609338641167;-0.015882495790719986;0.0036651913542300463
01:00:0A:00:00:00:00;1723421050;12/08/24;00:04:10;1.016;-0.025;0.073;0.028099799528717995;-0.004886921960860491;-0.0036651913542300463
01:00:0A:00:00:00:00;1723421051;12/08/24;00:04:11;1.016;-0.025;0.075;0.02076941914856434;-0.013439035043120384;0.012217304669320583
01:00:0A:00:00:00:00;1723421052;12/08/24;00:04:12;1.016;-0.032;0.069;0.02076941914856434;-0.014660765416920185;0.006108652334660292
01:00:0A:00:00:00:00;1723421053;12/08/24;00:04:13;1.013;-0.026;0.073;0.02321287989616394;-0.0073303827084600925;-0.0024434609804302454
01:00:0A:00:00:00:00;1723421054;12/08/24;00:04:14;1.015;-0.026;0.074;0.015882495790719986;-0.015882495790719986;0.010995574295520782
01:00:0A:00:00:00:00;1723421055;12/08/24;00:04:15;1.013;-0.031;0.069;0.015882495790719986;-0.013439035043120384;0.004886921960860491
01:00:0A:00:00:00:00;1723421056;12/08/24;00:04:16;1.013;-0.026;0.073;0.018325956538319588;-0.0073303827084600925;-0.0036651913542300463
01:00:0A:00:00:00:00;1723421057;12/08/24;00:04:17;1.014;-0.026;0.074;0.010995574295520782;-0.01710422709584236;0.00855211354792118
01:00:0A:00:00:00:00;1723421058;12/08/24;00:04:18;1.016;-0.031;0.071;0.010995574295520782;-0.012217304669320583;0.006108652334660292
01:00:0A:00:00:00:00;1723421059;12/08/24;00:04:19;1.014;-0.027;0.074;0.010995574295520782;-0.0073303827084600925;-0.0024434609804302454
01:00:0A:00:00:00:00;1723421060;12/08/24;00:04:20;1.015;-0.026;0.074;0.006108652334660292;-0.01710422709584236;0.0073303827084600925
01:00:0A:00:00:00:00;1723421061;12/08/24;00:04:21;1.016;-0.031;0.069;0.006108652334660292;-0.012217304669320583;0.004886921960860491
01:00:0A:00:00:00:00;1723421062;12/08/24;00:04:22;1.015;-0.027;0.076;0.006108652334660292;-0.00855211354792118;-0.0012217304902151227
01:00:0A:00:00:00:00;1723421063;12/08/24;00:04:23;1.015;-0.026;0.072;0.0012217304902151227;-0.013439035043120384;0.0073303827084600925
01:00:0A:00:00:00:00;1723421064;12/08/24;00:04:24;1.014;-0.031;0.07;0.0024434609804302454;-0.00855211354792118;0.004886921960860491
01:00:0A:00:00:00:00;1723421065;12/08/24;00:04:25;1.014;-0.027;0.074;0.0012217304902151227;-0.009773843921720982;-0.0012217304902151227
01:00:0A:00:00:00:00;1723421066;12/08/24;00:04:26;1.015;-0.027;0.071;-0.0024434609804302454;-0.015882495790719986;0.0073303827084600925
01:00:0A:00:00:00:00;1723421067;12/08/24;00:04:27;1.014;-0.032;0.071;-0.0012217304902151227;-0.00855211354792118;0.004886921960860491
01:00:0A:00:00:00:00;1723421068;12/08/24;00:04:28;1.015;-0.027;0.075;-0.0024434609804302454;-0.010995574295520782;-0.0012217304902151227
01:00:0A:00:00:00:00;1723421069;12/08/24;00:04:29;1.014;-0.028;0.072;-0.0073303827084600925;-0.015882495790719986;0.0073303827084600925
01:00:0A:00:00:00:00;1723421070;12/08/24;00:04:30;1.014;-0.031;0.072;-0.006108652334660292;-0.0073303827084600925;0.0036651913542300463
01:00:0A:00:00:00:00;1723421071;12/08/24;00:04:31;1.015;-0.026;0.074;-0.0073303827084600925;-0.010995574295520782;-0.0012217304902151227
01:00:0A:00:00:00:00;1723421072;12/08/24;00:04:32;1.016;-0.026;0.071;-0.010995574295520782;-0.015882495790719986;0.006108652334660292
01:00:0A:00:00:00:00;1723421073;12/08/24;00:04:33;1.014;-0.031;0.072;-0.009773843921720982;-0.00855211354792118;0.0024434609804302454
01:00:0A:00:00:00:00;1723421074;12/08/24;00:04:34;1.014;-0.027;0.075;-0.012217304669320583;-0.012217304669320583;-0.0012217304902151227
01:00:0A:00:00:00:00;1723421075;12/08/24;00:04:35;1.015;-0.027;0.07;-0.015882495790719986;-0.014660765416920185;0.004886921960860491
01:00:0A:00:00:00:00;1723421076;12/08/24;00:04:36;1.014;-0.029;0.072;-0.014660765416920185;-0.0073303827084600925;0.0024434609804302454
01:00:0A:00:00:00:00;1723421077;12/08/24;00:04:37;1.014;-0.026;0.075;-0.01710422709584236;-0.014660765416920185;-0.0012217304902151227
01:00:0A:00:00:00:00;1723421078;12/08/24;00:04:38;1.015;-0.027;0.071;-0.019547687843441963;-0.014660765416920185;0.0036651913542300463
01:00:0A:00:00:00:00;1723421079;12/08/24;00:04:39;1.016;-0.03;0.074;-0.018325956538319588;-0.006108652334660292;0.0024434609804302454
01:00:0A:00:00:00:00;1723421080;12/08/24;00:04:40;1.015;-0.027;0.074;-0.02076941914856434;-0.014660765416920185;0.0
01:00:0A:00:00:00:00;1723421081;12/08/24;00:04:41;1.015;-0.027;0.071;-0.021991148591041565;-0.014660765416920185;0.004886921960860491
01:00:0A:00:00:00:00;1723421082;12/08/24;00:04:42;1.015;-0.029;0.074;-0.02076941914856434;-0.0073303827084600925;0.0024434609804302454
01:00:0A:00:00:00:00;1723421083;12/08/24;00:04:43;1.014;-0.028;0.075;-0.02321287989616394;-0.013439035043120384;0.0
01:00:0A:00:00:00:00;1723421084;12/08/24;00:04:44;1.014;-0.028;0.07;-0.024434609338641167;-0.012217304669320583;0.004886921960860491
01:00:0A:00:00:00:00;1723421085;12/08/24;00:04:45;1.015;-0.03;0.073;-0.02321287989616394;-0.006108652334660292;0.0024434609804302454
01:00:0A:00:00:00:00;1723421086;12/08/24;00:04:46;1.014;-0.027;0.073;-0.025656338781118393;-0.015882495790719986;-0.0012217304902151227
01:00:0A:00:00:00:00;1723421087;12/08/24;00:04:47;1.015;-0.026;0.069;-0.025656338781118393;-0.010995574295520782;0.004886921960860491
01:00:0A:00:00:00:00;1723421088;12/08/24;00:04:48;1.014;-0.029;0.074;-0.024434609338641167;-0.0073303827084600925;0.0036651913542300463
01:00:0A:00:00:00:00;1723421089;12/08/24;00:04:49;1.014;-0.028;0.074;-0.02687807008624077;-0.01710422709584236;-0.0024434609804302454
01:00:0A:00:00:00:00;1723421090;12/08/24;00:04:50;1.015;-0.026;0.071;-0.02687807008624077;-0.012217304669320583;0.0036651913542300463
01:00:0A:00:00:00:00;1723421091;12/08/24;00:04:51;1.014;-0.029;0.076;-0.025656338781118393;-0.0073303827084600925;0.0024434609804302454
01:00:0A:00:00:00:00;1723421092;12/08/24;00:04:52;1.016;-0.027;0.074;-0.02687807008624077;-0.014660765416920185;-0.0012217304902151227
01:00:0A:00:00:00:00;1723421093;12/08/24;00:04:53;1.015;-0.027;0.072;-0.02687807008624077;-0.009773843921720982;0.004886921960860491
01:00:0A:00:00:00:00;1723421094;12/08/24;00:04:54;1.015;-0.031;0.075;-0.025656338781118393;-0.00855211354792118;0.0024434609804302454
01:00:0A:00:00:00:00;1723421095;12/08/24;00:04:55;1.014;-0.028;0.074;-0.025656338781118393;-0.015882495790719986;-0.0012217304902151227
01:00:0A:00:00:00:00;1723421096;12/08/24;00:04:56;1.016;-0.027;0.071;-0.025656338781118393;-0.009773843921720982;0.006108652334660292
01:00:0A:00:00:00:00;1723421097;12/08/24;00:04:57;1.013;-0.029;0.075;-0.024434609338641167;-0.00855211354792118;0.0024434609804302454
01:00:0A:00:00:00:00;1723421098;12/08/24;00:04:58;1.016;-0.027;0.072;-0.024434609338641167;-0.014660765416920185;-0.0024434609804302454
01:00:0A:00:00:00:00;1723421099;12/08/24;00:04:59;1.015;-0.027;0.071;-0.024434609338641167;-0.009773843921720982;0.0073303827084600925
01:00:0A:00:00:00:00;1723421100;12/08/24;00:05:00;1.015;-0.031;0.074;-0.021991148591041565;-0.009773843921720982;0.0024434609804302454
01:00:0A:00:00:00:00;1723421101;12/08/24;00:05:01;1.014;-0.027;0.073;-0.021991148591041565;-0.015882495790719986;-0.0024434609804302454
01:00:0A:00:00:00:00;1723421102;12/08/24;00:05:02;1.014;-0.028;0.071;-0.021991148591041565;-0.009773843921720982;0.006108652334660292
01:00:0A:00:00:00:00;1723421103;12/08/24;00:05:03;1.015;-0.032;0.075;-0.02076941914856434;-0.009773843921720982;0.0024434609804302454
01:00:0A:00:00:00:00;1723421104;12/08/24;00:05:04;1.015;-0.027;0.071;-0.02076941914856434;-0.013439035043120384;-0.0012217304902151227
01:00:0A:00:00:00:00;1723421105;12/08/24;00:05:05;1.015;-0.027;0.072;-0.019547687843441963;-0.00855211354792118;0.006108652334660292
01:00:0A:00:00:00:00;1723421106;12/08/24;00:05:06;1.015;-0.031;0.074;-0.018325956538319588;-0.009773843921720982;0.0012217304902151227
01:00:0A:00:00:00:00;1723421107;12/08/24;00:05:07;1.015;-0.027;0.072;-0.018325956538319588;-0.013439035043120384;0.0
01:00:0A:00:00:00:00;1723421108;12/08/24;00:05:08;1.016;-0.029;0.071;-0.018325956538319588;-0.009773843921720982;0.00855211354792118
01:00:0A:00:00:00:00;1723421109;12/08/24;00:05:09;1.014;-0.031;0.074;-0.015882495790719986;-0.010995574295520782;0.0
01:00:0A:00:00:00:00;1723421110;12/08/24;00:05:10;1.014;-0.025;0.072;-0.015882495790719986;-0.013439035043120384;-0.0012217304902151227
01:00:0A:00:00:00:00;1723421111;12/08/24;00:05:11;1.014;-0.03;0.072;-0.015882495790719986;-0.009773843921720982;0.00855211354792118
01:00:0A:00:00:00:00;1723421112;12/08/24;00:05:12;1.015;-0.031;0.073;-0.014660765416920185;-0.010995574295520782;0.0
01:00:0A:00:00:00:00;1723421113;12/08/24;00:05:13;1.016;-0.025;0.073;-0.014660765416920185;-0.012217304669320583;0.0012217304902151227
01:00:0A:00:00:00:00;1723421114;12/08/24;00:05:14;1.016;-0.028;0.071;-0.014660765416920185;-0.009773843921720982;0.00855211354792118
01:00:0A:00:00:00:00;1723421115;12/08/24;00:05:15;1.014;-0.032;0.073;-0.012217304669320583;-0.010995574295520782;0.0
01:00:0A:00:00:00:00;1723421116;12/08/24;00:05:16;1.015;-0.027;0.072;-0.013439035043120384;-0.012217304669320583;0.0012217304902151227
01:00:0A:00:00:00:00;1723421117;12/08/24;00:05:17;1.015;-0.028;0.072;-0.013439035043120384;-0.009773843921720982;0.00855211354792118
01:00:0A:00:00:00:00;1723421118;12/08/24;00:05:18;1.014;-0.031;0.073;-0.010995574295520782;-0.010995574295520782;-0.0012217304902151227
01:00:0A:00:00:00:00;1723421119;12/08/24;00:05:19;1.015;-0.026;0.071;-0.012217304669320583;-0.012217304669320583;0.0012217304902151227
01:00:0A:00:00:00:00;1723421120;12/08/24;00:05:20;1.016;-0.03;0.071;-0.012217304669320583;-0.009773843921720982;0.00855211354792118
01:00:0A:00:00:00:00;1723421121;12/08/24;00:05:21;1.014;-0.03;0.073;-0.009773843921720982;-0.010995574295520782;-0.0012217304902151227
01:00:0A:00:00:00:00;1723421122;12/08/24;00:05:22;1.016;-0.026;0.071;-0.010995574295520782;-0.012217304669320583;0.0024434609804302454
01:00:0A:00:00:00:00;1723421123;12/08/24;00:05:23;1.016;-0.03;0.071;-0.010995574295520782;-0.010995574295520782;0.0073303827084600925
01:00:0A:00:00:00:00;1723421124;12/08/24;00:05:24;1.016;-0.03;0.073;-0.00855211354792118;-0.010995574295520782;-0.0012217304902151227
01:00:0A:00:00:00:00;1723421125;12/08/24;00:05:25;1.015;-0.026;0.071;-0.00855211354792118;-0.012217304669320583;0.004886921960860491
01:00:0A:00:00:00:00;1723421126;12/08/24;00:05:26;1.015;-0.03;0.072;-0.00855211354792118;-0.009773843921720982;0.00855211354792118
01:00:0A:00:00:00:00;1723421127;12/08/24;00:05:27;1.015;-0.029;0.072;-0.004886921960860491;-0.010995574295520782;-0.0024434609804302454
01:00:0A:00:00:00:00;1723421128;12/08/24;00:05:28;1.014;-0.026;0.071;-0.0073303827084600925;-0.012217304669320583;0.004886921960860491
01:00:0A:00:00:00:00;1723421129;12/08/24;00:05:29;1.015;-0.031;0.07;-0.006108652334660292;-0.010995574295520782;0.0073303827084600925
01:00:0A:00:00:00:00;1723421130;12/08/24;00:05:30;1.014;-0.028;0.073;-0.0036651913542300463;-0.010995574295520782;-0.0024434609804302454
01:00:0A:00:00:00:00;1723421131;12/08/24;00:05:31;1.014;-0.026;0.072;-0.004886921960860491;-0.012217304669320583;0.004886921960860491
01:00:0A:00:00:00:00;1723421132;12/08/24;00:05:32;1.014;-0.03;0.073;-0.0036651913542300463;-0.010995574295520782;0.0073303827084600925
01:00:0A:00:00:00:00;1723421133;12/08/24;00:05:33;1.016;-0.029;0.073;-0.0024434609804302454;-0.009773843921720982;-0.0012217304902151227
01:00:0A:00:00:00:00;1723421134;12/08/24;00:05:34;1.014;-0.025;0.072;-0.0036651913542300463;-0.013439035043120384;0.006108652334660292
01:00:0A:00:00:00:00;1723421135;12/08/24;00:05:35;1.015;-0.032;0.071;-0.0024434609804302454;-0.010995574295520782;0.006108652334660292
01:00:0A:00:00:00:00;1723421136;12/08/24;00:05:36;1.015;-0.029;0.073;-0.0012217304902151227;-0.010995574295520782;-0.0012217304902151227
01:00:0A:00:00:00:00;1723421137;12/08/24;00:05:37;1.015;-0.025;0.072;-0.0036651913542300463;-0.013439035043120384;0.00855211354792118
01:00:0A:00:00:00:00;1723421138;12/08/24;00:05:38;1.015;-0.03;0.071;-0.0012217304902151227;-0.010995574295520782;0.0036651913542300463
01:00:0A:00:00:00:00;1723421139;12/08/24;00:05:39;1.015;-0.026;0.072;0.0;-0.009773843921720982;-0.0024434609804302454
01:00:0A:00:00:00:00;1723421140;12/08/24;00:05:40;1.015;-0.027;0.072;-0.0012217304902151227;-0.012217304669320583;0.00855211354792118
01:00:0A:00:00:00:00;1723421141;12/08/24;00:05:41;1.014;-0.032;0.071;0.0;-0.010995574295520782;0.004886921960860491
01:00:0A:00:00:00:00;1723421142;12/08/24;00:05:42;1.016;-0.027;0.073;0.0012217304902151227;-0.009773843921720982;-0.0012217304902151227
01:00:0A:00:00:00:00;1723421143;12/08/24;00:05:43;1.014;-0.026;0.072;-0.0012217304902151227;-0.013439035043120384;0.00855211354792118
01:00:0A:00:00:00:00;1723421144;12/08/24;00:05:44;1.015;-0.032;0.072;0.0012217304902151227;-0.010995574295520782;0.0036651913542300463
01:00:0A:00:00:00:00;1723421145;12/08/24;00:05:45;1.015;-0.025;0.073;0.0024434609804302454;-0.010995574295520782;0.0
01:00:0A:00:00:00:00;1723421146;12/08/24;00:05:46;1.015;-0.028;0.072;0.0;-0.012217304669320583;0.00855211354792118
01:00:0A:00:00:00:00;1723421147;12/08/24;00:05:47;1.014;-0.031;0.071;0.0012217304902151227;-0.009773843921720982;0.0024434609804302454
01:00:0A:00:00:00:00;1723421148;12/08/24;00:05:48;1.014;-0.026;0.073;0.0024434609804302454;-0.010995574295520782;0.0012217304902151227
01:00:0A:00:00:00:00;1723421149;12/08/24;00:05:49;1.015;-0.028;0.071;0.0;-0.014660765416920185;0.009773843921720982
01:00:0A:00:00:00:00;1723421150;12/08/24;00:05:50;1.016;-0.03;0.071;0.0024434609804302454;-0.010995574295520782;0.0012217304902151227
01:00:0A:00:00:00:00;1723421151;12/08/24;00:05:51;1.015;-0.027;0.071;0.0024434609804302454;-0.010995574295520782;0.0012217304902151227
01:00:0A:00:00:00:00;1723421152;12/08/24;00:05:52;1.016;-0.029;0.072;0.0;-0.013439035043120384;0.009773843921720982
01:00:0A:00:00:00:00;1723421153;12/08/24;00:05:53;1.015;-0.03;0.071;0.0036651913542300463;-0.009773843921720982;0.0024434609804302454
01:00:0A:00:00:00:00;1723421154;12/08/24;00:05:54;1.014;-0.026;0.072;0.0024434609804302454;-0.010995574295520782;0.0024434609804302454
01:00:0A:00:00:00:00;1723421155;12/08/24;00:05:55;1.016;-0.029;0.072;0.0012217304902151227;-0.013439035043120384;0.00855211354792118
01:00:0A:00:00:00:00;1723421156;12/08/24;00:05:56;1.014;-0.03;0.071;0.0036651913542300463;-0.009773843921720982;0.0
01:00:0A:00:00:00:00;1723421157;12/08/24;00:05:57;1.014;-0.025;0.072;0.0024434609804302454;-0.012217304669320583;0.004886921960860491
01:00:0A:00:00:00:00;1723421158;12/08/24;00:05:58;1.015;-0.028;0.071;0.0012217304902151227;-0.013439035043120384;0.00855211354792118
01:00:0A:00:00:00:00;1723421159;12/08/24;00:05:59;1.014;-0.029;0.073;0.004886921960860491;-0.009773843921720982;0.0
01:00:0A:00:00:00:00;1723421160;12/08/24;00:06:00;1.015;-0.026;0.072;0.0036651913542300463;-0.012217304669320583;0.004886921960860491
01:00:0A:00:00:00:00;1723421161;12/08/24;00:06:01;1.015;-0.029;0.071;0.0024434609804302454;-0.012217304669320583;0.00855211354792118
01:00:0A:00:00:00:00;1723421162;12/08/24;00:06:02;1.015;-0.029;0.072;0.004886921960860491;-0.009773843921720982;0.0
01:00:0A:00:00:00:00;1723421163;12/08/24;00:06:03;1.013;-0.025;0.072;0.0036651913542300463;-0.013439035043120384;0.004886921960860491
01:00:0A:00:00:00:00;1723421164;12/08/24;00:06:04;1.014;-0.03;0.071;0.0036651913542300463;-0.012217304669320583;0.0073303827084600925
01:00:0A:00:00:00:00;1723421165;12/08/24;00:06:05;1.016;-0.028;0.072;0.006108652334660292;-0.009773843921720982;0.0
01:00:0A:00:00:00:00;1723421166;12/08/24;00:06:06;1.015;-0.025;0.073;0.0036651913542300463;-0.012217304669320583;0.006108652334660292
01:00:0A:00:00:00:00;1723421167;12/08/24;00:06:07;1.016;-0.03;0.072;0.0036651913542300463;-0.012217304669320583;0.0073303827084600925
01:00:0A:00:00:00:00;1723421168;12/08/24;00:06:08;1.015;-0.027;0.073;0.006108652334660292;-0.00855211354792118;-0.0012217304902151227
01:00:0A:00:00:00:00;1723421169;12/08/24;00:06:09;1.015;-0.025;0.072;0.0036651913542300463;-0.013439035043120384;0.006108652334660292
01:00:0A:00:00:00:00;1723421170;12/08/24;00:06:10;1.014;-0.03;0.071;0.0036651913542300463;-0.012217304669320583;0.006108652334660292
01:00:0A:00:00:00:00;1723421171;12/08/24;00:06:11;1.015;-0.028;0.072;0.004886921960860491;-0.009773843921720982;-0.0012217304902151227
01:00:0A:00:00:00:00;1723421172;12/08/24;00:06:12;1.014;-0.026;0.074;0.0024434609804302454;-0.013439035043120384;0.0073303827084600925
01:00:0A:00:00:00:00;1723421173;12/08/24;00:06:13;1.016;-0.03;0.073;0.0024434609804302454;-0.010995574295520782;0.006108652334660292
01:00:0A:00:00:00:00;1723421174;12/08/24;00:06:14;1.015;-0.028;0.073;0.004886921960860491;-0.009773843921720982;0.0
01:00:0A:00:00:00:00;1723421175;12/08/24;00:06:15;1.015;-0.026;0.072;0.0012217304902151227;-0.013439035043120384;0.0073303827084600925
01:00:0A:00:00:00:00;1723421176;12/08/24;00:06:16;1.015;-0.031;0.071;0.0036651913542300463;-0.010995574295520782;0.0036651913542300463
01:00:0A:00:00:00:00;1723421177;12/08/24;00:06:17;1.013;-0.027;0.073;0.0036651913542300463;-0.009773843921720982;0.0
01:00:0A:00:00:00:00;1723421178;12/08/24;00:06:18;1.015;-0.028;0.072;0.0012217304902151227;-0.013439035043120384;0.0073303827084600925
01:00:0A:00:00:00:00;1723421179;12/08/24;00:06:19;1.016;-0.031;0.071;0.0036651913542300463;-0.010995574295520782;0.0036651913542300463
01:00:0A:00:00:00:00;1723421180;12/08/24;00:06:20;1.016;-0.026;0.073;0.004886921960860491;-0.00855211354792118;0.0
01:00:0A:00:00:00:00;1723421181;12/08/24;00:06:21;1.013;-0.028;0.071;0.0012217304902151227;-0.013439035043120384;0.00855211354792118
01:00:0A:00:00:00:00;1723421182;12/08/24;00:06:22;1.015;-0.029;0.07;0.0036651913542300463;-0.010995574295520782;0.0036651913542300463
01:00:0A:00:00:00:00;1723421183;12/08/24;00:06:23;1.015;-0.026;0.073;0.0036651913542300463;-0.010995574295520782;0.0012217304902151227
01:00:0A:00:00:00:00;1723421184;12/08/24;00:06:24;1.014;-0.028;0.072;0.0024434609804302454;-0.013439035043120384;0.00855211354792118
01:00:0A:00:00:00:00;1723421185;12/08/24;00:06:25;1.015;-0.03;0.071;0.004886921960860491;-0.009773843921720982;0.0012217304902151227
01:00:0A:00:00:00:00;1723421196;12/08/24;00:06:36;1.015;-0.03;0.071;0.0024434609804302454;-0.013439035043120384;0.0073303827084600925
01:00:0A:00:00:00:00;1723421197;12/08/24;00:06:37;1.015;-0.029;0.072;0.004886921960860491;-0.00855211354792118;0.0
01:00:0A:00:00:00:00;1723421198;12/08/24;00:06:38;1.014;-0.026;0.071;0.0024434609804302454;-0.012217304669320583;0.004886921960860491
01:00:0A:00:00:00:00;1723421199;12/08/24;00:06:39;1.015;-0.029;0.071;0.0024434609804302454;-0.012217304669320583;0.0073303827084600925
01:00:0A:00:00:00:00;1723421200;12/08/24;00:06:40;1.015;-0.029;0.071;0.004886921960860491;-0.00855211354792118;0.0
01:00:0A:00:00:00:00;1723421201;12/08/24;00:06:41;1.014;-0.027;0.072;0.0024434609804302454;-0.013439035043120384;0.004886921960860491
01:00:0A:00:00:00:00;1723421202;12/08/24;00:06:42;1.016;-0.029;0.071;0.0024434609804302454;-0.013439035043120384;0.006108652334660292
01:00:0A:00:00:00:00;1723421203;12/08/24;00:06:43;1.014;-0.028;0.073;0.0036651913542300463;-0.00855211354792118;0.0
01:00:0A:00:00:00:00;1723421204;12/08/24;00:06:44;1.015;-0.026;0.073;0.0024434609804302454;-0.012217304669320583;0.006108652334660292
01:00:0A:00:00:00:00;1723421205;12/08/24;00:06:45;1.015;-0.03;0.071;0.0024434609804302454;-0.012217304669320583;0.006108652334660292
01:00:0A:00:00:00:00;1723421206;12/08/24;00:06:46;1.014;-0.027;0.073;0.004886921960860491;-0.00855211354792118;0.0
01:00:0A:00:00:00:00;1723421207;12/08/24;00:06:47;1.016;-0.027;0.073;0.0024434609804302454;-0.013439035043120384;0.006108652334660292
01:00:0A:00:00:00:00;1723421208;12/08/24;00:06:48;1.015;-0.029;0.071;0.0024434609804302454;-0.010995574295520782;0.004886921960860491
01:00:0A:00:00:00:00;1723421209;12/08/24;00:06:49;1.015;-0.026;0.072;0.004886921960860491;-0.00855211354792118;0.0
01:00:0A:00:00:00:00;1723421210;12/08/24;00:06:50;1.016;-0.027;0.072;0.0012217304902151227;-0.013439035043120384;0.0073303827084600925
01:00:0A:00:00:00:00;1723421211;12/08/24;00:06:51;1.014;-0.03;0.071;0.0036651913542300463;-0.010995574295520782;0.004886921960860491
01:00:0A:00:00:00:00;1723421212;12/08/24;00:06:52;1.015;-0.026;0.072;0.004886921960860491;-0.00855211354792118;0.0
01:00:0A:00:00:00:00;1723421213;12/08/24;00:06:53;1.015;-0.028;0.072;0.0024434609804302454;-0.013439035043120384;0.0073303827084600925
01:00:0A:00:00:00:00;1723421214;12/08/24;00:06:54;1.014;-0.03;0.07;0.0036651913542300463;-0.010995574295520782;0.004886921960860491
01:00:0A:00:00:00:00;1723421215;12/08/24;00:06:55;1.016;-0.026;0.074;0.004886921960860491;-0.009773843921720982;0.0012217304902151227
01:00:0A:00:00:00:00;1723421216;12/08/24;00:06:56;1.015;-0.028;0.073;0.0024434609804302454;-0.013439035043120384;0.0073303827084600925
01:00:0A:00:00:00:00;1723421217;12/08/24;00:06:57;1.015;-0.029;0.071;0.0036651913542300463;-0.009773843921720982;0.0024434609804302454
01:00:0A:00:00:00:00;1723421218;12/08/24;00:06:58;1.015;-0.026;0.074;0.004886921960860491;-0.009773843921720982;0.0012217304902151227
01:00:0A:00:00:00:00;1723421219;12/08/24;00:06:59;1.015;-0.027;0.072;0.0024434609804302454;-0.014660765416920185;0.00855211354792118
01:00:0A:00:00:00:00;1723421220;12/08/24;00:07:00;1.015;-0.029;0.071;0.0036651913542300463;-0.009773843921720982;0.0024434609804302454
01:00:0A:00:00:00:00;1723421221;12/08/24;00:07:01;1.014;-0.025;0.073;0.0036651913542300463;-0.009773843921720982;0.0012217304902151227
01:00:0A:00:00:00:00;1723421222;12/08/24;00:07:02;1.014;-0.027;0.071;0.0012217304902151227;-0.014660765416920185;0.0073303827084600925
01:00:0A:00:00:00:00;1723421223;12/08/24;00:07:03;1.015;-0.029;0.071;0.0036651913542300463;-0.010995574295520782;0.0024434609804302454
01:00:0A:00:00:00:00;1723421224;12/08/24;00:07:04;1.015;-0.025;0.074;0.0036651913542300463;-0.010995574295520782;0.0024434609804302454
01:00:0A:00:00:00:00;1723421225;12/08/24;00:07:05;1.016;-0.028;0.072;0.0012217304902151227;-0.013439035043120384;0.0073303827084600925
01:00:0A:00:00:00:00;1723421226;12/08/24;00:07:06;1.014;-0.03;0.071;0.0036651913542300463;-0.00855211354792118;0.0012217304902151227
01:00:0A:00:00:00:00;1723421227;12/08/24;00:07:07;1.015;-0.025;0.074;0.0024434609804302454;-0.010995574295520782;0.0024434609804302454
01:00:0A:00:00:00:00;1723421228;12/08/24;00:07:08;1.015;-0.028;0.072;0.0;-0.013439035043120384;0.0073303827084600925
01:00:0A:00:00:00:00;1723421229;12/08/24;00:07:09;1.015;-0.028;0.073;0.0024434609804302454;-0.00855211354792118;0.0012217304902151227
01:00:0A:00:00:00:00;1723421230;12/08/24;00:07:10;1.014;-0.025;0.074;0.0012217304902151227;-0.012217304669320583;0.0024434609804302454
01:00:0A:00:00:00:00;1723421231;12/08/24;00:07:11;1.015;-0.029;0.071;0.0;-0.013439035043120384;0.0073303827084600925
01:00:0A:00:00:00:00;1723421232;12/08/24;00:07:12;1.015;-0.029;0.073;0.0012217304902151227;-0.00855211354792118;0.0012217304902151227
01:00:0A:00:00:00:00;1723421233;12/08/24;00:07:13;1.015;-0.027;0.075;-0.0012217304902151227;-0.010995574295520782;0.0036651913542300463
01:00:0A:00:00:00:00;1723421234;12/08/24;00:07:14;1.015;-0.029;0.07;-0.0024434609804302454;-0.012217304669320583;0.006108652334660292
01:00:0A:00:00:00:00;1723421235;12/08/24;00:07:15;1.015;-0.029;0.072;0.0;-0.00855211354792118;0.0012217304902151227
01:00:0A:00:00:00:00;1723421236;12/08/24;00:07:16;1.015;-0.027;0.073;-0.0024434609804302454;-0.012217304669320583;0.0036651913542300463
01:00:0A:00:00:00:00;1723421237;12/08/24;00:07:17;1.015;-0.029;0.071;-0.0036651913542300463;-0.012217304669320583;0.004886921960860491
01:00:0A:00:00:00:00;1723421238;12/08/24;00:07:18;1.015;-0.027;0.073;-0.0024434609804302454;-0.00855211354792118;0.0
01:00:0A:00:00:00:00;1723421239;12/08/24;00:07:19;1.016;-0.026;0.074;-0.0036651913542300463;-0.012217304669320583;0.004886921960860491
01:00:0A:00:00:00:00;1723421240;12/08/24;00:07:20;1.015;-0.029;0.072;-0.004886921960860491;-0.012217304669320583;0.006108652334660292
01:00:0A:00:00:00:00;1723421241;12/08/24;00:07:21;1.015;-0.028;0.072;-0.0036651913542300463;-0.00855211354792118;0.0
01:00:0A:00:00:00:00;1723421242;12/08/24;00:07:22;1.014;-0.026;0.073;-0.006108652334660292;-0.013439035043120384;0.004886921960860491
01:00:0A:00:00:00:00;1723421243;12/08/24;00:07:23;1.015;-0.028;0.071;-0.006108652334660292;-0.012217304669320583;0.0036651913542300463
01:00:0A:00:00:00:00;1723421244;12/08/24;00:07:24;1.015;-0.028;0.072;-0.006108652334660292;-0.00855211354792118;0.0
01:00:0A:00:00:00:00;1723421245;12/08/24;00:07:25;1.015;-0.027;0.074;-0.00855211354792118;-0.013439035043120384;0.004886921960860491
01:00:0A:00:00:00:00;1723421246;12/08/24;00:07:26;1.015;-0.029;0.072;-0.00855211354792118;-0.010995574295520782;0.0036651913542300463
01:00:0A:00:00:00:00;1723421247;12/08/24;00:07:27;1.014;-0.026;0.075;-0.0073303827084600925;-0.00855211354792118;0.0012217304902151227
01:00:0A:00:00:00:00;1723421248;12/08/24;00:07:28;1.016;-0.027;0.072;-0.009773843921720982;-0.013439035043120384;0.006108652334660292
01:00:0A:00:00:00:00;1723421249;12/08/24;00:07:29;1.015;-0.029;0.071;-0.00855211354792118;-0.010995574295520782;0.0036651913542300463
01:00:0A:00:00:00:00;1723421250;12/08/24;00:07:30;1.014;-0.027;0.072;-0.00855211354792118;-0.00855211354792118;0.0
01:00:0A:00:00:00:00;1723421251;12/08/24;00:07:31;1.015;-0.027;0.073;-0.010995574295520782;-0.014660765416920185;0.004886921960860491
01:00:0A:00:00:00:00;1723421252;12/08/24;00:07:32;1.015;-0.028;0.071;-0.009773843921720982;-0.010995574295520782;0.0024434609804302454
01:00:0A:00:00:00:00;1723421253;12/08/24;00:07:33;1.015;-0.027;0.073;-0.009773843921720982;-0.00855211354792118;0.0024434609804302454
01:00:0A:00:00:00:00;1723421254;12/08/24;00:07:34;1.016;-0.028;0.071;-0.010995574295520782;-0.013439035043120384;0.006108652334660292
01:00:0A:00:00:00:00;1723421255;12/08/24;00:07:35;1.015;-0.029;0.071;-0.009773843921720982;-0.010995574295520782;0.0024434609804302454
01:00:0A:00:00:00:00;1723421256;12/08/24;00:07:36;1.015;-0.025;0.073;-0.009773843921720982;-0.009773843921720982;0.0012217304902151227
01:00:0A:00:00:00:00;1723421257;12/08/24;00:07:37;1.013;-0.027;0.069;-0.013439035043120384;-0.01710422709584236;0.009773843921720982
01:00:0A:00:00:00:00;1723421258;12/08/24;00:07:38;1.011;-0.024;0.069;-0.009773843921720982;-0.01710422709584236;-0.0036651913542300463
01:00:0A:00:00:00:00;1723421259;12/08/24;00:07:39;1.019;-0.024;0.073;-0.009773843921720982;-0.02076941914856434;-0.012217304669320583
01:00:0A:00:00:00:00;1723421260;12/08/24;00:07:40;1.028;-0.033;0.076;-0.013439035043120384;-0.02321287989616394;0.006108652334660292
01:00:0A:00:00:00:00;1723421261;12/08/24;00:07:41;1.02;-0.03;0.078;-0.014660765416920185;-0.00855211354792118;0.024434609338641167
01:00:0A:00:00:00:00;1723421262;12/08/24;00:07:42;1.008;-0.016;0.086;-0.01710422709584236;0.01710422709584236;0.025656338781118393
01:00:0A:00:00:00:00;1723421263;12/08/24;00:07:43;0.99;-0.009;0.068;-0.024434609338641167;-0.0012217304902151227;0.006108652334660292
01:00:0A:00:00:00:00;1723421264;12/08/24;00:07:44;1.002;-0.013;0.062;-0.02321287989616394;-0.004886921960860491;-0.04153883829712868
01:00:0A:00:00:00:00;1723421265;12/08/24;00:07:45;1.026;-0.021;0.079;-0.039095375686883926;-0.04398229718208313;-0.036651913076639175
01:00:0A:00:00:00:00;1723421266;12/08/24;00:07:46;1.047;-0.056;0.058;-0.036651913076639175;-0.0354301817715168;-0.00855211354792118
01:00:0A:00:00:00:00;1723421267;12/08/24;00:07:47;1.045;-0.048;0.082;-0.03420845419168472;0.0;0.03420845419168472
01:00:0A:00:00:00:00;1723421268;12/08/24;00:07:48;1.008;-0.021;0.086;-0.05497787147760391;-0.01710422709584236;0.07819075137376785
01:00:0A:00:00:00:00;1723421269;12/08/24;00:07:49;0.989;0.0;0.077;-0.05619959905743599;-0.004886921960860491;0.04886921867728233
01:00:0A:00:00:00:00;1723421270;12/08/24;00:07:50;0.986;0.012;0.083;-0.05497787147760391;0.009773843921720982;-0.01710422709584236
01:00:0A:00:00:00:00;1723421271;12/08/24;00:07:51;0.996;-0.001;0.072;-0.059864792972803116;-0.02687807008624077;-0.06230825558304787
01:00:0A:00:00:00:00;1723421272;12/08/24;00:07:52;1.017;-0.041;0.058;-0.04642575979232788;0.0;-0.08429940044879913
01:00:0A:00:00:00:00;1723421273;12/08/24;00:07:53;1.03;-0.065;0.067;-0.05009094998240471;-0.02687807008624077;0.02321287989616394
01:00:0A:00:00:00:00;1723421274;12/08/24;00:07:54;1.035;-0.081;0.061;-0.045204028487205505;-0.039095375686883926;0.0708603635430336
01:00:0A:00:00:00:00;1723421275;12/08/24;00:07:55;1.036;-0.029;0.067;-0.03176499158143997;-0.03176499158143997;0.09529497474431992
01:00:0A:00:00:00:00;1723421276;12/08/24;00:07:56;1.022;-0.022;0.065;-0.0073303827084600925;0.0012217304902151227;0.1062905490398407
01:00:0A:00:00:00:00;1723421277;12/08/24;00:07:57;0.992;-0.015;0.079;0.028099799528717995;0.1014036238193512;-0.1270599663257599
01:00:0A:00:00:00:00;1723421278;12/08/24;00:07:58;0.974;0.041;0.102;-0.04886921867728233;-0.03420845419168472;-0.11484266817569733
01:00:0A:00:00:00:00;1723421279;12/08/24;00:07:59;0.994;-0.094;0.068;-0.12950342893600464;0.02076941914856434;0.1258382350206375
01:00:0A:00:00:00:00;1723421280;12/08/24;00:08:00;1.035;-0.106;0.128;-0.13805554807186127;-0.10262535512447357;-0.27977627515792847
01:00:0A:00:00:00:00;1723421281;12/08/24;00:08:01;1.062;0.131;0.057;-0.05253440886735916;0.20891590416431427;0.29565879702568054
01:00:0A:00:00:00:00;1723421282;12/08/24;00:08:02;1.041;0.0;0.224;0.29565879702568054;-0.004886921960860491;0.161268413066864
01:00:0A:00:00:00:00;1723421283;12/08/24;00:08:03;1.01;-0.116;-0.016;0.0012217304902151227;-0.03787364438176155;0.09773843735456467
01:00:0A:00:00:00:00;1723421284;12/08/24;00:08:04;0.918;0.119;0.16;-0.16859880089759827;0.161268413066864;-0.375071257352829
01:00:0A:00:00:00:00;1723421285;12/08/24;00:08:05;0.935;-0.115;-0.03;-0.5595525503158569;-0.5974262356758118;0.6939429044723511
01:00:0A:00:00:00:00;1723421286;12/08/24;00:08:06;0.968;-0.081;-0.048;-0.1319468915462494;0.5925393104553223;-0.7916813492774963
01:00:0A:00:00:00:00;1723421287;12/08/24;00:08:07;0.954;0.215;0.189;-0.5522221922874451;-0.38728854060173035;0.533896267414093
01:00:0A:00:00:00:00;1723421288;12/08/24;00:08:08;1.038;-0.191;-0.05;-0.5180137157440186;0.009773843921720982;-0.08307767659425735
01:00:0A:00:00:00:00;1723421289;12/08/24;00:08:09;1.033;0.093;-0.013;0.1820378452539444;-0.12339477241039276;-0.18814648687839508
01:00:0A:00:00:00:00;1723421290;12/08/24;00:08:10;0.985;-0.068;0.05;0.35063666105270386;0.018325956538319588;0.35674530267715454
01:00:0A:00:00:00:00;1723421291;12/08/24;00:08:11;0.945;0.037;0.033;0.4764748811721802;-0.1319468915462494;-0.5192354917526245
01:00:0A:00:00:00:00;1723421292;12/08/24;00:08:12;0.967;-0.034;0.028;0.23457224667072296;0.48380526900291443;0.4544837474822998
01:00:0A:00:00:00:00;1723421293;12/08/24;00:08:13;1.013;-0.019;0.162;-0.0757472887635231;-0.7648032903671265;-0.375071257352829
01:00:0A:00:00:00:00;1723421294;12/08/24;00:08:14;0.939;-0.377;0.03;0.7318165302276611;1.8118263483047485;0.7819074988365173
01:00:0A:00:00:00:00;1723421295;12/08/24;00:08:15;0.865;0.309;0.563;-0.5656611919403076;-0.3591887652873993;-1.2009611129760742
01:00:0A:00:00:00:00;1723421296;12/08/24;00:08:16;0.963;0.393;-0.144;-1.1044443845748901;-0.6902776956558228;-0.0354301817715168
01:00:0A:00:00:00:00;1723421297;12/08/24;00:08:17;0.967;-0.125;0.041;-1.359786033630371;-0.4911356568336487;0.6609562039375305
01:00:0A:00:00:00:00;1723421298;12/08/24;00:08:18;0.857;-0.442;0.184;-1.3903292417526245;1.547932505607605;0.1514945775270462
01:00:0A:00:00:00:00;1723421299;12/08/24;00:08:19;0.91;-0.187;0.289;-1.3096951246261597;-0.030543262138962746;-1.528384804725647
01:00:0A:00:00:00:00;1723421300;12/08/24;00:08:20;0.941;0.253;0.034;-1.5919147729873657;-0.46792274713516235;0.10262535512447357
01:00:0A:00:00:00:00;1723421301;12/08/24;00:08:21;0.961;0.03;-0.199;-2.484999656677246;0.10995574295520782;0.9566149115562439
01:00:0A:00:00:00:00;1723421302;12/08/24;00:08:22;0.965;-0.121;-0.281;-1.8252652883529663;0.5082398653030396;0.656069278717041
01:00:0A:00:00:00:00;1723421303;12/08/24;00:08:23;0.976;-0.269;0.067;-1.320690631866455;0.40683624148368835;0.05619959905743599
01:00:0A:00:00:00:00;1723421304;12/08/24;00:08:24;0.953;-0.468;-0.027;0.06108652427792549;-0.616973876953125;0.2382374405860901
01:00:0A:00:00:00:00;1723421305;12/08/24;00:08:25;1.012;0.126;-0.029;-0.019547687843441963;0.14294245839118958;-0.9993755221366882
01:00:0A:00:00:00:00;1723421306;12/08/24;00:08:26;1.015;0.079;0.013;-0.49235740303993225;0.1673770695924759;0.8100073337554932
01:00:0A:00:00:00:00;1723421307;12/08/24;00:08:27;0.995;-0.2;0.007;-0.740368664264679;0.06352998316287994;-0.12339477241039276
01:00:0A:00:00:00:00;1723421308;12/08/24;00:08:28;0.99;0.214;0.065;-0.9859364628791809;-0.4349360466003418;-0.06475171446800232
01:00:0A:00:00:00:00;1723421309;12/08/24;00:08:29;0.952;-0.27;0.205;-1.2400563955307007;0.6377432942390442;0.02321287989616394
01:00:0A:00:00:00:00;1723421310;12/08/24;00:08:30;1.015;0.07;0.071;-1.7189747095108032;-0.7476990222930908;-0.5375614166259766
01:00:0A:00:00:00:00;1723421311;12/08/24;00:08:31;0.987;-0.046;-0.078;-1.379333734512329;0.06108652427792549;1.0885618925094604
01:00:0A:00:00:00:00;1723421312;12/08/24;00:08:32;0.914;-0.012;-0.216;-0.07208210229873657;0.45204028487205505;-0.08674286305904388
01:00:0A:00:00:00:00;1723421313;12/08/24;00:08:33;0.986;0.02;0.093;-0.6059783101081848;0.10995574295520782;0.2724458873271942
01:00:0A:00:00:00:00;1723421314;12/08/24;00:08:34;1.035;0.053;0.112;-1.0946705341339111;-0.3897320330142975;-0.35552355647087097
01:00:0A:00:00:00:00;1723421315;12/08/24;00:08:35;1.026;-0.084;0.224;-1.6872097253799438;0.48869219422340393;0.00855211354792118
01:00:0A:00:00:00:00;1723421316;12/08/24;00:08:36;1.038;0.048;0.044;0.028099799528717995;0.32620203495025635;0.4056144952774048
01:00:0A:00:00:00:00;1723421317;12/08/24;00:08:37;0.986;-0.301;0.05;-2.0671679973602295;0.8210028409957886;0.01710422709584236
01:00:0A:00:00:00:00;1723421318;12/08/24;00:08:38;0.959;-0.178;0.298;-1.7751742601394653;0.3530800938606262;-0.5949827432632446
01:00:0A:00:00:00:00;1723421319;12/08/24;00:08:39;0.97;-0.123;0.279;-1.8472564220428467;0.10262535512447357;-0.6499606370925903
01:00:0A:00:00:00:00;1723421320;12/08/24;00:08:40;0.992;0.012;0.188;-1.8643606901168823;0.1661553531885147;-0.48258352279663086
01:00:0A:00:00:00:00;1723421321;12/08/24;00:08:41;1.002;-0.024;0.173;-2.211332082748413;-0.28099802136421204;0.09896016865968704
01:00:0A:00:00:00:00;1723421322;12/08/24;00:08:42;1.021;0.0;-0.033;-1.8179349899291992;0.3066543638706207;0.04398229718208313
01:00:0A:00:00:00:00;1723421323;12/08/24;00:08:43;0.993;-0.279;-0.001;-1.5393803119659424;-0.10506881773471832;0.09651670604944229
01:00:0A:00:00:00:00;1723421324;12/08/24;00:08:44;1.016;0.062;0.01;-1.0812314748764038;0.3384193480014801;0.1160643920302391
01:00:0A:00:00:00:00;1723421325;12/08/24;00:08:45;0.985;-0.197;0.04;-0.9761626720428467;-0.07941248267889023;0.05742133408784866
01:00:0A:00:00:00:00;1723421326;12/08/24;00:08:46;0.976;0.099;0.149;-0.8576548099517822;0.19303341209888458;-0.2773328125476837
01:00:0A:00:00:00:00;1723421327;12/08/24;00:08:47;1.001;-0.097;-0.247;-1.205847978591919;-0.5913175940513611;0.32131510972976685
01:00:0A:00:00:00:00;1723421328;12/08/24;00:08:48;1.002;-0.145;-0.216;-0.4691444933414459;0.8258897662162781;0.32620203495025635
01:00:0A:00:00:00:00;1723421329;12/08/24;00:08:49;0.864;-0.308;0.511;-0.5253441333770752;0.06108652427792549;-0.0036651913542300463
01:00:0A:00:00:00:00;1723421330;12/08/24;00:08:50;1.048;-0.117;-0.038;-0.5302309989929199;-0.34208452701568604;-0.4593706727027893
01:00:0A:00:00:00:00;1723421331;12/08/24;00:08:51;0.995;0.237;0.108;-0.44104471802711487;0.20891590416431427;-0.04642575979232788
01:00:0A:00:00:00:00;1723421332;12/08/24;00:08:52;0.935;-0.258;0.04;-0.5546656250953674;-0.04764748737215996;0.4605923891067505
01:00:0A:00:00:00:00;1723421333;12/08/24;00:08:53;0.919;0.18;0.216;-0.3946189284324646;0.26511549949645996;-1.205847978591919
01:00:0A:00:00:00:00;1723421334;12/08/24;00:08:54;0.896;0.332;0.059;-0.9663888216018677;-1.207069754600525;0.22479839622974396
01:00:0A:00:00:00:00;1723421335;12/08/24;00:08:55;0.973;0.032;-0.072;-0.8991935849189758;0.33964109420776367;0.6120869517326355
01:00:0A:00:00:00:00;1723421336;12/08/24;00:08:56;0.998;-0.247;0.204;-0.7672467231750488;0.2883284091949463;-0.11484266817569733
01:00:0A:00:00:00:00;1723421337;12/08/24;00:08:57;1.016;0.286;0.12;-1.4624114036560059;-0.8735373020172119;-0.8747590184211731
01:00:0A:00:00:00:00;1723421338;12/08/24;00:08:58;1.011;0.154;-0.155;-1.4575244188308716;-0.645073652267456;0.3677408695220947
01:00:0A:00:00:00:00;1723421339;12/08/24;00:08:59;0.929;-0.06;-0.153;-1.1313223838806152;-0.051312677562236786;0.7379252314567566
01:00:0A:00:00:00:00;1723421340;12/08/24;00:09:00;0.917;-0.102;0.172;-0.7941248416900635;0.7623597979545593;-0.10262535512447357
01:00:0A:00:00:00:00;1723421341;12/08/24;00:09:01;0.962;0.066;0.059;-0.9737191796302795;-0.8979718685150146;-0.7024949789047241
01:00:0A:00:00:00:00;1723421342;12/08/24;00:09:02;0.911;0.319;0.073;-1.0641272068023682;0.080634206533432;0.6084217429161072
01:00:0A:00:00:00:00;1723421343;12/08/24;00:09:03;1.015;-0.248;0.035;-1.0458012819290161;-0.040317103266716;0.39217546582221985
01:00:0A:00:00:00:00;1723421344;12/08/24;00:09:04;1.049;-0.27;0.116;-0.7159340977668762;0.5290092825889587;-0.5681046843528748
01:00:0A:00:00:00:00;1723421345;12/08/24;00:09:05;0.799;-0.166;0.543;-1.588249683380127;-0.1722639948129654;-0.46547931432724
01:00:0A:00:00:00:00;1723421346;12/08/24;00:09:06;0.918;0.313;0.285;-1.888795256614685;-0.5925393104553223;-1.3805553913116455
01:00:0A:00:00:00:00;1723421347;12/08/24;00:09:07;0.978;0.165;0.128;-2.4520130157470703;-0.8258897662162781;-0.23090705275535583
01:00:0A:00:00:00:00;1723421348;12/08/24;00:09:08;0.967;0.139;-0.13;-2.4104740619659424;-0.3494149148464203;0.3689626157283783
01:00:0A:00:00:00:00;1723421349;12/08/24;00:09:09;1.059;-0.304;0.024;-2.026850938796997;0.7086036801338196;0.07941248267889023
01:00:0A:00:00:00:00;1723421350;12/08/24;00:09:10;0.97;-0.36;-0.147;-0.6829473376274109;-0.19425514340400696;-0.24190263450145721
01:00:0A:00:00:00:00;1723421351;12/08/24;00:09:11;1.042;-0.055;0.172;-0.5534439086914062;0.3066543638706207;0.07330382615327835
01:00:0A:00:00:00:00;1723421352;12/08/24;00:09:12;0.995;-0.22;0.124;-0.7415903806686401;0.014660765416920185;-0.05375614017248154
01:00:0A:00:00:00:00;1723421353;12/08/24;00:09:13;0.981;0.025;0.072;-0.8515461683273315;0.05009094998240471;0.04886921867728233
01:00:0A:00:00:00:00;1723421354;12/08/24;00:09:14;0.977;0.006;0.132;-1.1740829944610596;-0.22968533635139465;-0.18325956165790558
01:00:0A:00:00:00:00;1723421355;12/08/24;00:09:15;1.005;0.016;0.171;-1.5027284622192383;-0.22357667982578278;-0.15882496535778046
01:00:0A:00:00:00:00;1723421356;12/08/24;00:09:16;1.029;0.066;0.122;-1.754404902458191;-0.3384193480014801;-0.036651913076639175
01:00:0A:00:00:00:00;1723421357;12/08/24;00:09:17;1.0;-0.026;-0.233;-1.703092336654663;0.3066543638706207;0.37751471996307373
01:00:0A:00:00:00:00;1723421358;12/08/24;00:09:18;0.957;-0.22;0.294;-1.5894713401794434;0.43249258399009705;-0.891863226890564
01:00:0A:00:00:00:00;1723421359;12/08/24;00:09:19;0.943;0.348;0.209;-2.048841953277588;-0.8356636166572571;-0.4703662395477295
01:00:0A:00:00:00:00;1723421360;12/08/24;00:09:20;1.028;0.041;0.062;-2.4361305236816406;-0.7660250067710876;-0.2577851116657257
01:00:0A:00:00:00:00;1723421361;12/08/24;00:09:21;0.966;0.312;0.094;-2.51187801361084;-1.0641272068023682;0.11362093687057495
01:00:0A:00:00:00:00;1723421362;12/08/24;00:09:22;0.985;0.264;-0.297;-1.197295904159546;-0.019547687843441963;-0.27977627515792847
01:00:0A:00:00:00:00;1723421363;12/08/24;00:09:23;0.949;0.188;-0.333;-1.803274154663086;-0.6890559792518616;0.46547931432724
01:00:0A:00:00:00:00;1723421364;12/08/24;00:09:24;1.01;-0.069;-0.071;-1.57481050491333;0.2687807083129883;0.6218608021736145
01:00:0A:00:00:00:00;1723421365;12/08/24;00:09:25;0.982;-0.199;0.096;-1.282817006111145;0.28466320037841797;-0.16371189057826996
01:00:0A:00:00:00:00;1723421366;12/08/24;00:09:26;1.007;0.08;0.109;-1.1508700847625732;-0.12217304855585098;-0.41783180832862854
01:00:0A:00:00:00:00;1723421367;12/08/24;00:09:27;1.001;0.089;0.244;-1.3255774974822998;-0.37140607833862305;-0.20036379992961884
01:00:0A:00:00:00:00;1723421368;12/08/24;00:09:28;0.992;0.264;0.056;-1.4245377779006958;-0.40194931626319885;-0.18448130786418915
01:00:0A:00:00:00:00;1723421369;12/08/24;00:09:29;1.007;0.048;0.135;-1.518610954284668;-0.39828410744667053;0.0659734457731247
01:00:0A:00:00:00:00;1723421370;12/08/24;00:09:30;0.998;0.011;0.001;-1.3096951246261597;-0.0036651913542300463;-0.01710422709584236
01:00:0A:00:00:00:00;1723421371;12/08/24;00:09:31;0.991;-0.099;0.171;-1.1826351881027222;0.0354301817715168;-0.04764748737215996
01:00:0A:00:00:00:00;1723421372;12/08/24;00:09:32;1.03;-0.082;0.073;-0.96883225440979;-0.025656338781118393;-0.3042108714580536
01:00:0A:00:00:00:00;1723421373;12/08/24;00:09:33;1.034;0.053;0.162;-0.9101892113685608;-0.024434609338641167;-0.04398229718208313
01:00:0A:00:00:00:00;1723421374;12/08/24;00:09:34;1.024;-0.031;0.005;-0.8356636166572571;-0.15027284622192383;0.02076941914856434
01:00:0A:00:00:00:00;1723421375;12/08/24;00:09:35;0.979;-0.048;0.086;-0.7586946487426758;0.21380282938480377;0.18936821818351746
01:00:0A:00:00:00:00;1723421376;12/08/24;00:09:36;0.96;-0.111;0.113;-0.62796950340271;-0.1368338167667389;-0.17837265133857727
01:00:0A:00:00:00:00;1723421377;12/08/24;00:09:37;0.985;-0.106;0.092;-0.46670106053352356;0.045204028487205505;-0.05864306166768074
01:00:0A:00:00:00:00;1723421378;12/08/24;00:09:38;0.999;-0.135;0.128;-0.3078760802745819;0.0024434609804302454;-0.04153883829712868
01:00:0A:00:00:00:00;1723421379;12/08/24;00:09:39;1.017;0.0;0.169;-0.2028072476387024;-0.14905111491680145;0.02932153083384037
01:00:0A:00:00:00:00;1723421380;12/08/24;00:09:40;1.033;-0.072;-0.008;-0.08185594528913498;-0.06352998316287994;0.07819075137376785
01:00:0A:00:00:00:00;1723421381;12/08/24;00:09:41;1.0;-0.015;0.209;0.006108652334660292;0.2590068578720093;-0.051312677562236786
01:00:0A:00:00:00:00;1723421382;12/08/24;00:09:42;0.981;-0.088;0.072;-0.10018189996480942;-0.2528982162475586;0.08796459436416626
01:00:0A:00:00:00:00;1723421383;12/08/24;00:09:43;0.968;-0.006;0.087;-0.02687807008624077;0.16859880089759827;-0.2382374405860901
01:00:0A:00:00:00:00;1723421384;12/08/24;00:09:44;1.008;0.075;0.149;-0.2565633952617645;-0.3042108714580536;0.1258382350206375
01:00:0A:00:00:00:00;1723421385;12/08/24;00:09:45;1.052;-0.116;-0.045;-0.19303341209888458;0.3188716471195221;0.014660765416920185
01:00:0A:00:00:00:00;1723421386;12/08/24;00:09:46;1.014;-0.005;0.407;-0.29565879702568054;-0.018325956538319588;0.045204028487205505
01:00:0A:00:00:00:00;1723421387;12/08/24;00:09:47;1.031;-0.014;-0.19;-0.2785545289516449;-0.28466320037841797;-0.00855211354792118
01:00:0A:00:00:00:00;1723421388;12/08/24;00:09:48;0.976;-0.032;0.294;-0.19303341209888458;0.6621779203414917;0.12339477241039276
01:00:0A:00:00:00:00;1723421389;12/08/24;00:09:49;1.002;-0.08;0.088;-0.313984751701355;-0.38240164518356323;-0.08429940044879913
01:00:0A:00:00:00:00;1723421390;12/08/24;00:09:50;0.975;0.053;-0.084;-0.23457224667072296;0.08307767659425735;0.0073303827084600925
01:00:0A:00:00:00:00;1723421391;12/08/24;00:09:51;0.987;-0.067;0.107;-0.2223549485206604;0.0757472887635231;0.1514945775270462
01:00:0A:00:00:00:00;1723421392;12/08/24;00:09:52;1.018;-0.092;0.109;-0.13316862285137177;-0.26022857427597046;-0.3042108714580536
01:00:0A:00:00:00:00;1723421393;12/08/24;00:09:53;1.026;0.143;-0.035;-0.19547687470912933;0.040317103266716;0.12095131725072861
01:00:0A:00:00:00:00;1723421394;12/08/24;00:09:54;1.016;-0.168;0.154;-0.19303341209888458;0.09162978082895279;0.17837265133857727
01:00:0A:00:00:00:00;1723421395;12/08/24;00:09:55;1.006;0.009;0.072;-0.09773843735456467;-0.14416420459747314;-0.2895500957965851
01:00:0A:00:00:00:00;1723421396;12/08/24;00:09:56;0.995;-0.003;0.06;-0.14905111491680145;0.06841690838336945;0.21380282938480377
01:00:0A:00:00:00:00;1723421397;12/08/24;00:09:57;0.995;-0.148;0.108;-0.04764748737215996;0.06841690838336945;-0.006108652334660292
01:00:0A:00:00:00:00;1723421398;12/08/24;00:09:58;1.02;-0.016;0.093;-0.009773843921720982;-0.018325956538319588;-0.00855211354792118
01:00:0A:00:00:00:00;1723421399;12/08/24;00:09:59;1.024;0.01;0.069;-0.04153883829712868;0.04642575979232788;0.17104226350784302
01:00:0A:00:00:00:00;1723421400;12/08/24;00:10:00;1.018;-0.067;0.101;0.013439035043120384;0.0024434609804302454;-0.02076941914856434
01:00:0A:00:00:00:00;1723421401;12/08/24;00:10:01;1.03;0.026;0.058;0.03420845419168472;-0.0073303827084600925;-0.11728612333536148
01:00:0A:00:00:00:00;1723421402;12/08/24;00:10:02;1.041;0.0;0.068;-0.012217304669320583;0.04764748737215996;-0.006108652334660292
01:00:0A:00:00:00:00;1723421403;12/08/24;00:10:03;1.034;-0.073;0.121;-0.045204028487205505;0.045204028487205505;-0.018325956538319588
01:00:0A:00:00:00:00;1723421404;12/08/24;00:10:04;1.017;0.018;0.05;-0.080634206533432;-0.040317103266716;-0.07941248267889023
01:00:0A:00:00:00:00;1723421405;12/08/24;00:10:05;1.0;0.01;0.07;-0.14416420459747314;0.05009094998240471;0.09651670604944229
01:00:0A:00:00:00:00;1723421406;12/08/24;00:10:06;0.982;-0.012;0.08;-0.15271630883216858;-0.02687807008624077;0.013439035043120384
01:00:0A:00:00:00:00;1723421407;12/08/24;00:10:07;0.988;0.007;0.065;-0.14905111491680145;-0.08429940044879913;-0.04642575979232788
01:00:0A:00:00:00:00;1723421408;12/08/24;00:10:08;1.016;0.005;0.063;-0.15027284622192383;-0.00855211354792118;0.019547687843441963
01:00:0A:00:00:00:00;1723421409;12/08/24;00:10:09;1.023;-0.034;0.112;-0.14538592100143433;0.00855211354792118;0.014660765416920185
01:00:0A:00:00:00:00;1723421410;12/08/24;00:10:10;1.028;-0.006;0.116;-0.1514945775270462;-0.012217304669320583;-0.019547687843441963
01:00:0A:00:00:00:00;1723421411;12/08/24;00:10:11;1.018;0.0;0.099;-0.17104226350784302;0.021991148591041565;0.013439035043120384
01:00:0A:00:00:00:00;1723421412;12/08/24;00:10:12;1.012;-0.039;0.116;-0.17348572611808777;0.07208210229873657;0.025656338781118393
01:00:0A:00:00:00:00;1723421413;12/08/24;00:10:13;1.003;-0.013;0.084;-0.16371189057826996;0.051312677562236786;-0.040317103266716
01:00:0A:00:00:00:00;1723421414;12/08/24;00:10:14;1.002;0.003;0.056;-0.17592918872833252;0.042760565876960754;0.02932153083384037
01:00:0A:00:00:00:00;1723421415;12/08/24;00:10:15;0.998;-0.002;0.024;-0.1466076523065567;0.0036651913542300463;-0.019547687843441963
01:00:0A:00:00:00:00;1723421416;12/08/24;00:10:16;0.994;0.014;0.047;-0.1160643920302391;-0.01710422709584236;-0.09407324343919754
01:00:0A:00:00:00:00;1723421417;12/08/24;00:10:17;0.989;0.006;0.069;-0.1368338167667389;-0.08552113175392151;-0.05497787147760391
01:00:0A:00:00:00:00;1723421418;12/08/24;00:10:18;0.988;-0.009;0.064;-0.12950342893600464;-0.019547687843441963;-0.06352998316287994
01:00:0A:00:00:00:00;1723421419;12/08/24;00:10:19;1.018;-0.017;0.069;0.1576032191514969;0.009773843921720982;-0.09162978082895279
01:00:0A:00:00:00:00;1723421420;12/08/24;00:10:20;1.058;0.007;0.1;0.08796459436416626;-0.07330382615327835;0.019547687843441963
01:00:0A:00:00:00:00;1723421421;12/08/24;00:10:21;1.08;-0.064;0.052;0.08918632566928864;-0.10262535512447357;-0.04153883829712868
01:00:0A:00:00:00:00;1723421422;12/08/24;00:10:22;1.062;-0.007;0.16;0.07941248267889023;0.010995574295520782;-0.04764748737215996
01:00:0A:00:00:00:00;1723421423;12/08/24;00:10:23;1.035;-0.104;0.104;0.05009094998240471;-0.03787364438176155;0.13439035415649414
01:00:0A:00:00:00:00;1723421424;12/08/24;00:10:24;0.979;-0.013;0.125;0.10262535512447357;0.1673770695924759;-0.03298672288656235
01:00:0A:00:00:00:00;1723421425;12/08/24;00:10:25;0.984;-0.011;0.084;0.018325956538319588;0.004886921960860491;0.1820378452539444
01:00:0A:00:00:00:00;1723421426;12/08/24;00:10:26;1.006;-0.018;0.018;0.07330382615327835;0.06841690838336945;-0.0073303827084600925
01:00:0A:00:00:00:00;1723421427;12/08/24;00:10:27;1.007;0.052;0.048;0.07208210229873657;0.02076941914856434;-0.0757472887635231
01:00:0A:00:00:00:00;1723421428;12/08/24;00:10:28;0.966;0.0;0.019;0.01710422709584236;-0.14049901068210602;0.028099799528717995
01:00:0A:00:00:00:00;1723421429;12/08/24;00:10:29;0.948;-0.039;0.044;0.080634206533432;-0.0036651913542300463;-0.19914205372333527
01:00:0A:00:00:00:00;1723421430;12/08/24;00:10:30;0.971;-0.023;0.076;-0.0036651913542300463;-0.15393804013729095;0.1111774742603302
01:00:0A:00:00:00:00;1723421431;12/08/24;00:10:31;1.057;-0.117;0.062;0.1014036238193512;0.1258382350206375;-0.23579397797584534
01:00:0A:00:00:00:00;1723421432;12/08/24;00:10:32;1.053;0.163;0.194;-0.15882496535778046;-0.22113320231437683;0.4801400899887085
01:00:0A:00:00:00:00;1723421433;12/08/24;00:10:33;0.988;-0.488;-0.201;0.1270599663257599;0.0708603635430336;-0.039095375686883926
01:00:0A:00:00:00:00;1723421434;12/08/24;00:10:34;0.949;0.469;0.25;0.03787364438176155;-0.03420845419168472;0.05009094998240471
01:00:0A:00:00:00:00;1723421435;12/08/24;00:10:35;1.051;-0.263;-0.021;-0.11972958594560623;-0.18814648687839508;0.38240164518356323
01:00:0A:00:00:00:00;1723421436;12/08/24;00:10:36;1.026;-0.007;0.096;0.14782939851284027;0.15393804013729095;-0.3286454975605011
01:00:0A:00:00:00:00;1723421437;12/08/24;00:10:37;0.99;0.031;0.11;-0.0024434609804302454;0.004886921960860491;0.07696902006864548
01:00:0A:00:00:00:00;1723421438;12/08/24;00:10:38;0.981;-0.103;0.053;0.0012217304902151227;-0.07696902006864548;0.07330382615327835
01:00:0A:00:00:00:00;1723421439;12/08/24;00:10:39;0.998;-0.04;0.075;0.11484266817569733;0.06230825558304787;-0.21624629199504852
01:00:0A:00:00:00:00;1723421440;12/08/24;00:10:40;0.992;0.014;0.098;-0.004886921960860491;-0.05619959905743599;0.1466076523065567
01:00:0A:00:00:00:00;1723421441;12/08/24;00:10:41;0.982;-0.109;0.064;0.006108652334660292;-0.06841690838336945;0.1014036238193512
01:00:0A:00:00:00:00;1723421442;12/08/24;00:10:42;0.999;-0.04;0.086;0.10384709388017654;0.018325956538319588;-0.14538592100143433
01:00:0A:00:00:00:00;1723421443;12/08/24;00:10:43;1.013;0.035;0.101;-0.0073303827084600925;-0.07819075137376785;0.2480112910270691
01:00:0A:00:00:00:00;1723421444;12/08/24;00:10:44;1.056;-0.159;0.072;0.1014036238193512;0.01710422709584236;-0.1368338167667389
01:00:0A:00:00:00:00;1723421445;12/08/24;00:10:45;1.067;0.162;0.094;0.040317103266716;-0.004886921960860491;0.02932153083384037
01:00:0A:00:00:00:00;1723421446;12/08/24;00:10:46;1.05;-0.27;0.064;0.051312677562236786;0.0012217304902151227;0.23579397797584534
01:00:0A:00:00:00:00;1723421447;12/08/24;00:10:47;0.994;0.227;0.081;0.11728612333536148;-0.00855211354792118;-0.47769662737846375
01:00:0A:00:00:00:00;1723421448;12/08/24;00:10:48;0.984;-0.167;0.072;-0.08918632566928864;0.0073303827084600925;0.616973876953125
01:00:0A:00:00:00:00;1723421449;12/08/24;00:10:49;0.975;-0.048;0.081;0.17959438264369965;-0.015882495790719986;-0.4996877610683441
01:00:0A:00:00:00:00;1723421450;12/08/24;00:10:50;0.983;0.081;0.044;0.0073303827084600925;-0.024434609338641167;0.17470745742321014
01:00:0A:00:00:00:00;1723421451;12/08/24;00:10:51;0.998;-0.141;0.076;0.021991148591041565;0.012217304669320583;0.1160643920302391
01:00:0A:00:00:00:00;1723421452;12/08/24;00:10:52;1.007;-0.047;0.095;0.12217304855585098;-0.12095131725072861;-0.24923302233219147
01:00:0A:00:00:00:00;1723421453;12/08/24;00:10:53;1.008;0.07;0.063;0.019547687843441963;-0.014660765416920185;0.16249015927314758
01:00:0A:00:00:00:00;1723421454;12/08/24;00:10:54;1.009;-0.103;0.128;0.03298672288656235;0.07941248267889023;0.10873401165008545
01:00:0A:00:00:00:00;1723421455;12/08/24;00:10:55;1.014;-0.023;0.126;0.09285151958465576;-0.01710422709584236;-0.1661553531885147
01:00:0A:00:00:00:00;1723421456;12/08/24;00:10:56;1.019;0.056;0.033;0.025656338781118393;0.07696902006864548;0.05375614017248154
01:00:0A:00:00:00:00;1723421457;12/08/24;00:10:57;1.018;-0.101;0.09;0.021991148591041565;0.06230825558304787;0.051312677562236786
01:00:0A:00:00:00:00;1723421458;12/08/24;00:10:58;1.03;-0.036;0.081;0.040317103266716;-0.11239919811487198;-0.09651670604944229
01:00:0A:00:00:00:00;1723421459;12/08/24;00:10:59;1.039;0.039;0.032;-0.009773843921720982;-0.05497787147760391;0.039095375686883926
01:00:0A:00:00:00:00;1723421460;12/08/24;00:11:00;1.037;-0.105;0.128;-0.0024434609804302454;0.010995574295520782;0.08429940044879913
01:00:0A:00:00:00:00;1723421461;12/08/24;00:11:01;1.039;-0.004;0.095;0.025656338781118393;-0.05864306166768074;-0.09896016865968704
01:00:0A:00:00:00:00;1723421462;12/08/24;00:11:02;0.995;-0.025;0.075;-0.012217304669320583;0.015882495790719986;0.11362093687057495
01:00:0A:00:00:00:00;1723421463;12/08/24;00:11:03;0.956;-0.046;0.093;0.010995574295520782;0.019547687843441963;0.02932153083384037
01:00:0A:00:00:00:00;1723421464;12/08/24;00:11:04;0.97;-0.019;0.078;0.009773843921720982;-0.09896016865968704;-0.00855211354792118
01:00:0A:00:00:00:00;1723421465;12/08/24;00:11:05;1.016;-0.009;0.067;0.00855211354792118;0.036651913076639175;0.09162978082895279
01:00:0A:00:00:00:00;1723421466;12/08/24;00:11:06;1.029;-0.059;0.125;0.03298672288656235;-0.04153883829712868;-0.03787364438176155
01:00:0A:00:00:00:00;1723421467;12/08/24;00:11:07;1.035;0.021;0.06;0.024434609338641167;-0.04886921867728233;-0.018325956538319588
01:00:0A:00:00:00:00;1723421468;12/08/24;00:11:08;1.027;-0.04;0.089;0.015882495790719986;0.024434609338641167;0.07696902006864548
01:00:0A:00:00:00:00;1723421469;12/08/24;00:11:09;1.017;-0.037;0.119;0.0354301817715168;-0.012217304669320583;-0.03420845419168472
01:00:0A:00:00:00:00;1723421470;12/08/24;00:11:10;1.017;0.001;0.065;0.0354301817715168;-0.02321287989616394;-0.059864792972803116
01:00:0A:00:00:00:00;1723421471;12/08/24;00:11:11;1.013;-0.051;0.076;0.03787364438176155;0.06963863223791122;0.02076941914856434
01:00:0A:00:00:00:00;1723421472;12/08/24;00:11:12;1.004;-0.063;0.082;0.04398229718208313;-0.028099799528717995;-0.03176499158143997
01:00:0A:00:00:00:00;1723421473;12/08/24;00:11:13;1.005;-0.038;0.04;0.030543262138962746;-0.05497787147760391;0.02687807008624077
01:00:0A:00:00:00:00;1723421474;12/08/24;00:11:14;1.021;-0.044;0.075;0.03176499158143997;-0.018325956538319588;0.10262535512447357
01:00:0A:00:00:00:00;1723421475;12/08/24;00:11:15;1.035;-0.033;0.119;0.03298672288656235;-0.0708603635430336;0.05619959905743599
01:00:0A:00:00:00:00;1723421476;12/08/24;00:11:16;1.029;0.016;0.075;0.03787364438176155;-0.03298672288656235;0.015882495790719986
01:00:0A:00:00:00:00;1723421477;12/08/24;00:11:17;1.003;-0.006;0.102;0.04153883829712868;0.09040805697441101;0.0354301817715168
01:00:0A:00:00:00:00;1723421478;12/08/24;00:11:18;0.966;-0.002;0.071;0.0354301817715168;-0.039095375686883926;-0.06475171446800232
01:00:0A:00:00:00:00;1723421479;12/08/24;00:11:19;0.97;-0.005;0.056;0.028099799528717995;0.025656338781118393;0.0
01:00:0A:00:00:00:00;1723421480;12/08/24;00:11:20;1.015;-0.036;0.092;0.018325956538319588;-0.0659734457731247;-0.0036651913542300463
01:00:0A:00:00:00:00;1723421481;12/08/24;00:11:21;1.055;-0.019;0.069;0.021991148591041565;-0.05253440886735916;-0.01710422709584236
01:00:0A:00:00:00:00;1723421482;12/08/24;00:11:22;1.057;-0.017;0.099;0.018325956538319588;-0.0012217304902151227;0.014660765416920185
01:00:0A:00:00:00:00;1723421483;12/08/24;00:11:23;1.02;-0.037;0.099;0.015882495790719986;0.006108652334660292;0.02687807008624077
01:00:0A:00:00:00:00;1723421484;12/08/24;00:11:24;0.988;-0.013;0.075;0.024434609338641167;-0.010995574295520782;-0.015882495790719986
01:00:0A:00:00:00:00;1723421485;12/08/24;00:11:25;0.983;-0.025;0.092;0.012217304669320583;0.004886921960860491;0.030543262138962746
01:00:0A:00:00:00:00;1723421486;12/08/24;00:11:26;1.006;-0.04;0.096;0.01710422709584236;-0.04642575979232788;-0.02321287989616394
01:00:0A:00:00:00:00;1723421487;12/08/24;00:11:27;1.035;-0.017;0.079;0.018325956538319588;0.006108652334660292;0.009773843921720982
01:00:0A:00:00:00:00;1723421488;12/08/24;00:11:28;1.027;-0.026;0.088;0.013439035043120384;0.02321287989616394;0.030543262138962746
01:00:0A:00:00:00:00;1723421489;12/08/24;00:11:29;1.008;-0.02;0.068;0.014660765416920185;-0.03176499158143997;0.0
01:00:0A:00:00:00:00;1723421490;12/08/24;00:11:30;0.992;-0.007;0.056;0.02076941914856434;-0.03298672288656235;-0.021991148591041565
01:00:0A:00:00:00:00;1723421491;12/08/24;00:11:31;0.994;-0.013;0.065;0.015882495790719986;-0.036651913076639175;-0.014660765416920185
01:00:0A:00:00:00:00;1723421492;12/08/24;00:11:32;1.021;-0.032;0.081;0.018325956538319588;-0.0708603635430336;-0.03787364438176155
01:00:0A:00:00:00:00;1723421493;12/08/24;00:11:33;1.032;-0.018;0.076;0.01710422709584236;-0.03420845419168472;-0.012217304669320583
01:00:0A:00:00:00:00;1723421494;12/08/24;00:11:34;1.033;-0.034;0.096;0.012217304669320583;0.0;0.019547687843441963
01:00:0A:00:00:00:00;1723421495;12/08/24;00:11:35;1.021;-0.033;0.094;0.010995574295520782;-0.02687807008624077;0.0
01:00:0A:00:00:00:00;1723421496;12/08/24;00:11:36;1.009;-0.023;0.081;0.009773843921720982;-0.0012217304902151227;0.0036651913542300463
01:00:0A:00:00:00:00;1723421497;12/08/24;00:11:37;1.015;-0.027;0.09;0.0036651913542300463;0.014660765416920185;0.02932153083384037
01:00:0A:00:00:00:00;1723421498;12/08/24;00:11:38;1.026;-0.026;0.087;0.0012217304902151227;-0.012217304669320583;0.0
01:00:0A:00:00:00:00;1723421499;12/08/24;00:11:39;1.021;-0.013;0.079;0.0012217304902151227;0.00855211354792118;0.014660765416920185
01:00:0A:00:00:00:00;1723421500;12/08/24;00:11:40;1.008;-0.019;0.086;-0.0024434609804302454;0.018325956538319588;0.025656338781118393
01:00:0A:00:00:00:00;1723421501;12/08/24;00:11:41;0.976;-0.013;0.076;0.0012217304902151227;-0.04764748737215996;-0.04642575979232788
01:00:0A:00:00:00:00;1723421502;12/08/24;00:11:42;0.97;-0.018;0.069;0.0012217304902151227;-0.0354301817715168;-0.03176499158143997
01:00:0A:00:00:00:00;1723421503;12/08/24;00:11:43;1.005;-0.036;0.083;-0.0012217304902151227;-0.04886921867728233;-0.028099799528717995
01:00:0A:00:00:00:00;1723421504;12/08/24;00:11:44;1.036;-0.034;0.084;-0.004886921960860491;-0.05009094998240471;0.0036651913542300463
01:00:0A:00:00:00:00;1723421505;12/08/24;00:11:45;1.064;-0.033;0.085;-0.0024434609804302454;-0.02687807008624077;0.039095375686883926
01:00:0A:00:00:00:00;1723421506;12/08/24;00:11:46;1.044;-0.017;0.104;-0.004886921960860491;0.0024434609804302454;0.04764748737215996
01:00:0A:00:00:00:00;1723421507;12/08/24;00:11:47;1.016;-0.016;0.089;-0.012217304669320583;-0.012217304669320583;0.04153883829712868
01:00:0A:00:00:00:00;1723421508;12/08/24;00:11:48;0.99;-0.016;0.087;-0.006108652334660292;0.015882495790719986;0.02932153083384037
01:00:0A:00:00:00:00;1723421509;12/08/24;00:11:49;0.993;-0.017;0.097;-0.009773843921720982;-0.0073303827084600925;0.018325956538319588
01:00:0A:00:00:00:00;1723421510;12/08/24;00:11:50;1.009;-0.016;0.088;-0.006108652334660292;-0.02687807008624077;-0.013439035043120384
01:00:0A:00:00:00:00;1723421511;12/08/24;00:11:51;1.019;-0.011;0.084;0.0012217304902151227;0.0073303827084600925;-0.013439035043120384
01:00:0A:00:00:00:00;1723421512;12/08/24;00:11:52;1.022;-0.026;0.089;0.004886921960860491;0.02687807008624077;-0.013439035043120384
01:00:0A:00:00:00:00;1723421513;12/08/24;00:11:53;1.023;-0.036;0.073;0.010995574295520782;0.0073303827084600925;-0.024434609338641167
01:00:0A:00:00:00:00;1723421514;12/08/24;00:11:54;1.015;-0.039;0.068;0.015882495790719986;0.0073303827084600925;0.013439035043120384
01:00:0A:00:00:00:00;1723421515;12/08/24;00:11:55;1.0;-0.036;0.08;0.009773843921720982;-0.024434609338641167;0.040317103266716
01:00:0A:00:00:00:00;1723421516;12/08/24;00:11:56;0.988;-0.03;0.08;0.009773843921720982;-0.05375614017248154;0.030543262138962746
01:00:0A:00:00:00:00;1723421517;12/08/24;00:11:57;0.99;-0.021;0.081;0.01710422709584236;-0.03787364438176155;0.012217304669320583
01:00:0A:00:00:00:00;1723421518;12/08/24;00:11:58;1.007;-0.028;0.091;0.02076941914856434;-0.04764748737215996;0.0036651913542300463
01:00:0A:00:00:00:00;1723421519;12/08/24;00:11:59;1.047;-0.031;0.087;0.021991148591041565;-0.015882495790719986;0.0073303827084600925
01:00:0A:00:00:00:00;1723421520;12/08/24;00:12:00;1.067;-0.028;0.095;0.010995574295520782;-0.019547687843441963;0.045204028487205505
01:00:0A:00:00:00:00;1723421521;12/08/24;00:12:01;1.067;-0.017;0.088;0.0073303827084600925;0.009773843921720982;0.06841690838336945
01:00:0A:00:00:00:00;1723421522;12/08/24;00:12:02;1.016;0.014;0.103;0.014660765416920185;0.05742133408784866;0.0
01:00:0A:00:00:00:00;1723421523;12/08/24;00:12:03;0.981;-0.004;0.074;0.006108652334660292;0.012217304669320583;0.018325956538319588
01:00:0A:00:00:00:00;1723421524;12/08/24;00:12:04;0.954;-0.005;0.059;0.021991148591041565;0.015882495790719986;-0.07330382615327835
01:00:0A:00:00:00:00;1723421525;12/08/24;00:12:05;0.979;-0.01;0.061;-0.0012217304902151227;-0.025656338781118393;0.006108652334660292
01:00:0A:00:00:00:00;1723421526;12/08/24;00:12:06;1.025;-0.043;0.072;0.012217304669320583;-0.05009094998240471;-0.05253440886735916
01:00:0A:00:00:00:00;1723421527;12/08/24;00:12:07;1.038;-0.01;0.081;0.0036651913542300463;-0.039095375686883926;-0.0036651913542300463
01:00:0A:00:00:00:00;1723421528;12/08/24;00:12:08;1.036;-0.039;0.095;0.0;-0.00855211354792118;0.02932153083384037
01:00:0A:00:00:00:00;1723421529;12/08/24;00:12:09;1.024;-0.033;0.088;0.01710422709584236;0.009773843921720982;-0.006108652334660292
01:00:0A:00:00:00:00;1723421530;12/08/24;00:12:10;1.005;-0.024;0.078;0.013439035043120384;0.0036651913542300463;0.0073303827084600925
01:00:0A:00:00:00:00;1723421531;12/08/24;00:12:11;0.993;-0.04;0.08;0.006108652334660292;-0.028099799528717995;0.039095375686883926
01:00:0A:00:00:00:00;1723421532;12/08/24;00:12:12;0.993;-0.035;0.082;0.02076941914856434;-0.024434609338641167;0.0036651913542300463
01:00:0A:00:00:00:00;1723421533;12/08/24;00:12:13;1.005;-0.018;0.092;0.014660765416920185;-0.02321287989616394;0.03420845419168472
01:00:0A:00:00:00:00;1723421534;12/08/24;00:12:14;1.015;-0.028;0.096;0.019547687843441963;-0.03176499158143997;0.018325956538319588
01:00:0A:00:00:00:00;1723421535;12/08/24;00:12:15;1.03;-0.024;0.093;0.039095375686883926;0.0036651913542300463;-0.024434609338641167
01:00:0A:00:00:00:00;1723421536;12/08/24;00:12:16;1.034;-0.018;0.095;0.039095375686883926;0.014660765416920185;0.0012217304902151227
01:00:0A:00:00:00:00;1723421536;12/08/24;00:12:16;1.032;-0.034;0.083;0.03787364438176155;0.012217304669320583;0.010995574295520782
01:00:0A:00:00:00:00;1723421537;12/08/24;00:12:17;1.022;-0.025;0.079;0.04153883829712868;0.0;0.0036651913542300463
01:00:0A:00:00:00:00;1723421538;12/08/24;00:12:18;1.004;-0.011;0.079;0.036651913076639175;-0.010995574295520782;0.010995574295520782
01:00:0A:00:00:00:00;1723421539;12/08/24;00:12:19;0.994;-0.015;0.079;0.036651913076639175;-0.010995574295520782;-0.0073303827084600925
01:00:0A:00:00:00:00;1723421540;12/08/24;00:12:20;0.997;-0.017;0.078;0.040317103266716;-0.028099799528717995;-0.042760565876960754
01:00:0A:00:00:00:00;1723421541;12/08/24;00:12:21;1.015;-0.029;0.081;0.03298672288656235;-0.02687807008624077;-0.02321287989616394
01:00:0A:00:00:00:00;1723421542;12/08/24;00:12:22;1.026;-0.042;0.081;0.02687807008624077;-0.018325956538319588;0.0012217304902151227
01:00:0A:00:00:00:00;1723421543;12/08/24;00:12:23;1.036;-0.033;0.09;0.01710422709584236;-0.02076941914856434;0.03420845419168472
01:00:0A:00:00:00:00;1723421544;12/08/24;00:12:24;1.032;-0.018;0.087;0.0024434609804302454;-0.025656338781118393;0.04153883829712868
01:00:0A:00:00:00:00;1723421545;12/08/24;00:12:25;1.009;-0.009;0.093;-0.0024434609804302454;0.0;0.02687807008624077
01:00:0A:00:00:00:00;1723421546;12/08/24;00:12:26;0.997;0.0;0.094;-0.0012217304902151227;0.00855211354792118;-0.03176499158143997
01:00:0A:00:00:00:00;1723421547;12/08/24;00:12:27;0.988;-0.007;0.078;-0.013439035043120384;-0.010995574295520782;-0.02932153083384037
01:00:0A:00:00:00:00;1723421548;12/08/24;00:12:28;1.004;-0.024;0.073;-0.018325956538319588;-0.006108652334660292;-0.018325956538319588
01:00:0A:00:00:00:00;1723421549;12/08/24;00:12:29;1.018;-0.03;0.089;-0.021991148591041565;-0.02687807008624077;-0.018325956538319588
01:00:0A:00:00:00:00;1723421550;12/08/24;00:12:30;1.037;-0.022;0.085;-0.028099799528717995;-0.00855211354792118;0.0012217304902151227
01:00:0A:00:00:00:00;1723421551;12/08/24;00:12:31;1.039;-0.028;0.082;-0.025656338781118393;0.009773843921720982;0.013439035043120384
01:00:0A:00:00:00:00;1723421552;12/08/24;00:12:32;1.024;-0.024;0.092;-0.02321287989616394;-0.0024434609804302454;-0.0012217304902151227
01:00:0A:00:00:00:00;1723421553;12/08/24;00:12:33;1.012;-0.023;0.082;-0.024434609338641167;-0.00855211354792118;0.004886921960860491
01:00:0A:00:00:00:00;1723421554;12/08/24;00:12:34;1.006;-0.028;0.082;-0.019547687843441963;0.0024434609804302454;0.0012217304902151227
01:00:0A:00:00:00:00;1723421555;12/08/24;00:12:35;1.015;-0.028;0.086;-0.018325956538319588;-0.013439035043120384;-0.006108652334660292
01:00:0A:00:00:00:00;1723421556;12/08/24;00:12:36;1.023;-0.03;0.079;-0.02076941914856434;-0.015882495790719986;0.006108652334660292
01:00:0A:00:00:00:00;1723421557;12/08/24;00:12:37;1.013;-0.036;0.087;-0.02076941914856434;0.0024434609804302454;0.03176499158143997
01:00:0A:00:00:00:00;1723421558;12/08/24;00:12:38;1.002;-0.032;0.087;-0.021991148591041565;-0.014660765416920185;0.02687807008624077
01:00:0A:00:00:00:00;1723421559;12/08/24;00:12:39;0.993;-0.018;0.085;-0.02321287989616394;-0.02932153083384037;0.025656338781118393
01:00:0A:00:00:00:00;1723421560;12/08/24;00:12:40;0.999;-0.013;0.089;-0.019547687843441963;-0.006108652334660292;0.015882495790719986
01:00:0A:00:00:00:00;1723421561;12/08/24;00:12:41;1.018;-0.015;0.1;-0.015882495790719986;-0.004886921960860491;-0.02932153083384037
01:00:0A:00:00:00:00;1723421562;12/08/24;00:12:42;1.029;-0.018;0.091;-0.015882495790719986;0.013439035043120384;-0.025656338781118393
01:00:0A:00:00:00:00;1723421563;12/08/24;00:12:43;1.033;-0.034;0.08;-0.015882495790719986;0.019547687843441963;-0.00855211354792118
01:00:0A:00:00:00:00;1723421564;12/08/24;00:12:44;1.016;-0.036;0.078;-0.02076941914856434;-0.012217304669320583;0.009773843921720982
01:00:0A:00:00:00:00;1723421565;12/08/24;00:12:45;1.007;-0.026;0.067;-0.024434609338641167;-0.04886921867728233;0.014660765416920185
01:00:0A:00:00:00:00;1723421566;12/08/24;00:12:46;1.006;-0.023;0.082;-0.025656338781118393;-0.042760565876960754;0.01710422709584236
01:00:0A:00:00:00:00;1723421567;12/08/24;00:12:47;1.013;-0.024;0.09;-0.02321287989616394;-0.03298672288656235;0.0036651913542300463
01:00:0A:00:00:00:00;1723421568;12/08/24;00:12:48;1.015;-0.022;0.084;-0.02076941914856434;-0.021991148591041565;-0.0036651913542300463
01:00:0A:00:00:00:00;1723421569;12/08/24;00:12:49;1.012;-0.033;0.082;-0.02076941914856434;-0.013439035043120384;0.009773843921720982
01:00:0A:00:00:00:00;1723421570;12/08/24;00:12:50;1.014;-0.031;0.084;-0.02076941914856434;-0.02076941914856434;0.015882495790719986
01:00:0A:00:00:00:00;1723421571;12/08/24;00:12:51;1.021;-0.024;0.081;-0.019547687843441963;-0.02687807008624077;0.02076941914856434
01:00:0A:00:00:00:00;1723421572;12/08/24;00:12:52;1.027;-0.022;0.093;-0.018325956538319588;-0.004886921960860491;0.025656338781118393
01:00:0A:00:00:00:00;1723421573;12/08/24;00:12:53;1.012;-0.018;0.091;-0.014660765416920185;0.009773843921720982;0.006108652334660292
01:00:0A:00:00:00:00;1723421574;12/08/24;00:12:54;1.0;-0.018;0.081;-0.010995574295520782;0.014660765416920185;-0.0024434609804302454
01:00:0A:00:00:00:00;1723421575;12/08/24;00:12:55;0.989;-0.019;0.072;-0.009773843921720982;-0.009773843921720982;-0.014660765416920185
01:00:0A:00:00:00:00;1723421576;12/08/24;00:12:56;1.0;-0.025;0.073;-0.010995574295520782;-0.03420845419168472;-0.013439035043120384
01:00:0A:00:00:00:00;1723421577;12/08/24;00:12:57;1.029;-0.03;0.083;-0.012217304669320583;-0.039095375686883926;0.0
01:00:0A:00:00:00:00;1723421578;12/08/24;00:12:58;1.039;-0.029;0.094;-0.010995574295520782;-0.024434609338641167;0.0012217304902151227
01:00:0A:00:00:00:00;1723421579;12/08/24;00:12:59;1.033;-0.029;0.093;-0.010995574295520782;0.0;0.00855211354792118
01:00:0A:00:00:00:00;1723421580;12/08/24;00:13:00;1.015;-0.034;0.091;-0.009773843921720982;0.021991148591041565;0.02076941914856434
01:00:0A:00:00:00:00;1723421581;12/08/24;00:13:01;0.993;-0.031;0.082;-0.006108652334660292;0.013439035043120384;0.013439035043120384
01:00:0A:00:00:00:00;1723421582;12/08/24;00:13:02;0.996;-0.021;0.077;-0.004886921960860491;-0.028099799528717995;-0.0024434609804302454
01:00:0A:00:00:00:00;1723421583;12/08/24;00:13:03;1.009;-0.024;0.081;-0.006108652334660292;-0.028099799528717995;0.013439035043120384
01:00:0A:00:00:00:00;1723421584;12/08/24;00:13:04;1.026;-0.03;0.095;-0.0024434609804302454;-0.013439035043120384;0.013439035043120384
01:00:0A:00:00:00:00;1723421585;12/08/24;00:13:05;1.027;-0.012;0.094;0.0;-0.0012217304902151227;0.014660765416920185
01:00:0A:00:00:00:00;1723421586;12/08/24;00:13:06;1.015;-0.008;0.081;0.004886921960860491;0.018325956538319588;0.0012217304902151227
01:00:0A:00:00:00:00;1723421587;12/08/24;00:13:07;1.004;-0.012;0.076;0.00855211354792118;0.013439035043120384;-0.015882495790719986
01:00:0A:00:00:00:00;1723421588;12/08/24;00:13:08;0.999;-0.018;0.068;0.006108652334660292;-0.02321287989616394;-0.02321287989616394
01:00:0A:00:00:00:00;1723421589;12/08/24;00:13:09;1.014;-0.027;0.073;0.0024434609804302454;-0.03787364438176155;-0.004886921960860491
01:00:0A:00:00:00:00;1723421590;12/08/24;00:13:10;1.025;-0.034;0.089;0.0012217304902151227;-0.04398229718208313;0.0
01:00:0A:00:00:00:00;1723421591;12/08/24;00:13:11;1.033;-0.027;0.091;0.0;-0.021991148591041565;0.01710422709584236
01:00:0A:00:00:00:00;1723421592;12/08/24;00:13:12;1.031;-0.025;0.093;-0.0012217304902151227;-0.0036651913542300463;0.02932153083384037
01:00:0A:00:00:00:00;1723421593;12/08/24;00:13:13;1.012;-0.023;0.093;0.0;0.01710422709584236;0.02321287989616394
01:00:0A:00:00:00:00;1723421594;12/08/24;00:13:14;1.003;-0.02;0.084;0.0;0.0036651913542300463;0.009773843921720982
01:00:0A:00:00:00:00;1723421595;12/08/24;00:13:15;0.999;-0.017;0.082;-0.0024434609804302454;-0.0036651913542300463;0.0073303827084600925
01:00:0A:00:00:00:00;1723421596;12/08/24;00:13:16;1.002;-0.021;0.087;-0.0024434609804302454;-0.0036651913542300463;-0.0012217304902151227
01:00:0A:00:00:00:00;1723421597;12/08/24;00:13:17;1.013;-0.022;0.084;-0.0024434609804302454;-0.0024434609804302454;-0.010995574295520782
01:00:0A:00:00:00:00;1723421598;12/08/24;00:13:18;1.021;-0.023;0.075;-0.004886921960860491;0.0;-0.006108652334660292
01:00:0A:00:00:00:00;1723421599;12/08/24;00:13:19;1.021;-0.028;0.073;-0.0073303827084600925;-0.012217304669320583;-0.0073303827084600925
01:00:0A:00:00:00:00;1723421600;12/08/24;00:13:20;1.015;-0.028;0.071;-0.009773843921720982;-0.040317103266716;0.0024434609804302454
01:00:0A:00:00:00:00;1723421601;12/08/24;00:13:21;1.011;-0.03;0.071;-0.013439035043120384;-0.05253440886735916;0.019547687843441963
01:00:0A:00:00:00:00;1723421602;12/08/24;00:13:22;1.012;-0.023;0.087;-0.010995574295520782;-0.04642575979232788;0.010995574295520782
01:00:0A:00:00:00:00;1723421603;12/08/24;00:13:23;1.014;-0.018;0.094;-0.0073303827084600925;-0.02932153083384037;0.0024434609804302454
01:00:0A:00:00:00:00;1723421604;12/08/24;00:13:24;1.019;-0.022;0.091;-0.006108652334660292;0.0;0.004886921960860491
01:00:0A:00:00:00:00;1723421605;12/08/24;00:13:25;1.023;-0.022;0.09;-0.004886921960860491;0.009773843921720982;-0.0036651913542300463
01:00:0A:00:00:00:00;1723421606;12/08/24;00:13:26;1.028;-0.023;0.083;-0.006108652334660292;0.013439035043120384;0.0036651913542300463
01:00:0A:00:00:00:00;1723421607;12/08/24;00:13:27;1.014;-0.025;0.077;-0.00855211354792118;0.004886921960860491;0.015882495790719986
01:00:0A:00:00:00:00;1723421608;12/08/24;00:13:28;1.003;-0.025;0.081;-0.0073303827084600925;-0.004886921960860491;0.006108652334660292
01:00:0A:00:00:00:00;1723421609;12/08/24;00:13:29;0.995;-0.021;0.081;-0.00855211354792118;-0.019547687843441963;0.0
01:00:0A:00:00:00:00;1723421610;12/08/24;00:13:30;0.999;-0.023;0.081;-0.00855211354792118;-0.01710422709584236;0.0
01:00:0A:00:00:00:00;1723421611;12/08/24;00:13:31;1.012;-0.027;0.081;-0.00855211354792118;-0.02321287989616394;-0.013439035043120384
01:00:0A:00:00:00:00;1723421612;12/08/24;00:13:32;1.014;-0.024;0.08;-0.010995574295520782;-0.02687807008624077;-0.009773843921720982
01:00:0A:00:00:00:00;1723421613;12/08/24;00:13:33;1.016;-0.025;0.081;-0.012217304669320583;-0.02076941914856434;0.0012217304902151227
01:00:0A:00:00:00:00;1723421614;12/08/24;00:13:34;1.016;-0.028;0.083;-0.010995574295520782;-0.01710422709584236;0.0012217304902151227
01:00:0A:00:00:00:00;1723421615;12/08/24;00:13:35;1.024;-0.027;0.088;-0.013439035043120384;-0.02687807008624077;0.004886921960860491
01:00:0A:00:00:00:00;1723421616;12/08/24;00:13:36;1.033;-0.029;0.089;-0.015882495790719986;-0.021991148591041565;0.014660765416920185
01:00:0A:00:00:00:00;1723421617;12/08/24;00:13:37;1.033;-0.029;0.093;-0.01710422709584236;-0.019547687843441963;0.014660765416920185
01:00:0A:00:00:00:00;1723421618;12/08/24;00:13:38;1.018;-0.022;0.097;-0.019547687843441963;-0.0012217304902151227;0.015882495790719986
01:00:0A:00:00:00:00;1723421619;12/08/24;00:13:39;1.005;-0.024;0.095;-0.021991148591041565;0.010995574295520782;0.019547687843441963
01:00:0A:00:00:00:00;1723421620;12/08/24;00:13:40;0.992;-0.022;0.087;-0.018325956538319588;0.018325956538319588;0.0036651913542300463
01:00:0A:00:00:00:00;1723421621;12/08/24;00:13:41;0.995;-0.02;0.08;-0.02076941914856434;0.0036651913542300463;0.0
01:00:0A:00:00:00:00;1723421622;12/08/24;00:13:42;1.012;-0.017;0.073;-0.021991148591041565;-0.018325956538319588;-0.010995574295520782
01:00:0A:00:00:00:00;1723421623;12/08/24;00:13:43;1.024;-0.021;0.081;-0.02076941914856434;-0.02932153083384037;-0.01710422709584236
01:00:0A:00:00:00:00;1723421624;12/08/24;00:13:44;1.025;-0.021;0.082;-0.019547687843441963;-0.028099799528717995;-0.019547687843441963
01:00:0A:00:00:00:00;1723421625;12/08/24;00:13:45;1.017;-0.028;0.088;-0.019547687843441963;-0.012217304669320583;-0.004886921960860491
01:00:0A:00:00:00:00;1723421626;12/08/24;00:13:46;1.011;-0.029;0.09;-0.018325956538319588;-0.010995574295520782;-0.0024434609804302454
01:00:0A:00:00:00:00;1723421627;12/08/24;00:13:47;1.013;-0.028;0.087;-0.02076941914856434;-0.015882495790719986;0.00855211354792118
01:00:0A:00:00:00:00;1723421628;12/08/24;00:13:48;1.015;-0.026;0.084;-0.019547687843441963;-0.01710422709584236;0.00855211354792118
01:00:0A:00:00:00:00;1723421629;12/08/24;00:13:49;1.014;-0.025;0.088;-0.01710422709584236;-0.01710422709584236;0.0012217304902151227
01:00:0A:00:00:00:00;1723421630;12/08/24;00:13:50;1.014;-0.026;0.088;-0.019547687843441963;-0.02076941914856434;0.004886921960860491
01:00:0A:00:00:00:00;1723421631;12/08/24;00:13:51;1.018;-0.025;0.089;-0.018325956538319588;-0.0024434609804302454;0.013439035043120384
01:00:0A:00:00:00:00;1723421632;12/08/24;00:13:52;1.022;-0.023;0.087;-0.015882495790719986;-0.0024434609804302454;0.0073303827084600925
01:00:0A:00:00:00:00;1723421633;12/08/24;00:13:53;1.022;-0.021;0.081;-0.01710422709584236;-0.006108652334660292;0.006108652334660292
01:00:0A:00:00:00:00;1723421634;12/08/24;00:13:54;1.016;-0.019;0.077;-0.01710422709584236;-0.00855211354792118;0.006108652334660292
01:00:0A:00:00:00:00;1723421635;12/08/24;00:13:55;1.007;-0.019;0.081;-0.01710422709584236;-0.012217304669320583;-0.0012217304902151227
01:00:0A:00:00:00:00;1723421636;12/08/24;00:13:56;0.997;-0.023;0.081;-0.01710422709584236;-0.02321287989616394;-0.009773843921720982
01:00:0A:00:00:00:00;1723421637;12/08/24;00:13:57;0.999;-0.033;0.081;-0.014660765416920185;-0.02076941914856434;-0.009773843921720982
01:00:0A:00:00:00:00;1723421638;12/08/24;00:13:58;1.012;-0.031;0.084;-0.014660765416920185;-0.024434609338641167;-0.0012217304902151227
01:00:0A:00:00:00:00;1723421639;12/08/24;00:13:59;1.021;-0.027;0.087;-0.015882495790719986;-0.021991148591041565;0.00855211354792118
01:00:0A:00:00:00:00;1723421640;12/08/24;00:14:00;1.029;-0.03;0.086;-0.014660765416920185;-0.010995574295520782;0.014660765416920185
01:00:0A:00:00:00:00;1723421641;12/08/24;00:14:01;1.027;-0.024;0.09;-0.013439035043120384;-0.0073303827084600925;0.00855211354792118
01:00:0A:00:00:00:00;1723421642;12/08/24;00:14:02;1.02;-0.025;0.087;-0.018325956538319588;-0.012217304669320583;0.01710422709584236
01:00:0A:00:00:00:00;1723421643;12/08/24;00:14:03;1.009;-0.026;0.087;-0.015882495790719986;0.0024434609804302454;0.01710422709584236
01:00:0A:00:00:00:00;1723421644;12/08/24;00:14:04;1.008;-0.019;0.086;-0.015882495790719986;0.0036651913542300463;0.0073303827084600925
01:00:0A:00:00:00:00;1723421645;12/08/24;00:14:05;1.009;-0.017;0.08;-0.018325956538319588;0.004886921960860491;0.010995574295520782
01:00:0A:00:00:00:00;1723421646;12/08/24;00:14:06;1.012;-0.02;0.081;-0.014660765416920185;0.012217304669320583;0.0036651913542300463
01:00:0A:00:00:00:00;1723421647;12/08/24;00:14:07;1.014;-0.019;0.078;-0.014660765416920185;-0.006108652334660292;-0.004886921960860491
01:00:0A:00:00:00:00;1723421648;12/08/24;00:14:08;1.009;-0.024;0.077;-0.015882495790719986;-0.010995574295520782;0.0
01:00:0A:00:00:00:00;1723421649;12/08/24;00:14:09;1.006;-0.029;0.081;-0.013439035043120384;-0.00855211354792118;-0.0024434609804302454
01:00:0A:00:00:00:00;1723421650;12/08/24;00:14:10;1.009;-0.028;0.082;-0.014660765416920185;-0.02076941914856434;0.0012217304902151227
01:00:0A:00:00:00:00;1723421651;12/08/24;00:14:11;1.01;-0.024;0.077;-0.014660765416920185;-0.021991148591041565;0.004886921960860491
01:00:0A:00:00:00:00;1723421652;12/08/24;00:14:12;1.016;-0.026;0.083;-0.010995574295520782;-0.021991148591041565;0.0024434609804302454
01:00:0A:00:00:00:00;1723421653;12/08/24;00:14:13;1.022;-0.023;0.086;-0.012217304669320583;-0.02687807008624077;0.0
01:00:0A:00:00:00:00;1723421654;12/08/24;00:14:14;1.022;-0.026;0.087;-0.009773843921720982;-0.010995574295520782;0.0073303827084600925
01:00:0A:00:00:00:00;1723421655;12/08/24;00:14:15;1.018;-0.028;0.091;-0.006108652334660292;0.009773843921720982;0.009773843921720982
01:00:0A:00:00:00:00;1723421656;12/08/24;00:14:16;1.013;-0.023;0.081;-0.0073303827084600925;0.004886921960860491;0.01710422709584236
01:00:0A:00:00:00:00;1723421657;12/08/24;00:14:17;1.015;-0.021;0.074;-0.006108652334660292;0.0024434609804302454;0.02076941914856434
01:00:0A:00:00:00:00;1723421658;12/08/24;00:14:18;1.013;-0.014;0.076;-0.0012217304902151227;-0.009773843921720982;-0.0036651913542300463
01:00:0A:00:00:00:00;1723421659;12/08/24;00:14:19;1.007;-0.017;0.081;-0.0012217304902151227;-0.03176499158143997;-0.019547687843441963
01:00:0A:00:00:00:00;1723421660;12/08/24;00:14:20;1.005;-0.026;0.08;0.0024434609804302454;-0.024434609338641167;-0.02321287989616394
01:00:0A:00:00:00:00;1723421661;12/08/24;00:14:21;1.007;-0.034;0.091;0.004886921960860491;-0.014660765416920185;-0.014660765416920185
01:00:0A:00:00:00:00;1723421662;12/08/24;00:14:22;1.009;-0.035;0.091;0.0;-0.02076941914856434;0.006108652334660292
01:00:0A:00:00:00:00;1723421663;12/08/24;00:14:23;1.016;-0.033;0.084;0.0012217304902151227;0.0024434609804302454;0.018325956538319588
01:00:0A:00:00:00:00;1723421664;12/08/24;00:14:24;1.019;-0.024;0.085;0.0036651913542300463;-0.0012217304902151227;0.014660765416920185
01:00:0A:00:00:00:00;1723421665;12/08/24;00:14:25;1.021;-0.022;0.083;0.0024434609804302454;-0.018325956538319588;0.009773843921720982
01:00:0A:00:00:00:00;1723421666;12/08/24;00:14:26;1.02;-0.023;0.082;0.00855211354792118;-0.004886921960860491;0.0024434609804302454
01:00:0A:00:00:00:00;1723421667;12/08/24;00:14:27;1.016;-0.021;0.086;0.009773843921720982;0.004886921960860491;0.0
01:00:0A:00:00:00:00;1723421668;12/08/24;00:14:28;1.011;-0.024;0.081;0.0073303827084600925;-0.012217304669320583;0.006108652334660292
01:00:0A:00:00:00:00;1723421669;12/08/24;00:14:29;1.009;-0.021;0.078;0.012217304669320583;-0.006108652334660292;0.0012217304902151227
01:00:0A:00:00:00:00;1723421670;12/08/24;00:14:30;1.01;-0.018;0.083;0.013439035043120384;-0.014660765416920185;-0.009773843921720982
01:00:0A:00:00:00:00;1723421671;12/08/24;00:14:31;1.016;-0.02;0.081;0.012217304669320583;-0.028099799528717995;-0.014660765416920185
01:00:0A:00:00:00:00;1723421672;12/08/24;00:14:32;1.021;-0.031;0.082;0.01710422709584236;-0.009773843921720982;-0.012217304669320583
01:00:0A:00:00:00:00;1723421673;12/08/24;00:14:33;1.021;-0.03;0.092;0.015882495790719986;-0.0036651913542300463;0.0036651913542300463
01:00:0A:00:00:00:00;1723421674;12/08/24;00:14:34;1.009;-0.028;0.082;0.010995574295520782;-0.004886921960860491;0.02687807008624077
01:00:0A:00:00:00:00;1723421675;12/08/24;00:14:35;1.0;-0.024;0.081;0.018325956538319588;0.014660765416920185;0.014660765416920185
01:00:0A:00:00:00:00;1723421676;12/08/24;00:14:36;0.993;-0.022;0.084;0.01710422709584236;-0.013439035043120384;0.0
01:00:0A:00:00:00:00;1723421677;12/08/24;00:14:37;1.016;-0.023;0.083;0.014660765416920185;-0.036651913076639175;-0.006108652334660292
01:00:0A:00:00:00:00;1723421678;12/08/24;00:14:38;1.033;-0.025;0.081;0.02076941914856434;-0.012217304669320583;-0.006108652334660292
01:00:0A:00:00:00:00;1723421679;12/08/24;00:14:39;1.04;-0.024;0.095;0.018325956538319588;0.006108652334660292;0.0073303827084600925
01:00:0A:00:00:00:00;1723421680;12/08/24;00:14:40;1.033;-0.027;0.08;0.015882495790719986;-0.004886921960860491;0.015882495790719986
01:00:0A:00:00:00:00;1723421681;12/08/24;00:14:41;1.005;-0.021;0.076;0.02076941914856434;0.0073303827084600925;0.010995574295520782
01:00:0A:00:00:00:00;1723421682;12/08/24;00:14:42;0.993;-0.021;0.082;0.01710422709584236;-0.014660765416920185;0.004886921960860491
01:00:0A:00:00:00:00;1723421683;12/08/24;00:14:43;0.996;-0.025;0.08;0.01710422709584236;-0.030543262138962746;-0.004886921960860491
01:00:0A:00:00:00:00;1723421684;12/08/24;00:14:44;1.006;-0.025;0.081;0.02321287989616394;-0.012217304669320583;-0.009773843921720982
01:00:0A:00:00:00:00;1723421685;12/08/24;00:14:45;1.02;-0.022;0.089;0.018325956538319588;-0.025656338781118393;-0.004886921960860491
01:00:0A:00:00:00:00;1723421686;12/08/24;00:14:46;1.023;-0.026;0.081;0.01710422709584236;-0.02687807008624077;0.0012217304902151227
01:00:0A:00:00:00:00;1723421687;12/08/24;00:14:47;1.018;-0.025;0.085;0.02321287989616394;-0.0024434609804302454;-0.0036651913542300463
01:00:0A:00:00:00:00;1723421688;12/08/24;00:14:48;1.012;-0.027;0.093;0.018325956538319588;-0.012217304669320583;0.00855211354792118
01:00:0A:00:00:00:00;1723421689;12/08/24;00:14:49;1.013;-0.03;0.083;0.01710422709584236;-0.013439035043120384;0.013439035043120384
01:00:0A:00:00:00:00;1723421690;12/08/24;00:14:50;1.019;-0.022;0.084;0.02076941914856434;0.013439035043120384;0.018325956538319588
01:00:0A:00:00:00:00;1723421691;12/08/24;00:14:51;1.023;-0.017;0.086;0.015882495790719986;-0.0012217304902151227;0.019547687843441963
01:00:0A:00:00:00:00;1723421692;12/08/24;00:14:52;1.022;-0.019;0.07;0.018325956538319588;-0.013439035043120384;0.0024434609804302454
01:00:0A:00:00:00:00;1723421693;12/08/24;00:14:53;1.015;-0.02;0.079;0.021991148591041565;-0.014660765416920185;-0.012217304669320583
01:00:0A:00:00:00:00;1723421694;12/08/24;00:14:54;1.009;-0.021;0.086;0.014660765416920185;-0.03176499158143997;-0.0012217304902151227
01:00:0A:00:00:00:00;1723421695;12/08/24;00:14:55;1.004;-0.026;0.083;0.015882495790719986;-0.024434609338641167;-0.0012217304902151227
01:00:0A:00:00:00:00;1723421696;12/08/24;00:14:56;1.004;-0.021;0.087;0.019547687843441963;-0.0036651913542300463;-0.0036651913542300463
01:00:0A:00:00:00:00;1723421697;12/08/24;00:14:57;1.009;-0.024;0.086;0.010995574295520782;-0.014660765416920185;0.013439035043120384
01:00:0A:00:00:00:00;1723421698;12/08/24;00:14:58;1.013;-0.029;0.078;0.014660765416920185;-0.013439035043120384;0.006108652334660292
01:00:0A:00:00:00:00;1723421699;12/08/24;00:14:59;1.017;-0.021;0.084;0.01710422709584236;-0.00855211354792118;0.0012217304902151227
01:00:0A:00:00:00:00;1723421700;12/08/24;00:15:00;1.02;-0.024;0.088;0.009773843921720982;-0.01710422709584236;0.013439035043120384
01:00:0A:00:00:00:00;1723421701;12/08/24;00:15:01;1.019;-0.027;0.081;0.013439035043120384;-0.0024434609804302454;0.009773843921720982
01:00:0A:00:00:00:00;1723421702;12/08/24;00:15:02;1.013;-0.016;0.082;0.015882495790719986;0.006108652334660292;0.004886921960860491
01:00:0A:00:00:00:00;1723421703;12/08/24;00:15:03;1.012;-0.016;0.081;0.00855211354792118;-0.00855211354792118;0.012217304669320583
01:00:0A:00:00:00:00;1723421704;12/08/24;00:15:04;1.011;-0.022;0.075;0.014660765416920185;-0.013439035043120384;-0.00855211354792118
01:00:0A:00:00:00:00;1723421705;12/08/24;00:15:05;1.016;-0.017;0.082;0.013439035043120384;-0.019547687843441963;-0.010995574295520782
01:00:0A:00:00:00:00;1723421706;12/08/24;00:15:06;1.02;-0.023;0.087;0.0073303827084600925;-0.02687807008624077;0.004886921960860491
01:00:0A:00:00:00:00;1723421707;12/08/24;00:15:07;1.022;-0.03;0.085;0.013439035043120384;-0.006108652334660292;0.0012217304902151227
01:00:0A:00:00:00:00;1723421708;12/08/24;00:15:08;1.013;-0.022;0.087;0.012217304669320583;0.010995574295520782;0.006108652334660292
01:00:0A:00:00:00:00;1723421709;12/08/24;00:15:09;1.007;-0.026;0.081;0.0073303827084600925;-0.004886921960860491;0.02076941914856434
01:00:0A:00:00:00:00;1723421710;12/08/24;00:15:10;1.002;-0.023;0.075;0.014660765416920185;-0.0073303827084600925;0.0024434609804302454
01:00:0A:00:00:00:00;1723421711;12/08/24;00:15:11;1.005;-0.017;0.081;0.013439035043120384;-0.02076941914856434;-0.0012217304902151227
01:00:0A:00:00:00:00;1723421712;12/08/24;00:15:12;1.015;-0.024;0.081;0.00855211354792118;-0.03420845419168472;0.006108652334660292
01:00:0A:00:00:00:00;1723421713;12/08/24;00:15:13;1.03;-0.031;0.087;0.01710422709584236;-0.012217304669320583;0.0024434609804302454
01:00:0A:00:00:00:00;1723421714;12/08/24;00:15:14;1.03;-0.022;0.095;0.014660765416920185;-0.006108652334660292;0.012217304669320583
01:00:0A:00:00:00:00;1723421715;12/08/24;00:15:15;1.017;-0.026;0.085;0.012217304669320583;-0.0073303827084600925;0.021991148591041565
01:00:0A:00:00:00:00;1723421716;12/08/24;00:15:16;1.01;-0.023;0.084;0.02076941914856434;0.0;0.0024434609804302454
01:00:0A:00:00:00:00;1723421717;12/08/24;00:15:17;1.004;-0.017;0.087;0.018325956538319588;-0.009773843921720982;0.0
01:00:0A:00:00:00:00;1723421718;12/08/24;00:15:18;1.005;-0.023;0.081;0.015882495790719986;-0.018325956538319588;0.004886921960860491
