Source;Epoch timestamp (UTC);Date;Time (UTC);Accel X (G);Accel Y (G);Accel Z (G);Gyro X (rad/s);Gyro Y (rad/s);Gyro Z (rad/s)
01:00:0A:00:00:00:00;1723507198;12/08/24;23:59:58;1.011;-0.215;0.191;-1.0824532508850098;0.23945917189121246;-0.5070181488990784
01:00:0A:00:00:00:00;1723507199;12/08/24;23:59:59;0.932;0.185;0.3;-1.3842206001281738;-0.4605923891067505;-0.13927726447582245
01:00:0A:00:00:00:00;1723507200;13/08/24;00:00:00;0.972;0.03;-0.165;-0.9505062699317932;0.38240164518356323;0.6352998614311218
01:00:0A:00:00:00:00;1723507201;13/08/24;00:00:01;0.948;-0.206;0.16;-0.4996877610683441;0.45204028487205505;-0.06475171446800232
01:00:0A:00:00:00:00;1723507202;13/08/24;00:00:02;0.929;-0.186;0.394;-0.09040805697441101;0.26022857427597046;-0.5852089524269104
01:00:0A:00:00:00:00;1723507203;13/08/24;00:00:03;0.97;0.104;0.454;-0.4801400899887085;-0.8442157506942749;-0.6059783101081848
01:00:0A:00:00:00:00;1723507204;13/08/24;00:00:04;0.924;0.499;0.011;-0.9676105380058289;-0.22602014243602753;-0.12461651116609573
01:00:0A:00:00:00:00;1723507205;13/08/24;00:00:05;0.993;-0.018;-0.169;-1.0763444900512695;-0.5558874011039734;0.30543261766433716
01:00:0A:00:00:00:00;1723507206;13/08/24;00:00:06;0.956;-0.373;-0.232;-0.3738495111465454;1.0115928649902344;0.36163222789764404
01:00:0A:00:00:00:00;1723507207;13/08/24;00:00:07;0.859;-0.141;0.658;-0.3017674386501312;0.03176499158143997;-0.2834414541721344
01:00:0A:00:00:00:00;1723507208;13/08/24;00:00:08;0.926;-0.217;0.321;-3.062878131866455;-0.49357908964157104;-0.3274237811565399
01:00:0A:00:00:00:00;1723507209;13/08/24;00:00:09;0.988;0.055;0.177;-2.415361166000366;-0.030543262138962746;-0.0036651913542300463
01:00:0A:00:00:00:00;1723507210;13/08/24;00:00:10;0.974;-0.013;0.237;-2.185675859451294;0.07696902006864548;-0.18448130786418915
01:00:0A:00:00:00:00;1723507211;13/08/24;00:00:11;0.975;0.112;0.03;-1.7409659624099731;0.05375614017248154;-0.685390830039978
01:00:0A:00:00:00:00;1723507212;13/08/24;00:00:12;0.931;-0.215;0.228;-1.810604453086853;-1.0299187898635864;-0.1918116807937622
01:00:0A:00:00:00:00;1723507213;13/08/24;00:00:13;0.96;0.292;0.125;-1.4672983884811401;0.6340781450271606;0.23579397797584534
01:00:0A:00:00:00:00;1723507214;13/08/24;00:00:14;0.869;-0.463;-0.095;-1.0445796251296997;-0.29077184200286865;-0.2577851116657257
01:00:0A:00:00:00:00;1723507215;13/08/24;00:00:15;0.901;0.028;0.442;-0.6340781450271606;0.598647952079773;-0.1466076523065567
01:00:0A:00:00:00:00;1723507216;13/08/24;00:00:16;0.871;-0.18;0.474;-0.8649851679801941;-0.24556782841682434;-1.0897835493087769
01:00:0A:00:00:00:00;1723507217;13/08/24;00:00:17;0.948;0.223;0.2;-1.3915510177612305;-0.9651670455932617;-0.685390830039978
01:00:0A:00:00:00:00;1723507218;13/08/24;00:00:18;1.005;0.037;0.177;-1.6762142181396484;-0.2272418737411499;0.3188716471195221
01:00:0A:00:00:00:00;1723507219;13/08/24;00:00:19;1.017;-0.048;-0.078;-1.3683381080627441;0.02321287989616394;-0.2590068578720093
01:00:0A:00:00:00:00;1723507220;13/08/24;00:00:20;1.023;-0.143;0.097;-1.1850786209106445;-0.35674530267715454;-0.5302309989929199
01:00:0A:00:00:00:00;1723507221;13/08/24;00:00:21;1.01;0.203;0.168;-1.3084733486175537;-0.23090705275535583;-0.14538592100143433
01:00:0A:00:00:00:00;1723507222;13/08/24;00:00:22;0.973;0.018;0.342;-1.4856243133544922;-0.12217304855585098;-0.49846604466438293
01:00:0A:00:00:00:00;1723507223;13/08/24;00:00:23;0.972;0.239;0.245;-1.7935004234313965;-0.5632177591323853;-0.49235740303993225
01:00:0A:00:00:00:00;1723507224;13/08/24;00:00:24;0.928;0.053;0.447;-1.9816468954086304;0.21991148591041565;-0.43249258399009705
01:00:0A:00:00:00:00;1723507225;13/08/24;00:00:25;0.943;-0.3;0.196;-1.4929546117782593;0.11728612333536148;-0.22846359014511108
01:00:0A:00:00:00:00;1723507226;13/08/24;00:00:26;0.904;0.076;0.282;-0.9529497623443604;0.12217304855585098;-0.7305948734283447
01:00:0A:00:00:00:00;1723507227;13/08/24;00:00:27;0.965;-0.164;-0.095;-1.0836749076843262;-0.5742133259773254;0.07330382615327835
01:00:0A:00:00:00:00;1723507228;13/08/24;00:00:28;1.004;0.066;0.12;-0.5803219676017761;0.8930849432945251;0.15515977144241333
01:00:0A:00:00:00:00;1723507229;13/08/24;00:00:29;0.812;-0.206;0.651;-0.8442157506942749;-0.34208452701568604;-0.8222246170043945
01:00:0A:00:00:00:00;1723507230;13/08/24;00:00:30;0.979;0.304;-0.049;-1.0922271013259888;-0.685390830039978;-0.01710422709584236
01:00:0A:00:00:00:00;1723507231;13/08/24;00:00:31;1.022;-0.114;0.039;-0.9517280459403992;0.15515977144241333;0.5864306092262268
01:00:0A:00:00:00:00;1723507232;13/08/24;00:00:32;0.891;0.043;0.298;-0.5021312236785889;1.0311404466629028;0.8539896011352539
01:00:0A:00:00:00:00;1723507233;13/08/24;00:00:33;0.952;0.291;-0.088;-0.6682865619659424;-0.940732479095459;-1.0018190145492554
01:00:0A:00:00:00:00;1723507234;13/08/24;00:00:34;0.946;-0.05;0.098;-0.8686503767967224;0.3543018400669098;0.3579670488834381
01:00:0A:00:00:00:00;1723507235;13/08/24;00:00:35;0.917;-0.081;0.146;-0.6352998614311218;0.14416420459747314;-0.27122414112091064
01:00:0A:00:00:00:00;1723507236;13/08/24;00:00:36;0.961;0.198;0.198;-0.7024949789047241;-0.251676470041275;-1.0800098180770874
01:00:0A:00:00:00:00;1723507237;13/08/24;00:00:37;0.889;-0.091;0.481;-1.4196507930755615;-0.646295428276062;0.25045475363731384
01:00:0A:00:00:00:00;1723507238;13/08/24;00:00:38;1.001;0.058;-0.163;-0.9627236127853394;-0.0354301817715168;-0.646295428276062
01:00:0A:00:00:00:00;1723507239;13/08/24;00:00:39;1.054;0.038;0.165;-1.1129964590072632;-0.3799581527709961;0.11362093687057495
01:00:0A:00:00:00:00;1723507240;13/08/24;00:00:40;0.976;-0.047;0.098;-2.48988676071167;0.19058994948863983;0.13927726447582245
01:00:0A:00:00:00:00;1723507241;13/08/24;00:00:41;0.921;-0.006;0.065;-1.7886134386062622;0.3933972120285034;-0.1111774742603302
01:00:0A:00:00:00:00;1723507242;13/08/24;00:00:42;1.005;-0.024;0.0;-1.3182471990585327;0.4105014204978943;-0.5485569834709167
01:00:0A:00:00:00:00;1723507243;13/08/24;00:00:43;1.043;-0.155;0.253;-1.263269305229187;0.44715335965156555;-0.2883284091949463
01:00:0A:00:00:00:00;1723507244;13/08/24;00:00:44;0.903;0.036;0.026;0.21013763546943665;-0.6230825185775757;-0.8332201242446899
01:00:0A:00:00:00:00;1723507245;13/08/24;00:00:45;0.851;0.042;-0.011;0.6133087277412415;-1.323134183883667;1.7763961553573608
01:00:0A:00:00:00:00;1723507246;13/08/24;00:00:46;0.775;0.528;0.093;0.6340781450271606;-0.25534167885780334;-2.0366246700286865
01:00:0A:00:00:00:00;1723507247;13/08/24;00:00:47;0.999;0.17;0.169;-0.7733554244041443;0.40683624148368835;1.3573424816131592
01:00:0A:00:00:00:00;1723507248;13/08/24;00:00:48;0.966;-0.378;0.282;-0.8332201242446899;0.513126790523529;-0.3543018400669098
01:00:0A:00:00:00:00;1723507249;13/08/24;00:00:49;0.961;0.427;0.176;-1.1007791757583618;-0.24556782841682434;-0.5913175940513611
01:00:0A:00:00:00:00;1723507250;13/08/24;00:00:50;0.745;-0.016;-0.613;0.26145032048225403;0.03176499158143997;0.6340781450271606
01:00:0A:00:00:00:00;1723507251;13/08/24;00:00:51;0.756;-0.135;0.71;0.08552113175392151;0.93095862865448;-1.1129964590072632
01:00:0A:00:00:00:00;1723507252;13/08/24;00:00:52;1.023;0.228;0.105;-0.6682865619659424;-1.2412781715393066;-0.32131510972976685
01:00:0A:00:00:00:00;1723507253;13/08/24;00:00:53;0.872;-0.601;-0.081;0.9627236127853394;1.451415777206421;0.1869247555732727
01:00:0A:00:00:00:00;1723507254;13/08/24;00:00:54;0.961;0.452;-0.062;-3.754377603530884;-0.4337143301963806;0.7232644557952881
01:00:0A:00:00:00:00;1723507255;13/08/24;00:00:55;0.672;0.318;0.794;-2.5839600563049316;2.9345967769622803;0.5143485069274902
01:00:0A:00:00:00:00;1723507256;13/08/24;00:00:56;1.041;-0.089;-0.223;-1.1655309200286865;-0.4447098970413208;-1.1606439352035522
01:00:0A:00:00:00:00;1723507257;13/08/24;00:00:57;0.905;0.234;0.401;-1.4868459701538086;-0.13561207056045532;-0.161268413066864
01:00:0A:00:00:00:00;1723507258;13/08/24;00:00:58;0.812;-0.098;-0.499;-1.538158655166626;-0.9040805697441101;0.375071257352829
01:00:0A:00:00:00:00;1723507259;13/08/24;00:00:59;0.96;-0.078;0.419;-1.4672983884811401;0.8772024512290955;-0.16493360698223114
01:00:0A:00:00:00:00;1723507260;13/08/24;00:01:00;0.821;0.274;0.523;0.7073819637298584;0.49846604466438293;-0.1160643920302391
01:00:0A:00:00:00:00;1723507261;13/08/24;00:01:01;0.946;-0.036;0.282;-0.14049901068210602;-1.3988813161849976;0.2223549485206604
01:00:0A:00:00:00:00;1723507262;13/08/24;00:01:02;0.942;0.172;-0.174;-2.102598190307617;0.14049901068210602;1.1948524713516235
01:00:0A:00:00:00:00;1723507263;13/08/24;00:01:03;0.772;-0.493;0.642;-1.63467538356781;0.8344419002532959;-1.4135421514511108
01:00:0A:00:00:00:00;1723507264;13/08/24;00:01:04;0.93;0.41;0.005;-2.613281488418579;-1.9144517183303833;0.5094615817070007
01:00:0A:00:00:00:00;1723507265;13/08/24;00:01:05;0.867;0.148;-0.323;-2.9407052993774414;-0.3274237811565399;0.49846604466438293
01:00:0A:00:00:00:00;1723507266;13/08/24;00:01:06;0.904;-0.417;-0.207;-2.0647246837615967;-1.3267992734909058;0.16859880089759827
01:00:0A:00:00:00:00;1723507267;13/08/24;00:01:07;0.912;0.13;-0.203;-1.2168434858322144;0.9639453291893005;0.7965682148933411
01:00:0A:00:00:00:00;1723507268;13/08/24;00:01:08;0.905;0.434;-0.122;-1.292590856552124;-1.5344934463500977;1.527163028717041
01:00:0A:00:00:00:00;1723507269;13/08/24;00:01:09;0.878;-0.102;0.464;-1.243721604347229;-1.1252137422561646;-1.722640037536621
01:00:0A:00:00:00:00;1723507270;13/08/24;00:01:10;0.938;0.287;-0.078;-1.9327776432037354;-0.5290092825889587;0.8979718685150146
01:00:0A:00:00:00:00;1723507271;13/08/24;00:01:11;0.899;0.498;-0.226;-2.3823745250701904;0.014660765416920185;0.4960225820541382
01:00:0A:00:00:00:00;1723507272;13/08/24;00:01:12;0.885;-0.472;-0.118;-0.4605923891067505;-0.33597588539123535;0.7086036801338196
01:00:0A:00:00:00:00;1723507273;13/08/24;00:01:13;0.752;0.683;0.134;-0.921184778213501;-0.2076941877603531;-1.2107348442077637
01:00:0A:00:00:00:00;1723507274;13/08/24;00:01:14;1.043;-0.158;-0.016;-1.822821855545044;-0.22479839622974396;1.0800098180770874
01:00:0A:00:00:00:00;1723507275;13/08/24;00:01:15;1.025;0.067;0.315;-1.016479730606079;-0.21991148591041565;-1.0726792812347412
01:00:0A:00:00:00:00;1723507276;13/08/24;00:01:16;0.736;0.233;-0.677;-1.1704179048538208;-0.5534439086914062;1.340238332748413
01:00:0A:00:00:00:00;1723507277;13/08/24;00:01:17;0.887;-0.581;0.282;-1.204626202583313;0.47769662737846375;-0.7183775305747986
01:00:0A:00:00:00:00;1723507278;13/08/24;00:01:18;0.956;0.104;0.209;-1.872912883758545;-0.004886921960860491;0.23335053026676178
01:00:0A:00:00:00:00;1723507279;13/08/24;00:01:19;1.013;-0.07;-0.131;-2.0305159091949463;-0.5180137157440186;-0.06963863223791122
01:00:0A:00:00:00:00;1723507280;13/08/24;00:01:20;1.013;-0.174;0.053;-1.6102406978607178;0.4447098970413208;0.588874101638794
01:00:0A:00:00:00:00;1723507281;13/08/24;00:01:21;0.996;-0.081;-0.002;-0.9053022265434265;0.588874101638794;-0.1576032191514969
01:00:0A:00:00:00:00;1723507282;13/08/24;00:01:22;1.093;-0.142;0.122;-0.5229006409645081;0.09773843735456467;-0.8014551997184753
01:00:0A:00:00:00:00;1723507283;13/08/24;00:01:23;0.951;0.314;0.179;-2.8185322284698486;0.04398229718208313;-0.19425514340400696
01:00:0A:00:00:00:00;1723507284;13/08/24;00:01:24;0.935;-0.024;0.163;-1.23394775390625;1.3170254230499268;0.2785545289516449
01:00:0A:00:00:00:00;1723507285;13/08/24;00:01:25;0.907;0.279;-0.018;-0.7709119319915771;-0.8796459436416626;-1.3353514671325684
01:00:0A:00:00:00:00;1723507286;13/08/24;00:01:26;0.894;0.209;0.353;-1.3744467496871948;-0.4349360466003418;0.6988298296928406
01:00:0A:00:00:00:00;1723507287;13/08/24;00:01:27;0.891;-0.07;-0.108;-0.8515461683273315;0.616973876953125;0.7415903806686401
01:00:0A:00:00:00:00;1723507288;13/08/24;00:01:28;0.862;-0.259;0.209;-0.04764748737215996;0.7037167549133301;-1.226617455482483
01:00:0A:00:00:00:00;1723507289;13/08/24;00:01:29;0.946;0.164;0.124;-1.566258430480957;-1.2095131874084473;-0.2015855312347412
01:00:0A:00:00:00:00;1723507290;13/08/24;00:01:30;0.962;0.077;-0.188;-1.5625932216644287;-0.045204028487205505;0.5473352670669556
01:00:0A:00:00:00:00;1723507291;13/08/24;00:01:31;0.942;-0.295;0.117;-1.1924089193344116;0.35063666105270386;0.6145303845405579
01:00:0A:00:00:00:00;1723507292;13/08/24;00:01:32;0.894;-0.179;0.14;-0.38240164518356323;0.5314527750015259;-0.42760565876960754
01:00:0A:00:00:00:00;1723507293;13/08/24;00:01:33;0.962;0.122;-0.074;-0.23945917189121246;-0.10506881773471832;-0.33719760179519653
01:00:0A:00:00:00:00;1723507294;13/08/24;00:01:34;0.993;0.037;0.044;-0.5839871764183044;0.2321287840604782;1.3524556159973145
01:00:0A:00:00:00:00;1723507295;13/08/24;00:01:35;0.954;-0.361;-0.13;-0.06108652427792549;-0.3433062732219696;-0.20402899384498596
01:00:0A:00:00:00:00;1723507296;13/08/24;00:01:36;1.061;0.099;-0.074;0.38240164518356323;0.4813618063926697;-0.2993239760398865
01:00:0A:00:00:00:00;1723507297;13/08/24;00:01:37;0.932;0.049;0.406;-0.0354301817715168;0.39095374941825867;0.09773843735456467
01:00:0A:00:00:00:00;1723507298;13/08/24;00:01:38;0.96;-0.051;-0.21;-0.17104226350784302;-0.5057964324951172;-0.045204028487205505
01:00:0A:00:00:00:00;1723507299;13/08/24;00:01:39;0.951;-0.125;0.027;-0.3445279896259308;1.0604619979858398;-0.2675589621067047
01:00:0A:00:00:00:00;1723507300;13/08/24;00:01:40;0.982;0.061;-0.15;-0.5583308339118958;-0.8894197940826416;0.2174680233001709
01:00:0A:00:00:00:00;1723507301;13/08/24;00:01:41;1.018;0.014;-0.089;-0.4312708377838135;0.34574973583221436;0.04642575979232788
01:00:0A:00:00:00:00;1723507302;13/08/24;00:01:42;1.031;0.065;0.068;-0.32009339332580566;-0.02687807008624077;0.11484266817569733
01:00:0A:00:00:00:00;1723507303;13/08/24;00:01:43;0.921;-0.288;-0.138;0.025656338781118393;-0.06719517707824707;0.22113320231437683
01:00:0A:00:00:00:00;1723507304;13/08/24;00:01:44;0.958;0.065;0.31;0.06963863223791122;0.06475171446800232;-0.6328563690185547
01:00:0A:00:00:00:00;1723507305;13/08/24;00:01:45;0.976;0.273;0.156;-0.6976081132888794;-0.7990117073059082;-0.0708603635430336
01:00:0A:00:00:00:00;1723507306;13/08/24;00:01:46;0.828;0.541;0.077;-1.2168434858322144;-0.2687807083129883;0.02321287989616394
01:00:0A:00:00:00:00;1723507307;13/08/24;00:01:47;0.975;-0.093;0.222;-1.6517795324325562;-1.242499828338623;0.009773843921720982
01:00:0A:00:00:00:00;1723507308;13/08/24;00:01:48;0.95;0.202;-0.108;-1.4355332851409912;0.11972958594560623;0.2382374405860901
01:00:0A:00:00:00:00;1723507309;13/08/24;00:01:49;1.012;-0.113;0.149;-1.3084733486175537;0.02687807008624077;0.010995574295520782
01:00:0A:00:00:00:00;1723507310;13/08/24;00:01:50;0.926;-0.272;-0.044;-0.3335324227809906;-0.1368338167667389;-0.8393288850784302
01:00:0A:00:00:00:00;1723507311;13/08/24;00:01:51;0.961;0.187;0.082;-0.3286454975605011;0.31154125928878784;0.08918632566928864
01:00:0A:00:00:00:00;1723507312;13/08/24;00:01:52;0.995;-0.117;0.15;-0.6047565937042236;-0.5290092825889587;0.21013763546943665
01:00:0A:00:00:00:00;1723507313;13/08/24;00:01:53;1.02;-0.037;-0.152;-0.16371189057826996;0.2590068578720093;-0.19547687470912933
01:00:0A:00:00:00:00;1723507314;13/08/24;00:01:54;0.987;0.102;0.307;-0.4043927788734436;0.0;-0.012217304669320583
01:00:0A:00:00:00:00;1723507315;13/08/24;00:01:55;1.045;-0.016;0.026;-0.5742133259773254;-0.19914205372333527;-0.036651913076639175
01:00:0A:00:00:00:00;1723507316;13/08/24;00:01:56;1.007;0.073;0.075;-0.5119050741195679;0.13439035415649414;-0.024434609338641167
01:00:0A:00:00:00:00;1723507317;13/08/24;00:01:57;0.952;-0.146;0.098;-0.533896267414093;0.04398229718208313;0.36651912331581116
01:00:0A:00:00:00:00;1723507318;13/08/24;00:01:58;0.966;-0.152;0.068;-0.1062905490398407;0.040317103266716;-0.4593706727027893
01:00:0A:00:00:00:00;1723507319;13/08/24;00:01:59;0.985;0.108;0.122;-0.3274237811565399;-0.2382374405860901;0.07330382615327835
01:00:0A:00:00:00:00;1723507320;13/08/24;00:02:00;1.03;-0.042;0.009;-0.4153883755207062;-0.19425514340400696;0.15271630883216858
01:00:0A:00:00:00:00;1723507321;13/08/24;00:02:01;1.012;-0.1;0.1;-0.2015855312347412;0.2174680233001709;-0.0659734457731247
01:00:0A:00:00:00:00;1723507322;13/08/24;00:02:02;0.984;0.011;0.185;-0.2382374405860901;0.012217304669320583;-0.19914205372333527
01:00:0A:00:00:00:00;1723507323;13/08/24;00:02:03;0.99;-0.035;0.048;-0.4080579876899719;-0.13927726447582245;0.12339477241039276
01:00:0A:00:00:00:00;1723507324;13/08/24;00:02:04;1.016;-0.089;0.05;-0.2321287840604782;0.22602014243602753;-0.05742133408784866
01:00:0A:00:00:00:00;1723507325;13/08/24;00:02:05;1.012;-0.013;0.225;-0.35185837745666504;-0.251676470041275;-0.028099799528717995
01:00:0A:00:00:00:00;1723507326;13/08/24;00:02:06;1.036;-0.001;-0.007;-0.3640756905078888;-0.05742133408784866;0.039095375686883926
01:00:0A:00:00:00:00;1723507327;13/08/24;00:02:07;1.015;-0.063;0.137;-0.28099802136421204;0.161268413066864;0.025656338781118393
01:00:0A:00:00:00:00;1723507328;13/08/24;00:02:08;1.003;-0.014;0.138;-0.30054569244384766;-0.07941248267889023;-0.14294245839118958
01:00:0A:00:00:00:00;1723507329;13/08/24;00:02:09;1.02;0.017;0.049;-0.35063666105270386;-0.02687807008624077;0.042760565876960754
01:00:0A:00:00:00:00;1723507330;13/08/24;00:02:10;1.025;-0.061;0.105;-0.31031954288482666;0.09285151958465576;0.10018189996480942
01:00:0A:00:00:00:00;1723507331;13/08/24;00:02:11;1.018;-0.043;0.122;-0.24923302233219147;0.02687807008624077;-0.1062905490398407
01:00:0A:00:00:00:00;1723507332;13/08/24;00:02:12;1.015;0.021;0.085;-0.2981022298336029;-0.03420845419168472;-0.02321287989616394
01:00:0A:00:00:00:00;1723507333;13/08/24;00:02:13;1.016;-0.049;0.068;-0.3152064383029938;-0.021991148591041565;0.05619959905743599
01:00:0A:00:00:00:00;1723507334;13/08/24;00:02:14;1.019;-0.061;0.148;-0.24556782841682434;0.014660765416920185;-0.06352998316287994
01:00:0A:00:00:00:00;1723507335;13/08/24;00:02:15;1.009;0.007;0.129;-0.27000245451927185;-0.02932153083384037;-0.07819075137376785
01:00:0A:00:00:00:00;1723507336;13/08/24;00:02:16;0.99;-0.04;0.085;-0.3127630054950714;0.009773843921720982;0.08307767659425735
01:00:0A:00:00:00:00;1723507337;13/08/24;00:02:17;0.969;-0.062;0.085;-0.22479839622974396;0.06963863223791122;-0.05253440886735916
01:00:0A:00:00:00:00;1723507338;13/08/24;00:02:18;0.987;-0.013;0.097;-0.21991148591041565;-0.04398229718208313;-0.04398229718208313
01:00:0A:00:00:00:00;1723507339;13/08/24;00:02:19;1.012;-0.036;0.098;-0.26022857427597046;-0.09529497474431992;0.03176499158143997
01:00:0A:00:00:00:00;1723507340;13/08/24;00:02:20;1.035;-0.079;0.063;-0.17348572611808777;0.04764748737215996;-0.014660765416920185
01:00:0A:00:00:00:00;1723507341;13/08/24;00:02:21;1.028;-0.012;0.159;-0.19547687470912933;0.0036651913542300463;-0.06230825558304787
01:00:0A:00:00:00:00;1723507342;13/08/24;00:02:22;1.035;-0.045;0.062;-0.23335053026676178;-0.06475171446800232;0.019547687843441963
01:00:0A:00:00:00:00;1723507343;13/08/24;00:02:23;1.032;-0.081;0.105;-0.16371189057826996;0.036651913076639175;0.014660765416920185
01:00:0A:00:00:00:00;1723507344;13/08/24;00:02:24;1.018;-0.01;0.165;-0.2015855312347412;-0.021991148591041565;0.0012217304902151227
01:00:0A:00:00:00:00;1723507345;13/08/24;00:02:25;1.008;-0.043;0.09;-0.24190263450145721;-0.03787364438176155;0.045204028487205505
01:00:0A:00:00:00:00;1723507346;13/08/24;00:02:26;0.998;-0.046;0.103;-0.15271630883216858;0.10018189996480942;-0.010995574295520782
01:00:0A:00:00:00:00;1723507347;13/08/24;00:02:27;0.982;-0.004;0.11;-0.1820378452539444;-0.02932153083384037;-0.040317103266716
01:00:0A:00:00:00:00;1723507348;13/08/24;00:02:28;0.992;-0.03;0.086;-0.20402899384498596;-0.05742133408784866;0.01710422709584236
01:00:0A:00:00:00:00;1723507349;13/08/24;00:02:29;1.023;-0.034;0.096;-0.14905111491680145;0.03298672288656235;-0.06475171446800232
01:00:0A:00:00:00:00;1723507350;13/08/24;00:02:30;1.029;-0.046;0.123;-0.1661553531885147;0.01710422709584236;0.0012217304902151227
01:00:0A:00:00:00:00;1723507351;13/08/24;00:02:31;1.027;-0.033;0.084;-0.1673770695924759;-0.0024434609804302454;0.021991148591041565
01:00:0A:00:00:00:00;1723507352;13/08/24;00:02:32;1.018;-0.04;0.09;-0.1563815027475357;0.019547687843441963;0.021991148591041565
01:00:0A:00:00:00:00;1723507353;13/08/24;00:02:33;1.014;-0.038;0.121;-0.16493360698223114;-0.018325956538319588;-0.025656338781118393
01:00:0A:00:00:00:00;1723507354;13/08/24;00:02:34;1.007;-0.034;0.099;-0.19792033731937408;-0.06352998316287994;0.03420845419168472
01:00:0A:00:00:00:00;1723507355;13/08/24;00:02:35;0.995;-0.04;0.091;-0.1869247555732727;0.0073303827084600925;0.025656338781118393
01:00:0A:00:00:00:00;1723507356;13/08/24;00:02:36;0.993;-0.033;0.116;-0.18936821818351746;-0.03298672288656235;-0.040317103266716
01:00:0A:00:00:00:00;1723507357;13/08/24;00:02:37;1.022;-0.044;0.102;-0.20525071024894714;-0.06352998316287994;-0.02687807008624077
01:00:0A:00:00:00:00;1723507358;13/08/24;00:02:38;1.048;-0.025;0.103;-0.20891590416431427;0.030543262138962746;0.03298672288656235
01:00:0A:00:00:00:00;1723507359;13/08/24;00:02:39;1.039;-0.05;0.126;-0.1869247555732727;0.042760565876960754;0.019547687843441963
01:00:0A:00:00:00:00;1723507360;13/08/24;00:02:40;1.003;-0.016;0.077;-0.16371189057826996;0.009773843921720982;-0.05375614017248154
01:00:0A:00:00:00:00;1723507361;13/08/24;00:02:41;0.981;-0.056;0.082;-0.17104226350784302;0.019547687843441963;0.04764748737215996
01:00:0A:00:00:00:00;1723507362;13/08/24;00:02:42;0.99;-0.044;0.084;-0.12095131725072861;-0.07941248267889023;-0.06963863223791122
01:00:0A:00:00:00:00;1723507363;13/08/24;00:02:43;1.02;-0.019;0.102;-0.13072516024112701;-0.03787364438176155;0.03298672288656235
01:00:0A:00:00:00:00;1723507364;13/08/24;00:02:44;1.029;-0.06;0.121;-0.10018189996480942;-0.02687807008624077;-0.03787364438176155
01:00:0A:00:00:00:00;1723507365;13/08/24;00:02:45;1.025;-0.038;0.113;-0.08429940044879913;0.024434609338641167;-0.00855211354792118
01:00:0A:00:00:00:00;1723507366;13/08/24;00:02:46;1.009;-0.041;0.107;-0.09407324343919754;0.015882495790719986;0.02687807008624077
01:00:0A:00:00:00:00;1723507367;13/08/24;00:02:47;0.996;-0.037;0.1;-0.08552113175392151;0.0024434609804302454;0.018325956538319588
01:00:0A:00:00:00:00;1723507368;13/08/24;00:02:48;1.002;-0.046;0.097;-0.0659734457731247;0.0;-0.025656338781118393
01:00:0A:00:00:00:00;1723507369;13/08/24;00:02:49;1.004;-0.01;0.091;-0.0757472887635231;-0.013439035043120384;0.0036651913542300463
01:00:0A:00:00:00:00;1723507370;13/08/24;00:02:50;1.019;-0.05;0.085;-0.07696902006864548;-0.021991148591041565;0.019547687843441963
01:00:0A:00:00:00:00;1723507371;13/08/24;00:02:51;1.03;-0.051;0.105;-0.045204028487205505;-0.02321287989616394;-0.036651913076639175
01:00:0A:00:00:00:00;1723507372;13/08/24;00:02:52;1.034;-0.015;0.111;-0.07819075137376785;-0.0354301817715168;0.019547687843441963
01:00:0A:00:00:00:00;1723507373;13/08/24;00:02:53;1.032;-0.059;0.097;-0.0708603635430336;0.018325956538319588;0.030543262138962746
01:00:0A:00:00:00:00;1723507374;13/08/24;00:02:54;1.003;-0.018;0.112;-0.051312677562236786;0.03787364438176155;-0.02321287989616394
01:00:0A:00:00:00:00;1723507375;13/08/24;00:02:55;0.994;-0.028;0.098;-0.08918632566928864;-0.021991148591041565;0.030543262138962746
01:00:0A:00:00:00:00;1723507376;13/08/24;00:02:56;0.988;-0.025;0.093;-0.06841690838336945;0.014660765416920185;-0.024434609338641167
01:00:0A:00:00:00:00;1723507377;13/08/24;00:02:57;0.997;-0.028;0.095;-0.09407324343919754;-0.059864792972803116;-0.0036651913542300463
01:00:0A:00:00:00:00;1723507378;13/08/24;00:02:58;1.016;-0.038;0.096;-0.080634206533432;-0.009773843921720982;-0.03787364438176155
01:00:0A:00:00:00:00;1723507379;13/08/24;00:02:59;1.017;-0.038;0.111;-0.09040805697441101;-0.018325956538319588;-0.019547687843441963
01:00:0A:00:00:00:00;1723507380;13/08/24;00:03:00;1.016;-0.04;0.086;-0.09407324343919754;-0.024434609338641167;-0.02321287989616394
01:00:0A:00:00:00:00;1723507381;13/08/24;00:03:01;1.017;-0.04;0.103;-0.09773843735456467;-0.004886921960860491;0.01710422709584236
01:00:0A:00:00:00:00;1723507382;13/08/24;00:03:02;1.025;-0.052;0.105;-0.09407324343919754;-0.009773843921720982;0.018325956538319588
01:00:0A:00:00:00:00;1723507383;13/08/24;00:03:03;1.029;-0.027;0.115;-0.08552113175392151;0.030543262138962746;0.010995574295520782
01:00:0A:00:00:00:00;1723507384;13/08/24;00:03:04;1.021;-0.027;0.095;-0.09040805697441101;0.004886921960860491;0.021991148591041565
01:00:0A:00:00:00:00;1723507385;13/08/24;00:03:05;0.999;-0.035;0.085;-0.07208210229873657;0.04153883829712868;0.012217304669320583
01:00:0A:00:00:00:00;1723507386;13/08/24;00:03:06;0.991;-0.021;0.096;-0.07819075137376785;-0.040317103266716;-0.02932153083384037
01:00:0A:00:00:00:00;1723507387;13/08/24;00:03:07;1.003;-0.031;0.082;-0.08185594528913498;-0.024434609338641167;0.0
01:00:0A:00:00:00:00;1723507388;13/08/24;00:03:08;1.016;-0.039;0.116;-0.06963863223791122;-0.03298672288656235;-0.03420845419168472
01:00:0A:00:00:00:00;1723507389;13/08/24;00:03:09;1.016;-0.026;0.099;-0.08185594528913498;-0.03176499158143997;-0.018325956538319588
01:00:0A:00:00:00:00;1723507390;13/08/24;00:03:10;1.012;-0.041;0.091;-0.08185594528913498;0.019547687843441963;0.00855211354792118
01:00:0A:00:00:00:00;1723507391;13/08/24;00:03:11;1.011;-0.043;0.103;-0.08307767659425735;-0.04764748737215996;-0.010995574295520782
01:00:0A:00:00:00:00;1723507392;13/08/24;00:03:12;1.016;-0.028;0.099;-0.07941248267889023;0.00855211354792118;0.0024434609804302454
01:00:0A:00:00:00:00;1723507393;13/08/24;00:03:13;1.018;-0.039;0.121;-0.09162978082895279;-0.00855211354792118;0.013439035043120384
01:00:0A:00:00:00:00;1723507394;13/08/24;00:03:14;1.012;-0.03;0.092;-0.08429940044879913;0.010995574295520782;-0.010995574295520782
01:00:0A:00:00:00:00;1723507395;13/08/24;00:03:15;1.006;-0.027;0.099;-0.09896016865968704;0.0012217304902151227;0.006108652334660292
01:00:0A:00:00:00:00;1723507396;13/08/24;00:03:16;1.011;-0.034;0.098;-0.09896016865968704;-0.030543262138962746;-0.024434609338641167
01:00:0A:00:00:00:00;1723507397;13/08/24;00:03:17;1.024;-0.033;0.098;-0.10018189996480942;-0.004886921960860491;-0.0012217304902151227
01:00:0A:00:00:00:00;1723507398;13/08/24;00:03:18;1.028;-0.046;0.108;-0.09407324343919754;-0.0036651913542300463;-0.0073303827084600925
01:00:0A:00:00:00:00;1723507399;13/08/24;00:03:19;1.011;-0.033;0.103;-0.10018189996480942;0.0036651913542300463;0.015882495790719986
01:00:0A:00:00:00:00;1723507400;13/08/24;00:03:20;1.003;-0.037;0.095;-0.10018189996480942;0.0012217304902151227;0.02076941914856434
01:00:0A:00:00:00:00;1723507401;13/08/24;00:03:21;1.0;-0.031;0.095;-0.09040805697441101;-0.010995574295520782;-0.009773843921720982
01:00:0A:00:00:00:00;1723507402;13/08/24;00:03:22;1.007;-0.038;0.091;-0.09651670604944229;-0.02321287989616394;0.0012217304902151227
01:00:0A:00:00:00:00;1723507403;13/08/24;00:03:23;1.011;-0.038;0.094;-0.08307767659425735;-0.02932153083384037;-0.028099799528717995
01:00:0A:00:00:00:00;1723507404;13/08/24;00:03:24;1.007;-0.032;0.098;-0.09162978082895279;-0.03787364438176155;0.0036651913542300463
01:00:0A:00:00:00:00;1723507405;13/08/24;00:03:25;1.013;-0.041;0.117;-0.07941248267889023;-0.012217304669320583;-0.014660765416920185
01:00:0A:00:00:00:00;1723507406;13/08/24;00:03:26;1.021;-0.027;0.111;-0.08185594528913498;0.00855211354792118;0.0073303827084600925
01:00:0A:00:00:00:00;1723507407;13/08/24;00:03:27;1.023;-0.041;0.103;-0.07696902006864548;0.01710422709584236;0.0
01:00:0A:00:00:00:00;1723507408;13/08/24;00:03:28;1.014;-0.029;0.101;-0.07452555745840073;-0.006108652334660292;-0.02687807008624077
01:00:0A:00:00:00:00;1723507409;13/08/24;00:03:29;1.004;-0.037;0.1;-0.09407324343919754;-0.021991148591041565;0.021991148591041565
01:00:0A:00:00:00:00;1723507410;13/08/24;00:03:30;1.003;-0.038;0.106;-0.07208210229873657;0.00855211354792118;-0.028099799528717995
01:00:0A:00:00:00:00;1723507411;13/08/24;00:03:31;1.009;-0.028;0.101;-0.10751228034496307;-0.03298672288656235;0.02321287989616394
01:00:0A:00:00:00:00;1723507412;13/08/24;00:03:32;1.025;-0.044;0.093;-0.08307767659425735;-0.00855211354792118;-0.01710422709584236
01:00:0A:00:00:00:00;1723507413;13/08/24;00:03:33;1.024;-0.016;0.114;-0.08796459436416626;0.006108652334660292;-0.010995574295520782
01:00:0A:00:00:00:00;1723507414;13/08/24;00:03:34;1.012;-0.048;0.09;-0.1062905490398407;-0.028099799528717995;0.03176499158143997
01:00:0A:00:00:00:00;1723507415;13/08/24;00:03:35;0.999;-0.028;0.102;-0.07696902006864548;0.01710422709584236;-0.021991148591041565
01:00:0A:00:00:00:00;1723507416;13/08/24;00:03:36;0.997;-0.022;0.101;-0.11484266817569733;-0.04642575979232788;0.018325956538319588
01:00:0A:00:00:00:00;1723507417;13/08/24;00:03:37;1.005;-0.033;0.09;-0.09040805697441101;0.0024434609804302454;-0.03420845419168472
01:00:0A:00:00:00:00;1723507418;13/08/24;00:03:38;1.009;-0.035;0.114;-0.09896016865968704;-0.03420845419168472;-0.042760565876960754
01:00:0A:00:00:00:00;1723507419;13/08/24;00:03:39;1.019;-0.036;0.09;-0.11362093687057495;-0.02076941914856434;-0.0012217304902151227
01:00:0A:00:00:00:00;1723507420;13/08/24;00:03:40;1.021;-0.051;0.111;-0.1062905490398407;-0.010995574295520782;0.0012217304902151227
01:00:0A:00:00:00:00;1723507421;13/08/24;00:03:41;1.027;-0.024;0.102;-0.10262535512447357;-0.014660765416920185;-0.013439035043120384
01:00:0A:00:00:00:00;1723507422;13/08/24;00:03:42;1.02;-0.034;0.104;-0.11362093687057495;0.012217304669320583;0.02932153083384037
01:00:0A:00:00:00:00;1723507423;13/08/24;00:03:43;1.012;-0.039;0.105;-0.10384709388017654;0.006108652334660292;-0.0024434609804302454
01:00:0A:00:00:00:00;1723507424;13/08/24;00:03:44;0.999;-0.03;0.093;-0.10751228034496307;-0.0024434609804302454;0.006108652334660292
01:00:0A:00:00:00:00;1723507425;13/08/24;00:03:45;0.999;-0.038;0.103;-0.10873401165008545;-0.019547687843441963;-0.0073303827084600925
01:00:0A:00:00:00:00;1723507426;13/08/24;00:03:46;1.0;-0.027;0.096;-0.10995574295520782;-0.02687807008624077;-0.01710422709584236
01:00:0A:00:00:00:00;1723507427;13/08/24;00:03:47;1.006;-0.033;0.099;-0.10995574295520782;-0.010995574295520782;-0.02076941914856434
01:00:0A:00:00:00:00;1723507428;13/08/24;00:03:48;1.014;-0.035;0.103;-0.12095131725072861;-0.042760565876960754;-0.02076941914856434
01:00:0A:00:00:00:00;1723507429;13/08/24;00:03:49;1.019;-0.04;0.104;-0.11850785464048386;0.0;-0.0024434609804302454
01:00:0A:00:00:00:00;1723507430;13/08/24;00:03:50;1.023;-0.044;0.113;-0.11728612333536148;-0.0024434609804302454;-0.0012217304902151227
01:00:0A:00:00:00:00;1723507431;13/08/24;00:03:51;1.018;-0.028;0.098;-0.1258382350206375;-0.0024434609804302454;0.01710422709584236
01:00:0A:00:00:00:00;1723507432;13/08/24;00:03:52;1.016;-0.042;0.101;-0.11484266817569733;0.009773843921720982;0.0073303827084600925
01:00:0A:00:00:00:00;1723507433;13/08/24;00:03:53;1.007;-0.032;0.093;-0.10018189996480942;-0.009773843921720982;-0.00855211354792118
01:00:0A:00:00:00:00;1723507434;13/08/24;00:03:54;1.007;-0.03;0.094;-0.09773843735456467;-0.00855211354792118;0.006108652334660292
01:00:0A:00:00:00:00;1723507435;13/08/24;00:03:55;1.004;-0.026;0.086;-0.08307767659425735;-0.012217304669320583;-0.019547687843441963
01:00:0A:00:00:00:00;1723507436;13/08/24;00:03:56;1.004;-0.027;0.095;-0.08796459436416626;-0.014660765416920185;0.0036651913542300463
01:00:0A:00:00:00:00;1723507437;13/08/24;00:03:57;1.012;-0.033;0.095;-0.0757472887635231;-0.02932153083384037;-0.02932153083384037
01:00:0A:00:00:00:00;1723507438;13/08/24;00:03:58;1.016;-0.026;0.095;-0.07819075137376785;-0.018325956538319588;-0.0036651913542300463
01:00:0A:00:00:00:00;1723507439;13/08/24;00:03:59;1.022;-0.036;0.097;-0.07452555745840073;-0.012217304669320583;-0.004886921960860491
01:00:0A:00:00:00:00;1723507440;13/08/24;00:04:00;1.018;-0.029;0.099;-0.06963863223791122;-0.009773843921720982;-0.0073303827084600925
01:00:0A:00:00:00:00;1723507441;13/08/24;00:04:01;1.007;-0.02;0.091;-0.08674286305904388;-0.09040805697441101;-0.11484266817569733
01:00:0A:00:00:00:00;1723507442;13/08/24;00:04:02;1.01;0.051;0.043;-0.14538592100143433;0.010995574295520782;0.019547687843441963
01:00:0A:00:00:00:00;1723507443;13/08/24;00:04:03;1.012;0.011;0.074;-0.20036379992961884;-0.00855211354792118;0.039095375686883926
01:00:0A:00:00:00:00;1723507444;13/08/24;00:04:04;1.013;-0.031;0.088;-0.20891590416431427;0.02076941914856434;0.02321287989616394
01:00:0A:00:00:00:00;1723507445;13/08/24;00:04:05;1.007;-0.037;0.107;-0.18814648687839508;-0.010995574295520782;-0.03787364438176155
01:00:0A:00:00:00:00;1723507446;13/08/24;00:04:06;1.016;-0.021;0.094;-0.19425514340400696;-0.04764748737215996;-0.03176499158143997
01:00:0A:00:00:00:00;1723507447;13/08/24;00:04:07;1.016;-0.033;0.09;-0.18936821818351746;0.00855211354792118;0.0073303827084600925
01:00:0A:00:00:00:00;1723507448;13/08/24;00:04:08;1.013;-0.043;0.106;-0.17959438264369965;-0.0036651913542300463;-0.0073303827084600925
01:00:0A:00:00:00:00;1723507449;13/08/24;00:04:09;1.013;-0.031;0.097;-0.17348572611808777;-0.021991148591041565;-0.02687807008624077
01:00:0A:00:00:00:00;1723507450;13/08/24;00:04:10;1.009;-0.026;0.094;-0.18448130786418915;-0.006108652334660292;0.019547687843441963
01:00:0A:00:00:00:00;1723507451;13/08/24;00:04:11;1.015;-0.032;0.12;-0.1111774742603302;0.00855211354792118;-0.0036651913542300463
01:00:0A:00:00:00:00;1723507452;13/08/24;00:04:12;1.012;-0.05;0.125;-0.1966986060142517;-0.04398229718208313;-0.03298672288656235
01:00:0A:00:00:00:00;1723507453;13/08/24;00:04:13;1.009;-0.031;0.08;-0.29565879702568054;-0.021991148591041565;-0.0073303827084600925
01:00:0A:00:00:00:00;1723507454;13/08/24;00:04:14;1.014;-0.05;0.101;-0.27611109614372253;0.021991148591041565;-0.0036651913542300463
01:00:0A:00:00:00:00;1723507455;13/08/24;00:04:15;1.014;-0.03;0.11;-0.2565633952617645;-0.014660765416920185;-0.04153883829712868
01:00:0A:00:00:00:00;1723507456;13/08/24;00:04:16;1.012;-0.034;0.095;-0.34086278080940247;-0.021991148591041565;0.03420845419168472
01:00:0A:00:00:00:00;1723507457;13/08/24;00:04:17;1.009;-0.057;0.094;-0.29688048362731934;0.010995574295520782;-0.039095375686883926
01:00:0A:00:00:00:00;1723507458;13/08/24;00:04:18;1.015;-0.058;0.084;-0.5473352670669556;-0.019547687843441963;-0.006108652334660292
01:00:0A:00:00:00:00;1723507459;13/08/24;00:04:19;1.016;-0.041;0.047;-0.6084217429161072;-0.0024434609804302454;-0.024434609338641167
01:00:0A:00:00:00:00;1723507460;13/08/24;00:04:20;1.012;-0.046;0.09;-0.5326744914054871;0.02687807008624077;-0.006108652334660292
01:00:0A:00:00:00:00;1723507461;13/08/24;00:04:21;1.015;-0.025;0.09;-0.4752531349658966;0.02932153083384037;-0.06230825558304787
01:00:0A:00:00:00:00;1723507462;13/08/24;00:04:22;1.012;-0.031;0.118;-0.4789183437824249;0.0012217304902151227;-0.024434609338641167
01:00:0A:00:00:00:00;1723507463;13/08/24;00:04:23;1.016;-0.036;0.085;-0.45692718029022217;-0.02687807008624077;-0.04398229718208313
01:00:0A:00:00:00:00;1723507464;13/08/24;00:04:24;1.011;-0.027;0.095;-0.4349360466003418;0.03176499158143997;-0.014660765416920185
01:00:0A:00:00:00:00;1723507465;13/08/24;00:04:25;1.01;-0.052;0.108;-0.42638394236564636;-0.021991148591041565;-0.015882495790719986
01:00:0A:00:00:00:00;1723507466;13/08/24;00:04:26;1.01;-0.022;0.086;-0.3946189284324646;-0.014660765416920185;-0.05375614017248154
01:00:0A:00:00:00:00;1723507467;13/08/24;00:04:27;1.011;-0.029;0.112;-0.40683624148368835;-0.004886921960860491;0.013439035043120384
01:00:0A:00:00:00:00;1723507468;13/08/24;00:04:28;1.016;-0.048;0.095;-0.3628539443016052;-0.010995574295520782;-0.059864792972803116
01:00:0A:00:00:00:00;1723507469;13/08/24;00:04:29;1.01;-0.022;0.107;-0.46181410551071167;0.03298672288656235;0.015882495790719986
01:00:0A:00:00:00:00;1723507470;13/08/24;00:04:30;1.009;-0.069;0.093;-0.4899139106273651;-0.021991148591041565;-0.025656338781118393
01:00:0A:00:00:00:00;1723507471;13/08/24;00:04:31;1.016;-0.038;0.093;-0.47280970215797424;0.03298672288656235;-0.07819075137376785
01:00:0A:00:00:00:00;1723507472;13/08/24;00:04:32;1.012;-0.038;0.109;-0.4642575681209564;-0.030543262138962746;0.0036651913542300463
01:00:0A:00:00:00:00;1723507473;13/08/24;00:04:33;1.009;-0.04;0.08;-0.4056144952774048;0.0073303827084600925;-0.06230825558304787
01:00:0A:00:00:00:00;1723507474;13/08/24;00:04:34;1.013;-0.021;0.122;-0.4043927788734436;0.019547687843441963;-0.02687807008624077
01:00:0A:00:00:00:00;1723507475;13/08/24;00:04:35;1.016;-0.047;0.096;-0.4092797040939331;-0.04153883829712868;-0.019547687843441963
01:00:0A:00:00:00:00;1723507476;13/08/24;00:04:36;1.016;-0.025;0.081;-0.3628539443016052;0.03787364438176155;-0.03787364438176155
01:00:0A:00:00:00:00;1723507477;13/08/24;00:04:37;1.013;-0.031;0.12;-0.38117989897727966;-0.014660765416920185;0.0036651913542300463
01:00:0A:00:00:00:00;1723507478;13/08/24;00:04:38;1.013;-0.04;0.076;-0.3481931686401367;-0.024434609338641167;-0.05009094998240471
01:00:0A:00:00:00:00;1723507479;13/08/24;00:04:39;1.01;-0.019;0.112;-0.3347541391849518;0.036651913076639175;-0.018325956538319588
01:00:0A:00:00:00:00;1723507480;13/08/24;00:04:40;1.009;-0.05;0.098;-0.34574973583221436;-0.05253440886735916;-0.0073303827084600925
01:00:0A:00:00:00:00;1723507481;13/08/24;00:04:41;1.011;-0.025;0.083;-0.2981022298336029;0.02076941914856434;-0.040317103266716
01:00:0A:00:00:00:00;1723507482;13/08/24;00:04:42;1.009;-0.033;0.12;-0.3176499307155609;-0.014660765416920185;0.00855211354792118
01:00:0A:00:00:00:00;1723507483;13/08/24;00:04:43;1.012;-0.04;0.084;-0.2932153046131134;-0.02321287989616394;-0.0354301817715168
01:00:0A:00:00:00:00;1723507484;13/08/24;00:04:44;1.01;-0.028;0.103;-0.2724458873271942;0.021991148591041565;-0.019547687843441963
01:00:0A:00:00:00:00;1723507485;13/08/24;00:04:45;1.014;-0.038;0.107;-0.2822197377681732;-0.03420845419168472;-0.0073303827084600925
01:00:0A:00:00:00:00;1723507486;13/08/24;00:04:46;1.017;-0.039;0.085;-0.25045475363731384;-0.010995574295520782;-0.03420845419168472
01:00:0A:00:00:00:00;1723507487;13/08/24;00:04:47;1.016;-0.028;0.109;-0.24556782841682434;0.021991148591041565;-0.0024434609804302454
01:00:0A:00:00:00:00;1723507488;13/08/24;00:04:48;1.014;-0.041;0.099;-0.251676470041275;-0.03176499158143997;0.0
01:00:0A:00:00:00:00;1723507489;13/08/24;00:04:49;1.011;-0.024;0.084;-0.2223549485206604;0.010995574295520782;-0.030543262138962746
01:00:0A:00:00:00:00;1723507490;13/08/24;00:04:50;1.01;-0.031;0.114;-0.2382374405860901;-0.015882495790719986;0.006108652334660292
01:00:0A:00:00:00:00;1723507491;13/08/24;00:04:51;1.015;-0.04;0.088;-0.21868975460529327;-0.024434609338641167;-0.03176499158143997
01:00:0A:00:00:00:00;1723507492;13/08/24;00:04:52;1.014;-0.024;0.102;-0.21135938167572021;0.019547687843441963;-0.00855211354792118
01:00:0A:00:00:00:00;1723507493;13/08/24;00:04:53;1.009;-0.038;0.101;-0.21868975460529327;-0.024434609338641167;0.0024434609804302454
01:00:0A:00:00:00:00;1723507494;13/08/24;00:04:54;1.007;-0.031;0.087;-0.19792033731937408;-0.0036651913542300463;-0.02321287989616394
01:00:0A:00:00:00:00;1723507495;13/08/24;00:04:55;1.01;-0.029;0.106;-0.1966986060142517;-0.0073303827084600925;-0.013439035043120384
01:00:0A:00:00:00:00;1723507496;13/08/24;00:04:56;1.016;-0.039;0.099;-0.20036379992961884;-0.025656338781118393;-0.0024434609804302454
01:00:0A:00:00:00:00;1723507497;13/08/24;00:04:57;1.017;-0.035;0.097;-0.1771509200334549;0.0024434609804302454;-0.024434609338641167
01:00:0A:00:00:00:00;1723507498;13/08/24;00:04:58;1.014;-0.026;0.106;-0.18448130786418915;-0.004886921960860491;-0.0024434609804302454
01:00:0A:00:00:00:00;1723507499;13/08/24;00:04:59;1.013;-0.04;0.091;-0.1820378452539444;-0.02076941914856434;-0.0012217304902151227
01:00:0A:00:00:00:00;1723507500;13/08/24;00:05:00;1.016;-0.03;0.099;-0.16004669666290283;-0.0012217304902151227;-0.030543262138962746
01:00:0A:00:00:00:00;1723507501;13/08/24;00:05:01;1.014;-0.031;0.104;-0.17348572611808777;-0.006108652334660292;0.010995574295520782
01:00:0A:00:00:00:00;1723507502;13/08/24;00:05:02;1.013;-0.042;0.091;-0.1576032191514969;-0.006108652334660292;-0.006108652334660292
01:00:0A:00:00:00:00;1723507503;13/08/24;00:05:03;1.004;-0.021;0.095;-0.14905111491680145;0.0073303827084600925;-0.0073303827084600925
01:00:0A:00:00:00:00;1723507504;13/08/24;00:05:04;1.003;-0.034;0.098;-0.1576032191514969;-0.02687807008624077;0.0
01:00:0A:00:00:00:00;1723507505;13/08/24;00:05:05;1.011;-0.034;0.092;-0.13805554807186127;-0.015882495790719986;-0.030543262138962746
01:00:0A:00:00:00:00;1723507506;13/08/24;00:05:06;1.016;-0.034;0.105;-0.14294245839118958;-0.012217304669320583;-0.006108652334660292
01:00:0A:00:00:00:00;1723507507;13/08/24;00:05:07;1.02;-0.037;0.099;-0.14294245839118958;-0.0073303827084600925;0.0024434609804302454
01:00:0A:00:00:00:00;1723507508;13/08/24;00:05:08;1.015;-0.032;0.097;-0.1319468915462494;-0.0036651913542300463;-0.00855211354792118
01:00:0A:00:00:00:00;1723507509;13/08/24;00:05:09;1.015;-0.027;0.102;-0.1319468915462494;-0.0024434609804302454;-0.0073303827084600925
01:00:0A:00:00:00:00;1723507510;13/08/24;00:05:10;1.013;-0.04;0.097;-0.13072516024112701;-0.014660765416920185;-0.0024434609804302454
01:00:0A:00:00:00:00;1723507511;13/08/24;00:05:11;1.011;-0.03;0.094;-0.11972958594560623;-0.0036651913542300463;-0.010995574295520782
01:00:0A:00:00:00:00;1723507512;13/08/24;00:05:12;1.007;-0.033;0.1;-0.1258382350206375;-0.00855211354792118;0.013439035043120384
01:00:0A:00:00:00:00;1723507513;13/08/24;00:05:13;1.008;-0.031;0.097;-0.11484266817569733;-0.018325956538319588;-0.014660765416920185
01:00:0A:00:00:00:00;1723507514;13/08/24;00:05:14;1.012;-0.027;0.097;-0.11239919811487198;-0.004886921960860491;-0.0073303827084600925
01:00:0A:00:00:00:00;1723507515;13/08/24;00:05:15;1.014;-0.038;0.101;-0.10873401165008545;-0.013439035043120384;-0.012217304669320583
01:00:0A:00:00:00:00;1723507516;13/08/24;00:05:16;1.009;-0.044;0.071;-0.10506881773471832;-0.09896016865968704;0.040317103266716
01:00:0A:00:00:00:00;1723507517;13/08/24;00:05:17;1.013;-0.055;0.048;-0.009773843921720982;0.03420845419168472;-0.021991148591041565
01:00:0A:00:00:00:00;1723507518;13/08/24;00:05:18;1.011;-0.039;0.053;0.040317103266716;-0.03298672288656235;-0.006108652334660292
01:00:0A:00:00:00:00;1723507519;13/08/24;00:05:19;1.016;-0.035;0.081;0.07941248267889023;0.07452555745840073;0.0036651913542300463
01:00:0A:00:00:00:00;1723507520;13/08/24;00:05:20;1.009;-0.028;0.136;0.040317103266716;-0.024434609338641167;0.00855211354792118
01:00:0A:00:00:00:00;1723507521;13/08/24;00:05:21;1.014;-0.04;0.068;0.021991148591041565;-0.07819075137376785;0.02076941914856434
01:00:0A:00:00:00:00;1723507522;13/08/24;00:05:22;1.011;-0.031;0.094;0.07208210229873657;0.05497787147760391;-0.006108652334660292
01:00:0A:00:00:00:00;1723507523;13/08/24;00:05:23;1.009;-0.022;0.128;0.03176499158143997;-0.036651913076639175;0.012217304669320583
01:00:0A:00:00:00:00;1723507524;13/08/24;00:05:24;1.015;-0.045;0.075;0.03298672288656235;-0.04153883829712868;0.0073303827084600925
01:00:0A:00:00:00:00;1723507525;13/08/24;00:05:25;1.016;-0.03;0.093;0.06963863223791122;0.040317103266716;-0.014660765416920185
01:00:0A:00:00:00:00;1723507526;13/08/24;00:05:26;1.011;-0.028;0.122;0.028099799528717995;-0.021991148591041565;0.03176499158143997
01:00:0A:00:00:00:00;1723507527;13/08/24;00:05:27;1.012;-0.044;0.077;0.0354301817715168;-0.04886921867728233;0.0036651913542300463
01:00:0A:00:00:00:00;1723507528;13/08/24;00:05:28;1.013;-0.024;0.094;0.0659734457731247;0.045204028487205505;-0.013439035043120384
01:00:0A:00:00:00:00;1723507529;13/08/24;00:05:29;1.01;-0.035;0.121;0.024434609338641167;-0.042760565876960754;0.024434609338641167
01:00:0A:00:00:00:00;1723507530;13/08/24;00:05:30;1.016;-0.042;0.074;0.040317103266716;-0.036651913076639175;-0.004886921960860491
01:00:0A:00:00:00:00;1723507531;13/08/24;00:05:31;1.014;-0.027;0.109;0.05619959905743599;0.036651913076639175;0.0073303827084600925
01:00:0A:00:00:00:00;1723507532;13/08/24;00:05:32;1.012;-0.031;0.112;0.025656338781118393;-0.04398229718208313;0.01710422709584236
01:00:0A:00:00:00:00;1723507533;13/08/24;00:05:33;1.015;-0.037;0.081;0.04398229718208313;-0.00855211354792118;0.0012217304902151227
01:00:0A:00:00:00:00;1723507534;13/08/24;00:05:34;1.01;-0.029;0.108;0.05497787147760391;0.019547687843441963;-0.0073303827084600925
01:00:0A:00:00:00:00;1723507535;13/08/24;00:05:35;1.012;-0.031;0.103;0.025656338781118393;-0.040317103266716;0.025656338781118393
01:00:0A:00:00:00:00;1723507536;13/08/24;00:05:36;1.011;-0.041;0.089;0.04886921867728233;-0.0073303827084600925;0.0
01:00:0A:00:00:00:00;1723507537;13/08/24;00:05:37;1.013;-0.021;0.101;0.051312677562236786;0.0012217304902151227;0.0012217304902151227
01:00:0A:00:00:00:00;1723507538;13/08/24;00:05:38;1.013;-0.037;0.105;0.03298672288656235;-0.02687807008624077;0.02076941914856434
01:00:0A:00:00:00:00;1723507539;13/08/24;00:05:39;1.015;-0.038;0.088;0.05009094998240471;-0.019547687843441963;-0.00855211354792118
01:00:0A:00:00:00:00;1723507540;13/08/24;00:05:40;1.014;-0.027;0.102;0.051312677562236786;0.009773843921720982;0.00855211354792118
01:00:0A:00:00:00:00;1723507541;13/08/24;00:05:41;1.013;-0.038;0.107;0.03420845419168472;-0.03298672288656235;0.02076941914856434
01:00:0A:00:00:00:00;1723507542;13/08/24;00:05:42;1.015;-0.034;0.083;0.05497787147760391;-0.0073303827084600925;-0.006108652334660292
01:00:0A:00:00:00:00;1723507543;13/08/24;00:05:43;1.012;-0.026;0.111;0.051312677562236786;0.00855211354792118;0.006108652334660292
01:00:0A:00:00:00:00;1723507544;13/08/24;00:05:44;1.012;-0.04;0.097;0.0354301817715168;-0.04153883829712868;0.018325956538319588
01:00:0A:00:00:00:00;1723507545;13/08/24;00:05:45;1.012;-0.032;0.091;0.05864306166768074;0.006108652334660292;-0.004886921960860491
01:00:0A:00:00:00:00;1723507546;13/08/24;00:05:46;1.01;-0.027;0.106;0.045204028487205505;-0.009773843921720982;0.015882495790719986
01:00:0A:00:00:00:00;1723507547;13/08/24;00:05:47;1.011;-0.036;0.092;0.042760565876960754;-0.021991148591041565;0.010995574295520782
01:00:0A:00:00:00:00;1723507548;13/08/24;00:05:48;1.012;-0.032;0.098;0.05497787147760391;-0.006108652334660292;-0.004886921960860491
01:00:0A:00:00:00:00;1723507549;13/08/24;00:05:49;1.013;-0.03;0.099;0.045204028487205505;-0.014660765416920185;0.00855211354792118
01:00:0A:00:00:00:00;1723507550;13/08/24;00:05:50;1.015;-0.038;0.099;0.042760565876960754;-0.015882495790719986;0.012217304669320583
01:00:0A:00:00:00:00;1723507551;13/08/24;00:05:51;1.014;-0.031;0.094;0.051312677562236786;-0.012217304669320583;-0.0024434609804302454
01:00:0A:00:00:00:00;1723507552;13/08/24;00:05:52;1.014;-0.029;0.102;0.04642575979232788;-0.0012217304902151227;0.012217304669320583
01:00:0A:00:00:00:00;1723507553;13/08/24;00:05:53;1.012;-0.037;0.099;0.040317103266716;-0.025656338781118393;0.009773843921720982
01:00:0A:00:00:00:00;1723507554;13/08/24;00:05:54;1.012;-0.031;0.091;0.051312677562236786;-0.0012217304902151227;0.0
01:00:0A:00:00:00:00;1723507555;13/08/24;00:05:55;1.01;-0.031;0.104;0.04153883829712868;-0.006108652334660292;0.013439035043120384
01:00:0A:00:00:00:00;1723507556;13/08/24;00:05:56;1.01;-0.037;0.093;0.040317103266716;-0.02321287989616394;0.009773843921720982
01:00:0A:00:00:00:00;1723507557;13/08/24;00:05:57;1.01;-0.028;0.098;0.05009094998240471;-0.0012217304902151227;-0.004886921960860491
01:00:0A:00:00:00:00;1723507558;13/08/24;00:05:58;1.013;-0.03;0.101;0.0354301817715168;-0.024434609338641167;0.014660765416920185
01:00:0A:00:00:00:00;1723507559;13/08/24;00:05:59;1.014;-0.038;0.095;0.04398229718208313;-0.010995574295520782;0.0024434609804302454
01:00:0A:00:00:00:00;1723507560;13/08/24;00:06:00;1.014;-0.027;0.101;0.045204028487205505;-0.00855211354792118;0.0012217304902151227
01:00:0A:00:00:00:00;1723507561;13/08/24;00:06:01;1.012;-0.034;0.098;0.036651913076639175;-0.014660765416920185;0.015882495790719986
01:00:0A:00:00:00:00;1723507562;13/08/24;00:06:02;1.014;-0.033;0.1;0.04153883829712868;-0.012217304669320583;0.0012217304902151227
01:00:0A:00:00:00:00;1723507563;13/08/24;00:06:03;1.015;-0.031;0.096;0.039095375686883926;-0.010995574295520782;0.0073303827084600925
01:00:0A:00:00:00:00;1723507564;13/08/24;00:06:04;1.012;-0.034;0.1;0.039095375686883926;-0.0073303827084600925;0.00855211354792118
01:00:0A:00:00:00:00;1723507565;13/08/24;00:06:05;1.013;-0.035;0.097;0.03787364438176155;-0.014660765416920185;0.009773843921720982
01:00:0A:00:00:00:00;1723507566;13/08/24;00:06:06;1.01;-0.029;0.096;0.04398229718208313;-0.0073303827084600925;0.0012217304902151227
01:00:0A:00:00:00:00;1723507567;13/08/24;00:06:07;1.012;-0.032;0.101;0.0354301817715168;-0.015882495790719986;0.013439035043120384
01:00:0A:00:00:00:00;1723507568;13/08/24;00:06:08;1.013;-0.038;0.093;0.04153883829712868;-0.018325956538319588;0.0
01:00:0A:00:00:00:00;1723507569;13/08/24;00:06:09;1.015;-0.028;0.099;0.045204028487205505;-0.004886921960860491;0.0024434609804302454
01:00:0A:00:00:00:00;1723507570;13/08/24;00:06:10;1.014;-0.036;0.098;0.036651913076639175;-0.02076941914856434;0.012217304669320583
01:00:0A:00:00:00:00;1723507571;13/08/24;00:06:11;1.013;-0.034;0.095;0.04642575979232788;-0.0073303827084600925;0.0012217304902151227
01:00:0A:00:00:00:00;1723507572;13/08/24;00:06:12;1.013;-0.03;0.1;0.04153883829712868;-0.014660765416920185;0.00855211354792118
01:00:0A:00:00:00:00;1723507573;13/08/24;00:06:13;1.014;-0.037;0.094;0.04398229718208313;-0.009773843921720982;0.00855211354792118
01:00:0A:00:00:00:00;1723507574;13/08/24;00:06:14;1.013;-0.03;0.099;0.04764748737215996;-0.010995574295520782;0.0024434609804302454
01:00:0A:00:00:00:00;1723507575;13/08/24;00:06:15;1.011;-0.033;0.093;0.04398229718208313;-0.013439035043120384;0.012217304669320583
01:00:0A:00:00:00:00;1723507576;13/08/24;00:06:16;1.011;-0.034;0.1;0.04764748737215996;-0.009773843921720982;0.004886921960860491
01:00:0A:00:00:00:00;1723507577;13/08/24;00:06:17;1.013;-0.033;0.096;0.04642575979232788;-0.01710422709584236;0.006108652334660292
01:00:0A:00:00:00:00;1723507578;13/08/24;00:06:18;1.013;-0.034;0.098;0.051312677562236786;-0.0073303827084600925;0.0036651913542300463
01:00:0A:00:00:00:00;1723507579;13/08/24;00:06:19;1.014;-0.031;0.099;0.04642575979232788;-0.01710422709584236;0.010995574295520782
01:00:0A:00:00:00:00;1723507580;13/08/24;00:06:20;1.014;-0.037;0.096;0.051312677562236786;-0.009773843921720982;0.006108652334660292
01:00:0A:00:00:00:00;1723507581;13/08/24;00:06:21;1.013;-0.029;0.099;0.051312677562236786;-0.012217304669320583;0.0073303827084600925
01:00:0A:00:00:00:00;1723507582;13/08/24;00:06:22;1.013;-0.038;0.097;0.05009094998240471;-0.013439035043120384;0.012217304669320583
01:00:0A:00:00:00:00;1723507583;13/08/24;00:06:23;1.013;-0.031;0.097;0.05619959905743599;-0.009773843921720982;0.0
01:00:0A:00:00:00:00;1723507584;13/08/24;00:06:24;1.013;-0.032;0.098;0.04886921867728233;-0.013439035043120384;0.015882495790719986
01:00:0A:00:00:00:00;1723507585;13/08/24;00:06:25;1.012;-0.036;0.098;0.05497787147760391;-0.012217304669320583;0.0036651913542300463
01:00:0A:00:00:00:00;1723507586;13/08/24;00:06:26;1.012;-0.03;0.099;0.05375614017248154;-0.009773843921720982;0.0073303827084600925
01:00:0A:00:00:00:00;1723507587;13/08/24;00:06:27;1.013;-0.036;0.097;0.05253440886735916;-0.013439035043120384;0.009773843921720982
01:00:0A:00:00:00:00;1723507588;13/08/24;00:06:28;1.014;-0.031;0.098;0.05619959905743599;-0.010995574295520782;0.0036651913542300463
01:00:0A:00:00:00:00;1723507589;13/08/24;00:06:29;1.013;-0.035;0.097;0.051312677562236786;-0.015882495790719986;0.013439035043120384
01:00:0A:00:00:00:00;1723507590;13/08/24;00:06:30;1.013;-0.032;0.098;0.05742133408784866;-0.010995574295520782;0.0024434609804302454
01:00:0A:00:00:00:00;1723507591;13/08/24;00:06:31;1.013;-0.032;0.1;0.05253440886735916;-0.012217304669320583;0.012217304669320583
01:00:0A:00:00:00:00;1723507592;13/08/24;00:06:32;1.013;-0.035;0.097;0.05742133408784866;-0.012217304669320583;0.0012217304902151227
01:00:0A:00:00:00:00;1723507593;13/08/24;00:06:33;1.013;-0.03;0.097;0.05375614017248154;-0.012217304669320583;0.009773843921720982
01:00:0A:00:00:00:00;1723507594;13/08/24;00:06:34;1.012;-0.037;0.099;0.05253440886735916;-0.014660765416920185;0.010995574295520782
01:00:0A:00:00:00:00;1723507595;13/08/24;00:06:35;1.014;-0.029;0.099;0.05619959905743599;-0.012217304669320583;0.0
01:00:0A:00:00:00:00;1723507596;13/08/24;00:06:36;1.012;-0.034;0.098;0.051312677562236786;-0.010995574295520782;0.014660765416920185
01:00:0A:00:00:00:00;1723507597;13/08/24;00:06:37;1.013;-0.033;0.099;0.05619959905743599;-0.013439035043120384;0.0
01:00:0A:00:00:00:00;1723507598;13/08/24;00:06:38;1.014;-0.031;0.095;0.051312677562236786;-0.012217304669320583;0.013439035043120384
01:00:0A:00:00:00:00;1723507599;13/08/24;00:06:39;1.013;-0.036;0.101;0.05375614017248154;-0.012217304669320583;0.006108652334660292
01:00:0A:00:00:00:00;1723507600;13/08/24;00:06:40;1.012;-0.03;0.097;0.05253440886735916;-0.015882495790719986;0.004886921960860491
01:00:0A:00:00:00:00;1723507601;13/08/24;00:06:41;1.012;-0.035;0.1;0.05253440886735916;-0.0073303827084600925;0.00855211354792118
01:00:0A:00:00:00:00;1723507602;13/08/24;00:06:42;1.013;-0.031;0.096;0.051312677562236786;-0.018325956538319588;0.0036651913542300463
01:00:0A:00:00:00:00;1723507603;13/08/24;00:06:43;1.012;-0.035;0.099;0.051312677562236786;-0.006108652334660292;0.013439035043120384
01:00:0A:00:00:00:00;1723507604;13/08/24;00:06:44;1.014;-0.032;0.1;0.05009094998240471;-0.019547687843441963;0.0036651913542300463
01:00:0A:00:00:00:00;1723507605;13/08/24;00:06:45;1.013;-0.031;0.095;0.05009094998240471;-0.0073303827084600925;0.0073303827084600925
01:00:0A:00:00:00:00;1723507606;13/08/24;00:06:46;1.013;-0.037;0.102;0.04886921867728233;-0.013439035043120384;0.0073303827084600925
01:00:0A:00:00:00:00;1723507607;13/08/24;00:06:47;1.013;-0.031;0.095;0.04886921867728233;-0.013439035043120384;0.0036651913542300463
01:00:0A:00:00:00:00;1723507608;13/08/24;00:06:48;1.014;-0.034;0.102;0.04642575979232788;-0.0073303827084600925;0.013439035043120384
01:00:0A:00:00:00:00;1723507609;13/08/24;00:06:49;1.012;-0.032;0.096;0.04642575979232788;-0.019547687843441963;0.0024434609804302454
01:00:0A:00:00:00:00;1723507610;13/08/24;00:06:50;1.013;-0.031;0.099;0.045204028487205505;-0.0073303827084600925;0.00855211354792118
01:00:0A:00:00:00:00;1723507611;13/08/24;00:06:51;1.013;-0.035;0.101;0.04398229718208313;-0.014660765416920185;0.0036651913542300463
01:00:0A:00:00:00:00;1723507612;13/08/24;00:06:52;1.015;-0.031;0.096;0.042760565876960754;-0.009773843921720982;0.0073303827084600925
01:00:0A:00:00:00:00;1723507613;13/08/24;00:06:53;1.013;-0.035;0.103;0.040317103266716;-0.009773843921720982;0.00855211354792118
01:00:0A:00:00:00:00;1723507614;13/08/24;00:06:54;1.013;-0.03;0.096;0.039095375686883926;-0.01710422709584236;0.0036651913542300463
01:00:0A:00:00:00:00;1723507615;13/08/24;00:06:55;1.011;-0.033;0.1;0.039095375686883926;-0.006108652334660292;0.0073303827084600925
01:00:0A:00:00:00:00;1723507616;13/08/24;00:06:56;1.014;-0.033;0.099;0.036651913076639175;-0.01710422709584236;0.0024434609804302454
01:00:0A:00:00:00:00;1723507617;13/08/24;00:06:57;1.013;-0.032;0.098;0.036651913076639175;-0.0073303827084600925;0.00855211354792118
01:00:0A:00:00:00:00;1723507618;13/08/24;00:06:58;1.014;-0.034;0.102;0.03420845419168472;-0.014660765416920185;0.006108652334660292
01:00:0A:00:00:00:00;1723507619;13/08/24;00:06:59;1.012;-0.031;0.095;0.03420845419168472;-0.013439035043120384;0.0073303827084600925
01:00:0A:00:00:00:00;1723507620;13/08/24;00:07:00;1.013;-0.033;0.101;0.03420845419168472;-0.00855211354792118;0.0036651913542300463
01:00:0A:00:00:00:00;1723507621;13/08/24;00:07:01;1.014;-0.032;0.095;0.03176499158143997;-0.015882495790719986;0.004886921960860491
01:00:0A:00:00:00:00;1723507622;13/08/24;00:07:02;1.013;-0.033;0.099;0.03298672288656235;-0.006108652334660292;0.006108652334660292
01:00:0A:00:00:00:00;1723507623;13/08/24;00:07:03;1.013;-0.033;0.099;0.02932153083384037;-0.015882495790719986;0.0073303827084600925
01:00:0A:00:00:00:00;1723507624;13/08/24;00:07:04;1.011;-0.032;0.095;0.03298672288656235;-0.00855211354792118;0.004886921960860491
01:00:0A:00:00:00:00;1723507625;13/08/24;00:07:05;1.012;-0.032;0.101;0.030543262138962746;-0.013439035043120384;0.0036651913542300463
01:00:0A:00:00:00:00;1723507626;13/08/24;00:07:06;1.014;-0.034;0.095;0.030543262138962746;-0.012217304669320583;0.004886921960860491
01:00:0A:00:00:00:00;1723507627;13/08/24;00:07:07;1.013;-0.032;0.1;0.030543262138962746;-0.00855211354792118;0.0073303827084600925
01:00:0A:00:00:00:00;1723507628;13/08/24;00:07:08;1.013;-0.033;0.097;0.028099799528717995;-0.015882495790719986;0.0073303827084600925
01:00:0A:00:00:00:00;1723507629;13/08/24;00:07:09;1.014;-0.031;0.097;0.030543262138962746;-0.006108652334660292;0.0036651913542300463
01:00:0A:00:00:00:00;1723507630;13/08/24;00:07:10;1.012;-0.033;0.1;0.028099799528717995;-0.015882495790719986;0.004886921960860491
01:00:0A:00:00:00:00;1723507631;13/08/24;00:07:11;1.014;-0.033;0.096;0.02932153083384037;-0.009773843921720982;0.0036651913542300463
01:00:0A:00:00:00:00;1723507632;13/08/24;00:07:12;1.013;-0.034;0.101;0.028099799528717995;-0.010995574295520782;0.0073303827084600925
01:00:0A:00:00:00:00;1723507633;13/08/24;00:07:13;1.012;-0.031;0.096;0.028099799528717995;-0.013439035043120384;0.004886921960860491
01:00:0A:00:00:00:00;1723507634;13/08/24;00:07:14;1.012;-0.032;0.1;0.028099799528717995;-0.009773843921720982;0.006108652334660292
01:00:0A:00:00:00:00;1723507635;13/08/24;00:07:15;1.013;-0.032;0.098;0.02687807008624077;-0.01710422709584236;0.0024434609804302454
01:00:0A:00:00:00:00;1723507636;13/08/24;00:07:16;1.013;-0.034;0.097;0.02687807008624077;-0.00855211354792118;0.0073303827084600925
01:00:0A:00:00:00:00;1723507637;13/08/24;00:07:17;1.014;-0.032;0.1;0.025656338781118393;-0.013439035043120384;0.004886921960860491
01:00:0A:00:00:00:00;1723507638;13/08/24;00:07:18;1.012;-0.032;0.097;0.025656338781118393;-0.009773843921720982;0.0073303827084600925
01:00:0A:00:00:00:00;1723507639;13/08/24;00:07:19;1.013;-0.031;0.1;0.02687807008624077;-0.012217304669320583;0.0024434609804302454
01:00:0A:00:00:00:00;1723507640;13/08/24;00:07:20;1.014;-0.033;0.097;0.024434609338641167;-0.013439035043120384;0.0073303827084600925
01:00:0A:00:00:00:00;1723507641;13/08/24;00:07:21;1.013;-0.033;0.099;0.025656338781118393;-0.00855211354792118;0.0036651913542300463
01:00:0A:00:00:00:00;1723507642;13/08/24;00:07:22;1.012;-0.039;0.108;0.03298672288656235;0.039095375686883926;0.04642575979232788
01:00:0A:00:00:00:00;1723507643;13/08/24;00:07:23;1.008;-0.049;0.123;0.07696902006864548;-0.042760565876960754;0.0
01:00:0A:00:00:00:00;1723507644;13/08/24;00:07:24;1.012;-0.044;0.091;-0.07696902006864548;-0.039095375686883926;-0.03176499158143997
01:00:0A:00:00:00:00;1723507645;13/08/24;00:07:25;1.013;-0.012;0.092;-0.06108652427792549;0.015882495790719986;-0.010995574295520782
01:00:0A:00:00:00:00;1723507646;13/08/24;00:07:26;1.012;-0.043;0.112;-0.08307767659425735;-0.019547687843441963;0.03176499158143997
01:00:0A:00:00:00:00;1723507647;13/08/24;00:07:27;1.013;-0.04;0.086;-0.051312677562236786;-0.028099799528717995;-0.03420845419168472
01:00:0A:00:00:00:00;1723507648;13/08/24;00:07:28;1.013;-0.015;0.101;-0.05253440886735916;0.01710422709584236;0.0024434609804302454
01:00:0A:00:00:00:00;1723507649;13/08/24;00:07:29;1.013;-0.046;0.106;-0.06963863223791122;-0.030543262138962746;0.021991148591041565
01:00:0A:00:00:00:00;1723507650;13/08/24;00:07:30;1.015;-0.036;0.086;-0.036651913076639175;-0.012217304669320583;-0.03176499158143997
01:00:0A:00:00:00:00;1723507651;13/08/24;00:07:31;1.014;-0.019;0.105;-0.05009094998240471;0.006108652334660292;0.015882495790719986
01:00:0A:00:00:00:00;1723507652;13/08/24;00:07:32;1.01;-0.044;0.098;-0.05497787147760391;-0.028099799528717995;0.014660765416920185
01:00:0A:00:00:00:00;1723507653;13/08/24;00:07:33;1.013;-0.03;0.09;-0.025656338781118393;-0.0012217304902151227;-0.02687807008624077
01:00:0A:00:00:00:00;1723507654;13/08/24;00:07:34;1.011;-0.022;0.105;-0.04398229718208313;-0.006108652334660292;0.01710422709584236
01:00:0A:00:00:00:00;1723507655;13/08/24;00:07:35;1.012;-0.045;0.097;-0.040317103266716;-0.02321287989616394;0.006108652334660292
01:00:0A:00:00:00:00;1723507656;13/08/24;00:07:36;1.013;-0.027;0.093;-0.018325956538319588;-0.0024434609804302454;-0.024434609338641167
01:00:0A:00:00:00:00;1723507657;13/08/24;00:07:37;1.012;-0.025;0.103;-0.03787364438176155;-0.006108652334660292;0.02321287989616394
01:00:0A:00:00:00:00;1723507658;13/08/24;00:07:38;1.014;-0.045;0.094;-0.028099799528717995;-0.02321287989616394;-0.0024434609804302454
01:00:0A:00:00:00:00;1723507659;13/08/24;00:07:39;1.014;-0.024;0.094;-0.013439035043120384;-0.0012217304902151227;-0.015882495790719986
01:00:0A:00:00:00:00;1723507660;13/08/24;00:07:40;1.012;-0.032;0.105;-0.03176499158143997;-0.009773843921720982;0.02321287989616394
01:00:0A:00:00:00:00;1723507661;13/08/24;00:07:41;1.013;-0.041;0.093;-0.018325956538319588;-0.02321287989616394;-0.006108652334660292
01:00:0A:00:00:00:00;1723507662;13/08/24;00:07:42;1.013;-0.024;0.098;-0.009773843921720982;0.004886921960860491;-0.0036651913542300463
01:00:0A:00:00:00:00;1723507663;13/08/24;00:07:43;1.012;-0.034;0.104;-0.025656338781118393;-0.019547687843441963;0.01710422709584236
01:00:0A:00:00:00:00;1723507664;13/08/24;00:07:44;1.013;-0.038;0.09;-0.00855211354792118;-0.014660765416920185;-0.00855211354792118
01:00:0A:00:00:00:00;1723507665;13/08/24;00:07:45;1.014;-0.025;0.102;-0.006108652334660292;0.0024434609804302454;0.0
01:00:0A:00:00:00:00;1723507666;13/08/24;00:07:46;1.013;-0.035;0.099;-0.01710422709584236;-0.02076941914856434;0.015882495790719986
01:00:0A:00:00:00:00;1723507667;13/08/24;00:07:47;1.012;-0.036;0.094;-0.0012217304902151227;-0.00855211354792118;-0.006108652334660292
01:00:0A:00:00:00:00;1723507668;13/08/24;00:07:48;1.013;-0.027;0.099;-0.0024434609804302454;-0.0073303827084600925;0.0
01:00:0A:00:00:00:00;1723507669;13/08/24;00:07:49;1.013;-0.035;0.099;-0.010995574295520782;-0.01710422709584236;0.014660765416920185
01:00:0A:00:00:00:00;1723507670;13/08/24;00:07:50;1.012;-0.036;0.094;0.0024434609804302454;-0.010995574295520782;-0.0073303827084600925
01:00:0A:00:00:00:00;1723507671;13/08/24;00:07:51;1.013;-0.026;0.099;0.0;-0.004886921960860491;0.004886921960860491
01:00:0A:00:00:00:00;1723507672;13/08/24;00:07:52;1.013;-0.038;0.099;-0.006108652334660292;-0.019547687843441963;0.013439035043120384
01:00:0A:00:00:00:00;1723507673;13/08/24;00:07:53;1.014;-0.031;0.092;0.00855211354792118;-0.009773843921720982;-0.010995574295520782
01:00:0A:00:00:00:00;1723507674;13/08/24;00:07:54;1.014;-0.028;0.101;0.0;-0.006108652334660292;0.012217304669320583
01:00:0A:00:00:00:00;1723507675;13/08/24;00:07:55;1.014;-0.038;0.098;0.0;-0.018325956538319588;0.006108652334660292
01:00:0A:00:00:00:00;1723507676;13/08/24;00:07:56;1.013;-0.031;0.094;0.00855211354792118;-0.0073303827084600925;-0.0024434609804302454
01:00:0A:00:00:00:00;1723507677;13/08/24;00:07:57;1.012;-0.031;0.102;0.0024434609804302454;-0.00855211354792118;0.00855211354792118
01:00:0A:00:00:00:00;1723507678;13/08/24;00:07:58;1.013;-0.036;0.095;0.0024434609804302454;-0.019547687843441963;0.0036651913542300463
01:00:0A:00:00:00:00;1723507679;13/08/24;00:07:59;1.013;-0.032;0.097;0.010995574295520782;-0.004886921960860491;-0.0012217304902151227
01:00:0A:00:00:00:00;1723507680;13/08/24;00:08:00;1.012;-0.029;0.1;0.0036651913542300463;-0.013439035043120384;0.00855211354792118
01:00:0A:00:00:00:00;1723507681;13/08/24;00:08:01;1.014;-0.036;0.094;0.006108652334660292;-0.013439035043120384;0.006108652334660292
01:00:0A:00:00:00:00;1723507682;13/08/24;00:08:02;1.012;-0.031;0.097;0.010995574295520782;-0.009773843921720982;-0.0036651913542300463
01:00:0A:00:00:00:00;1723507683;13/08/24;00:08:03;1.013;-0.03;0.098;0.0036651913542300463;-0.012217304669320583;0.010995574295520782
01:00:0A:00:00:00:00;1723507684;13/08/24;00:08:04;1.013;-0.037;0.098;0.0073303827084600925;-0.013439035043120384;0.004886921960860491
01:00:0A:00:00:00:00;1723507685;13/08/24;00:08:05;1.014;-0.028;0.096;0.010995574295520782;-0.00855211354792118;-0.0012217304902151227
01:00:0A:00:00:00:00;1723507686;13/08/24;00:08:06;1.013;-0.032;0.1;0.004886921960860491;-0.009773843921720982;0.010995574295520782
01:00:0A:00:00:00:00;1723507687;13/08/24;00:08:07;1.013;-0.035;0.095;0.00855211354792118;-0.015882495790719986;-0.0012217304902151227
01:00:0A:00:00:00:00;1723507688;13/08/24;00:08:08;1.013;-0.028;0.098;0.009773843921720982;-0.006108652334660292;0.0036651913542300463
01:00:0A:00:00:00:00;1723507689;13/08/24;00:08:09;1.013;-0.034;0.101;0.004886921960860491;-0.014660765416920185;0.0073303827084600925
01:00:0A:00:00:00:00;1723507690;13/08/24;00:08:10;1.013;-0.032;0.095;0.00855211354792118;-0.010995574295520782;0.0
01:00:0A:00:00:00:00;1723507691;13/08/24;00:08:11;1.013;-0.032;0.099;0.00855211354792118;-0.00855211354792118;0.004886921960860491
01:00:0A:00:00:00:00;1723507692;13/08/24;00:08:12;1.013;-0.032;0.097;0.006108652334660292;-0.015882495790719986;0.004886921960860491
01:00:0A:00:00:00:00;1723507693;13/08/24;00:08:13;1.014;-0.034;0.098;0.00855211354792118;-0.009773843921720982;0.004886921960860491
01:00:0A:00:00:00:00;1723507694;13/08/24;00:08:14;1.013;-0.031;0.099;0.00855211354792118;-0.010995574295520782;0.0012217304902151227
01:00:0A:00:00:00:00;1723507695;13/08/24;00:08:15;1.013;-0.031;0.097;0.006108652334660292;-0.010995574295520782;0.00855211354792118
01:00:0A:00:00:00:00;1723507696;13/08/24;00:08:16;1.014;-0.035;0.097;0.010995574295520782;-0.012217304669320583;0.0
01:00:0A:00:00:00:00;1723507697;13/08/24;00:08:17;1.012;-0.027;0.097;0.00855211354792118;-0.010995574295520782;0.004886921960860491
01:00:0A:00:00:00:00;1723507698;13/08/24;00:08:18;1.013;-0.035;0.099;0.0073303827084600925;-0.012217304669320583;0.0073303827084600925
01:00:0A:00:00:00:00;1723507699;13/08/24;00:08:19;1.013;-0.031;0.097;0.012217304669320583;-0.012217304669320583;-0.0012217304902151227
01:00:0A:00:00:00:00;1723507700;13/08/24;00:08:20;1.014;-0.032;0.099;0.009773843921720982;-0.00855211354792118;0.00855211354792118
01:00:0A:00:00:00:00;1723507701;13/08/24;00:08:21;1.013;-0.036;0.097;0.010995574295520782;-0.014660765416920185;0.0024434609804302454
01:00:0A:00:00:00:00;1723507702;13/08/24;00:08:22;1.014;-0.032;0.095;0.012217304669320583;-0.009773843921720982;0.004886921960860491
01:00:0A:00:00:00:00;1723507703;13/08/24;00:08:23;1.014;-0.033;0.1;0.012217304669320583;-0.012217304669320583;0.004886921960860491
01:00:0A:00:00:00:00;1723507704;13/08/24;00:08:24;1.013;-0.032;0.096;0.012217304669320583;-0.013439035043120384;0.0036651913542300463
01:00:0A:00:00:00:00;1723507705;13/08/24;00:08:25;1.013;-0.032;0.098;0.014660765416920185;-0.0073303827084600925;0.0036651913542300463
01:00:0A:00:00:00:00;1723507706;13/08/24;00:08:26;1.013;-0.032;0.097;0.013439035043120384;-0.014660765416920185;0.004886921960860491
01:00:0A:00:00:00:00;1723507707;13/08/24;00:08:27;1.013;-0.033;0.098;0.014660765416920185;-0.009773843921720982;0.0073303827084600925
01:00:0A:00:00:00:00;1723507708;13/08/24;00:08:28;1.013;-0.034;0.099;0.01710422709584236;-0.013439035043120384;0.0012217304902151227
01:00:0A:00:00:00:00;1723507709;13/08/24;00:08:29;1.013;-0.03;0.096;0.01710422709584236;-0.009773843921720982;0.004886921960860491
01:00:0A:00:00:00:00;1723507710;13/08/24;00:08:30;1.013;-0.036;0.099;0.01710422709584236;-0.012217304669320583;0.006108652334660292
01:00:0A:00:00:00:00;1723507711;13/08/24;00:08:31;1.014;-0.031;0.096;0.019547687843441963;-0.013439035043120384;0.0012217304902151227
01:00:0A:00:00:00:00;1723507712;13/08/24;00:08:32;1.013;-0.034;0.098;0.01710422709584236;-0.009773843921720982;0.009773843921720982
01:00:0A:00:00:00:00;1723507713;13/08/24;00:08:33;1.013;-0.034;0.099;0.02076941914856434;-0.014660765416920185;0.0012217304902151227
01:00:0A:00:00:00:00;1723507714;13/08/24;00:08:34;1.013;-0.031;0.098;0.02076941914856434;-0.00855211354792118;0.0073303827084600925
01:00:0A:00:00:00:00;1723507715;13/08/24;00:08:35;1.013;-0.035;0.1;0.02076941914856434;-0.013439035043120384;0.004886921960860491
01:00:0A:00:00:00:00;1723507716;13/08/24;00:08:36;1.013;-0.033;0.096;0.02076941914856434;-0.012217304669320583;0.006108652334660292
01:00:0A:00:00:00:00;1723507717;13/08/24;00:08:37;1.013;-0.034;0.1;0.021991148591041565;-0.010995574295520782;0.006108652334660292
01:00:0A:00:00:00:00;1723507718;13/08/24;00:08:38;1.012;-0.032;0.098;0.021991148591041565;-0.014660765416920185;0.0036651913542300463
01:00:0A:00:00:00:00;1723507719;13/08/24;00:08:39;1.014;-0.034;0.097;0.02321287989616394;-0.00855211354792118;0.0073303827084600925
01:00:0A:00:00:00:00;1723507720;13/08/24;00:08:40;1.013;-0.032;0.098;0.024434609338641167;-0.014660765416920185;0.0024434609804302454
01:00:0A:00:00:00:00;1723507721;13/08/24;00:08:41;1.012;-0.032;0.096;0.02321287989616394;-0.009773843921720982;0.00855211354792118
01:00:0A:00:00:00:00;1723507722;13/08/24;00:08:42;1.012;-0.033;0.1;0.025656338781118393;-0.013439035043120384;0.0036651913542300463
01:00:0A:00:00:00:00;1723507723;13/08/24;00:08:43;1.013;-0.03;0.097;0.025656338781118393;-0.012217304669320583;0.004886921960860491
01:00:0A:00:00:00:00;1723507724;13/08/24;00:08:44;1.013;-0.034;0.099;0.025656338781118393;-0.00855211354792118;0.006108652334660292
01:00:0A:00:00:00:00;1723507725;13/08/24;00:08:45;1.013;-0.032;0.097;0.02687807008624077;-0.014660765416920185;0.0036651913542300463
01:00:0A:00:00:00:00;1723507726;13/08/24;00:08:46;1.013;-0.033;0.097;0.02687807008624077;-0.00855211354792118;0.006108652334660292
01:00:0A:00:00:00:00;1723507727;13/08/24;00:08:47;1.013;-0.033;0.099;0.02687807008624077;-0.014660765416920185;0.004886921960860491
01:00:0A:00:00:00:00;1723507728;13/08/24;00:08:48;1.013;-0.032;0.095;0.028099799528717995;-0.009773843921720982;0.004886921960860491
01:00:0A:00:00:00:00;1723507729;13/08/24;00:08:49;1.013;-0.032;0.1;0.02687807008624077;-0.010995574295520782;0.006108652334660292
01:00:0A:00:00:00:00;1723507730;13/08/24;00:08:50;1.012;-0.032;0.096;0.028099799528717995;-0.013439035043120384;0.004886921960860491
01:00:0A:00:00:00:00;1723507731;13/08/24;00:08:51;1.013;-0.031;0.099;0.02932153083384037;-0.009773843921720982;0.006108652334660292
01:00:0A:00:00:00:00;1723507732;13/08/24;00:08:52;1.014;-0.033;0.098;0.028099799528717995;-0.014660765416920185;0.0036651913542300463
01:00:0A:00:00:00:00;1723507733;13/08/24;00:08:53;1.013;-0.033;0.098;0.02932153083384037;-0.00855211354792118;0.0073303827084600925
01:00:0A:00:00:00:00;1723507734;13/08/24;00:08:54;1.014;-0.032;0.099;0.02932153083384037;-0.013439035043120384;0.0036651913542300463
01:00:0A:00:00:00:00;1723507735;13/08/24;00:08:55;1.012;-0.031;0.097;0.02932153083384037;-0.010995574295520782;0.006108652334660292
01:00:0A:00:00:00:00;1723507736;13/08/24;00:08:56;1.013;-0.033;0.1;0.02932153083384037;-0.010995574295520782;0.006108652334660292
01:00:0A:00:00:00:00;1723507737;13/08/24;00:08:57;1.014;-0.031;0.096;0.02932153083384037;-0.013439035043120384;0.004886921960860491
01:00:0A:00:00:00:00;1723507738;13/08/24;00:08:58;1.013;-0.033;0.097;0.02932153083384037;-0.00855211354792118;0.0073303827084600925
01:00:0A:00:00:00:00;1723507739;13/08/24;00:08:59;1.013;-0.033;0.098;0.02932153083384037;-0.014660765416920185;0.004886921960860491
01:00:0A:00:00:00:00;1723507740;13/08/24;00:09:00;1.013;-0.032;0.097;0.030543262138962746;-0.010995574295520782;0.006108652334660292
01:00:0A:00:00:00:00;1723507741;13/08/24;00:09:01;1.013;-0.032;0.098;0.02932153083384037;-0.013439035043120384;0.004886921960860491
01:00:0A:00:00:00:00;1723507742;13/08/24;00:09:02;1.013;-0.032;0.096;0.030543262138962746;-0.010995574295520782;0.006108652334660292
01:00:0A:00:00:00:00;1723507743;13/08/24;00:09:03;1.014;-0.032;0.099;0.030543262138962746;-0.010995574295520782;0.004886921960860491
01:00:0A:00:00:00:00;1723507744;13/08/24;00:09:04;1.014;-0.033;0.097;0.02932153083384037;-0.014660765416920185;0.006108652334660292
01:00:0A:00:00:00:00;1723507745;13/08/24;00:09:05;1.013;-0.033;0.098;0.03176499158143997;-0.009773843921720982;0.004886921960860491
01:00:0A:00:00:00:00;1723507746;13/08/24;00:09:06;1.014;-0.032;0.098;0.02932153083384037;-0.014660765416920185;0.0073303827084600925
01:00:0A:00:00:00:00;1723507747;13/08/24;00:09:07;1.013;-0.031;0.096;0.03176499158143997;-0.009773843921720982;0.004886921960860491
01:00:0A:00:00:00:00;1723507748;13/08/24;00:09:08;1.013;-0.033;0.1;0.030543262138962746;-0.012217304669320583;0.006108652334660292
01:00:0A:00:00:00:00;1723507749;13/08/24;00:09:09;1.013;-0.033;0.096;0.030543262138962746;-0.013439035043120384;0.004886921960860491
01:00:0A:00:00:00:00;1723507750;13/08/24;00:09:10;1.012;-0.032;0.099;0.030543262138962746;-0.010995574295520782;0.006108652334660292
01:00:0A:00:00:00:00;1723507750;13/08/24;00:09:10;1.014;-0.033;0.098;0.030543262138962746;-0.013439035043120384;0.006108652334660292
01:00:0A:00:00:00:00;1723507751;13/08/24;00:09:11;1.013;-0.032;0.098;0.03176499158143997;-0.009773843921720982;0.004886921960860491
01:00:0A:00:00:00:00;1723507752;13/08/24;00:09:12;1.014;-0.033;0.099;0.02932153083384037;-0.013439035043120384;0.006108652334660292
01:00:0A:00:00:00:00;1723507753;13/08/24;00:09:13;1.014;-0.032;0.096;0.030543262138962746;-0.010995574295520782;0.004886921960860491
01:00:0A:00:00:00:00;1723507754;13/08/24;00:09:14;1.013;-0.032;0.099;0.030543262138962746;-0.012217304669320583;0.006108652334660292
01:00:0A:00:00:00:00;1723507755;13/08/24;00:09:15;1.013;-0.033;0.097;0.030543262138962746;-0.012217304669320583;0.006108652334660292
01:00:0A:00:00:00:00;1723507756;13/08/24;00:09:16;1.013;-0.033;0.098;0.03176499158143997;-0.009773843921720982;0.004886921960860491
01:00:0A:00:00:00:00;1723507757;13/08/24;00:09:17;1.013;-0.032;0.098;0.02932153083384037;-0.014660765416920185;0.006108652334660292
01:00:0A:00:00:00:00;1723507758;13/08/24;00:09:18;1.013;-0.033;0.097;0.030543262138962746;-0.009773843921720982;0.006108652334660292
01:00:0A:00:00:00:00;1723507759;13/08/24;00:09:19;1.012;-0.032;0.099;0.030543262138962746;-0.013439035043120384;0.004886921960860491
01:00:0A:00:00:00:00;1723507760;13/08/24;00:09:20;1.014;-0.033;0.099;0.030543262138962746;-0.010995574295520782;0.006108652334660292
01:00:0A:00:00:00:00;1723507761;13/08/24;00:09:21;1.013;-0.032;0.099;0.030543262138962746;-0.012217304669320583;0.004886921960860491
01:00:0A:00:00:00:00;1723507762;13/08/24;00:09:22;1.013;-0.034;0.097;0.02932153083384037;-0.013439035043120384;0.0073303827084600925
01:00:0A:00:00:00:00;1723507763;13/08/24;00:09:23;1.013;-0.032;0.098;0.03176499158143997;-0.009773843921720982;0.004886921960860491
01:00:0A:00:00:00:00;1723507764;13/08/24;00:09:24;1.013;-0.032;0.098;0.02932153083384037;-0.013439035043120384;0.0073303827084600925
01:00:0A:00:00:00:00;1723507765;13/08/24;00:09:25;1.013;-0.034;0.098;0.03176499158143997;-0.010995574295520782;0.0036651913542300463
01:00:0A:00:00:00:00;1723507766;13/08/24;00:09:26;1.013;-0.032;0.099;0.030543262138962746;-0.012217304669320583;0.0073303827084600925
01:00:0A:00:00:00:00;1723507767;13/08/24;00:09:27;1.014;-0.034;0.098;0.030543262138962746;-0.012217304669320583;0.004886921960860491
01:00:0A:00:00:00:00;1723507768;13/08/24;00:09:28;1.012;-0.032;0.099;0.03176499158143997;-0.010995574295520782;0.004886921960860491
01:00:0A:00:00:00:00;1723507769;13/08/24;00:09:29;1.013;-0.033;0.098;0.030543262138962746;-0.013439035043120384;0.006108652334660292
01:00:0A:00:00:00:00;1723507770;13/08/24;00:09:30;1.012;-0.031;0.098;0.03176499158143997;-0.010995574295520782;0.004886921960860491
01:00:0A:00:00:00:00;1723507771;13/08/24;00:09:31;1.013;-0.032;0.099;0.030543262138962746;-0.013439035043120384;0.0073303827084600925
01:00:0A:00:00:00:00;1723507772;13/08/24;00:09:32;1.013;-0.033;0.097;0.03176499158143997;-0.010995574295520782;0.004886921960860491
01:00:0A:00:00:00:00;1723507773;13/08/24;00:09:33;1.014;-0.032;0.1;0.030543262138962746;-0.012217304669320583;0.006108652334660292
01:00:0A:00:00:00:00;1723507774;13/08/24;00:09:34;1.013;-0.032;0.097;0.030543262138962746;-0.012217304669320583;0.006108652334660292
01:00:0A:00:00:00:00;1723507775;13/08/24;00:09:35;1.013;-0.034;0.098;0.030543262138962746;-0.010995574295520782;0.004886921960860491
01:00:0A:00:00:00:00;1723507776;13/08/24;00:09:36;1.013;-0.033;0.098;0.030543262138962746;-0.013439035043120384;0.0073303827084600925
01:00:0A:00:00:00:00;1723507777;13/08/24;00:09:37;1.012;-0.033;0.098;0.03176499158143997;-0.010995574295520782;0.004886921960860491
01:00:0A:00:00:00:00;1723507778;13/08/24;00:09:38;1.013;-0.032;0.1;0.02932153083384037;-0.013439035043120384;0.006108652334660292
01:00:0A:00:00:00:00;1723507779;13/08/24;00:09:39;1.013;-0.034;0.097;0.030543262138962746;-0.010995574295520782;0.004886921960860491
01:00:0A:00:00:00:00;1723507780;13/08/24;00:09:40;1.012;-0.032;0.099;0.02932153083384037;-0.012217304669320583;0.004886921960860491
01:00:0A:00:00:00:00;1723507781;13/08/24;00:09:41;1.012;-0.033;0.097;0.02932153083384037;-0.012217304669320583;0.0073303827084600925
01:00:0A:00:00:00:00;1723507782;13/08/24;00:09:42;1.013;-0.032;0.099;0.030543262138962746;-0.010995574295520782;0.0036651913542300463
01:00:0A:00:00:00:00;1723507783;13/08/24;00:09:43;1.013;-0.033;0.098;0.028099799528717995;-0.012217304669320583;0.0073303827084600925
01:00:0A:00:00:00:00;1723507784;13/08/24;00:09:44;1.014;-0.034;0.098;0.02932153083384037;-0.010995574295520782;0.004886921960860491
01:00:0A:00:00:00:00;1723507785;13/08/24;00:09:45;1.013;-0.031;0.098;0.028099799528717995;-0.012217304669320583;0.006108652334660292
01:00:0A:00:00:00:00;1723507786;13/08/24;00:09:46;1.014;-0.034;0.099;0.02932153083384037;-0.012217304669320583;0.004886921960860491
01:00:0A:00:00:00:00;1723507787;13/08/24;00:09:47;1.013;-0.031;0.098;0.02932153083384037;-0.012217304669320583;0.004886921960860491
01:00:0A:00:00:00:00;1723507788;13/08/24;00:09:48;1.013;-0.032;0.098;0.028099799528717995;-0.012217304669320583;0.0073303827084600925
01:00:0A:00:00:00:00;1723507789;13/08/24;00:09:49;1.013;-0.033;0.098;0.02932153083384037;-0.010995574295520782;0.0036651913542300463
01:00:0A:00:00:00:00;1723507790;13/08/24;00:09:50;1.013;-0.032;0.097;0.028099799528717995;-0.012217304669320583;0.0073303827084600925
01:00:0A:00:00:00:00;1723507791;13/08/24;00:09:51;1.012;-0.033;0.098;0.02932153083384037;-0.010995574295520782;0.0036651913542300463
01:00:0A:00:00:00:00;1723507792;13/08/24;00:09:52;1.013;-0.031;0.098;0.028099799528717995;-0.012217304669320583;0.006108652334660292
01:00:0A:00:00:00:00;1723507793;13/08/24;00:09:53;1.014;-0.033;0.098;0.028099799528717995;-0.012217304669320583;0.006108652334660292
01:00:0A:00:00:00:00;1723507794;13/08/24;00:09:54;1.012;-0.032;0.098;0.028099799528717995;-0.010995574295520782;0.004886921960860491
01:00:0A:00:00:00:00;1723507795;13/08/24;00:09:55;1.013;-0.034;0.098;0.02687807008624077;-0.012217304669320583;0.006108652334660292
01:00:0A:00:00:00:00;1723507796;13/08/24;00:09:56;1.014;-0.032;0.099;0.028099799528717995;-0.010995574295520782;0.0036651913542300463
01:00:0A:00:00:00:00;1723507797;13/08/24;00:09:57;1.014;-0.032;0.098;0.02687807008624077;-0.013439035043120384;0.0073303827084600925
01:00:0A:00:00:00:00;1723507798;13/08/24;00:09:58;1.014;-0.034;0.097;0.028099799528717995;-0.010995574295520782;0.004886921960860491
01:00:0A:00:00:00:00;1723507799;13/08/24;00:09:59;1.013;-0.031;0.099;0.02687807008624077;-0.012217304669320583;0.006108652334660292
01:00:0A:00:00:00:00;1723507800;13/08/24;00:10:00;1.013;-0.034;0.098;0.02687807008624077;-0.012217304669320583;0.006108652334660292
01:00:0A:00:00:00:00;1723507801;13/08/24;00:10:01;1.014;-0.032;0.098;0.02687807008624077;-0.012217304669320583;0.0036651913542300463
01:00:0A:00:00:00:00;1723507802;13/08/24;00:10:02;1.015;-0.032;0.097;0.025656338781118393;-0.012217304669320583;0.0073303827084600925
01:00:0A:00:00:00:00;1723507803;13/08/24;00:10:03;1.013;-0.033;0.097;0.02687807008624077;-0.010995574295520782;0.0036651913542300463
01:00:0A:00:00:00:00;1723507804;13/08/24;00:10:04;1.013;-0.032;0.098;0.025656338781118393;-0.012217304669320583;0.006108652334660292
01:00:0A:00:00:00:00;1723507805;13/08/24;00:10:05;1.014;-0.033;0.098;0.02687807008624077;-0.012217304669320583;0.004886921960860491
01:00:0A:00:00:00:00;1723507806;13/08/24;00:10:06;1.013;-0.032;0.098;0.025656338781118393;-0.012217304669320583;0.004886921960860491
01:00:0A:00:00:00:00;1723507807;13/08/24;00:10:07;1.012;-0.033;0.098;0.025656338781118393;-0.012217304669320583;0.006108652334660292
01:00:0A:00:00:00:00;1723507808;13/08/24;00:10:08;1.012;-0.031;0.098;0.02687807008624077;-0.010995574295520782;0.0036651913542300463
01:00:0A:00:00:00:00;1723507809;13/08/24;00:10:09;1.013;-0.032;0.098;0.025656338781118393;-0.012217304669320583;0.0073303827084600925
01:00:0A:00:00:00:00;1723507810;13/08/24;00:10:10;1.013;-0.033;0.099;0.02687807008624077;-0.012217304669320583;0.0036651913542300463
01:00:0A:00:00:00:00;1723507811;13/08/24;00:10:11;1.013;-0.031;0.098;0.024434609338641167;-0.012217304669320583;0.0073303827084600925
01:00:0A:00:00:00:00;1723507812;13/08/24;00:10:12;1.013;-0.034;0.098;0.025656338781118393;-0.012217304669320583;0.004886921960860491
01:00:0A:00:00:00:00;1723507813;13/08/24;00:10:13;1.013;-0.033;0.098;0.025656338781118393;-0.010995574295520782;0.0036651913542300463
01:00:0A:00:00:00:00;1723507814;13/08/24;00:10:14;1.013;-0.032;0.098;0.024434609338641167;-0.012217304669320583;0.0073303827084600925
01:00:0A:00:00:00:00;1723507815;13/08/24;00:10:15;1.013;-0.032;0.098;0.025656338781118393;-0.010995574295520782;0.0036651913542300463
01:00:0A:00:00:00:00;1723507816;13/08/24;00:10:16;1.013;-0.031;0.099;0.024434609338641167;-0.012217304669320583;0.0073303827084600925
01:00:0A:00:00:00:00;1723507817;13/08/24;00:10:17;1.014;-0.033;0.098;0.025656338781118393;-0.010995574295520782;0.0036651913542300463
01:00:0A:00:00:00:00;1723507818;13/08/24;00:10:18;1.013;-0.031;0.099;0.024434609338641167;-0.012217304669320583;0.004886921960860491
01:00:0A:00:00:00:00;1723507819;13/08/24;00:10:19;1.013;-0.033;0.097;0.024434609338641167;-0.010995574295520782;0.004886921960860491
01:00:0A:00:00:00:00;1723507820;13/08/24;00:10:20;1.013;-0.032;0.098;0.024434609338641167;-0.012217304669320583;0.004886921960860491
01:00:0A:00:00:00:00;1723507821;13/08/24;00:10:21;1.012;-0.033;0.097;0.02321287989616394;-0.012217304669320583;0.0073303827084600925
01:00:0A:00:00:00:00;1723507822;13/08/24;00:10:22;1.013;-0.033;0.098;0.024434609338641167;-0.012217304669320583;0.0024434609804302454
01:00:0A:00:00:00:00;1723507823;13/08/24;00:10:23;1.013;-0.032;0.098;0.02321287989616394;-0.012217304669320583;0.0073303827084600925
01:00:0A:00:00:00:00;1723507824;13/08/24;00:10:24;1.013;-0.033;0.098;0.02321287989616394;-0.012217304669320583;0.0036651913542300463
01:00:0A:00:00:00:00;1723507825;13/08/24;00:10:25;1.013;-0.031;0.098;0.02321287989616394;-0.012217304669320583;0.004886921960860491
01:00:0A:00:00:00:00;1723507826;13/08/24;00:10:26;1.013;-0.033;0.099;0.02321287989616394;-0.012217304669320583;0.006108652334660292
01:00:0A:00:00:00:00;1723507827;13/08/24;00:10:27;1.013;-0.033;0.097;0.02321287989616394;-0.012217304669320583;0.0036651913542300463
01:00:0A:00:00:00:00;1723507828;13/08/24;00:10:28;1.012;-0.033;0.098;0.021991148591041565;-0.010995574295520782;0.0073303827084600925
01:00:0A:00:00:00:00;1723507829;13/08/24;00:10:29;1.012;-0.032;0.097;0.02321287989616394;-0.012217304669320583;0.0036651913542300463
01:00:0A:00:00:00:00;1723507830;13/08/24;00:10:30;1.013;-0.032;0.098;0.021991148591041565;-0.010995574295520782;0.0073303827084600925
01:00:0A:00:00:00:00;1723507831;13/08/24;00:10:31;1.014;-0.034;0.098;0.021991148591041565;-0.012217304669320583;0.004886921960860491
01:00:0A:00:00:00:00;1723507832;13/08/24;00:10:32;1.013;-0.031;0.097;0.021991148591041565;-0.010995574295520782;0.0036651913542300463
01:00:0A:00:00:00:00;1723507833;13/08/24;00:10:33;1.014;-0.033;0.098;0.02076941914856434;-0.012217304669320583;0.006108652334660292
01:00:0A:00:00:00:00;1723507834;13/08/24;00:10:34;1.013;-0.033;0.098;0.021991148591041565;-0.010995574295520782;0.0036651913542300463
01:00:0A:00:00:00:00;1723507835;13/08/24;00:10:35;1.013;-0.032;0.099;0.02076941914856434;-0.012217304669320583;0.0073303827084600925
01:00:0A:00:00:00:00;1723507836;13/08/24;00:10:36;1.014;-0.033;0.098;0.021991148591041565;-0.012217304669320583;0.0036651913542300463
01:00:0A:00:00:00:00;1723507837;13/08/24;00:10:37;1.013;-0.031;0.097;0.02076941914856434;-0.012217304669320583;0.006108652334660292
01:00:0A:00:00:00:00;1723507838;13/08/24;00:10:38;1.014;-0.033;0.097;0.02076941914856434;-0.010995574295520782;0.004886921960860491
01:00:0A:00:00:00:00;1723507839;13/08/24;00:10:39;1.013;-0.031;0.098;0.02076941914856434;-0.012217304669320583;0.004886921960860491
01:00:0A:00:00:00:00;1723507840;13/08/24;00:10:40;1.013;-0.033;0.097;0.02076941914856434;-0.010995574295520782;0.006108652334660292
01:00:0A:00:00:00:00;1723507841;13/08/24;00:10:41;1.013;-0.032;0.098;0.02076941914856434;-0.012217304669320583;0.0024434609804302454
01:00:0A:00:00:00:00;1723507842;13/08/24;00:10:42;1.013;-0.034;0.097;0.019547687843441963;-0.010995574295520782;0.0073303827084600925
01:00:0A:00:00:00:00;1723507843;13/08/24;00:10:43;1.013;-0.033;0.099;0.02076941914856434;-0.012217304669320583;0.0036651913542300463
01:00:0A:00:00:00:00;1723507844;13/08/24;00:10:44;1.014;-0.031;0.097;0.02076941914856434;-0.012217304669320583;0.006108652334660292
01:00:0A:00:00:00:00;1723507845;13/08/24;00:10:45;1.014;-0.033;0.098;0.02076941914856434;-0.012217304669320583;0.004886921960860491
01:00:0A:00:00:00:00;1723507846;13/08/24;00:10:46;1.013;-0.032;0.096;0.02076941914856434;-0.012217304669320583;0.0036651913542300463
01:00:0A:00:00:00:00;1723507847;13/08/24;00:10:47;1.013;-0.035;0.098;0.02076941914856434;-0.010995574295520782;0.006108652334660292
01:00:0A:00:00:00:00;1723507848;13/08/24;00:10:48;1.012;-0.033;0.097;0.021991148591041565;-0.012217304669320583;0.0036651913542300463
01:00:0A:00:00:00:00;1723507849;13/08/24;00:10:49;1.012;-0.031;0.098;0.02076941914856434;-0.010995574295520782;0.006108652334660292
01:00:0A:00:00:00:00;1723507850;13/08/24;00:10:50;1.013;-0.034;0.097;0.021991148591041565;-0.012217304669320583;0.0036651913542300463
01:00:0A:00:00:00:00;1723507851;13/08/24;00:10:51;1.012;-0.031;0.098;0.021991148591041565;-0.012217304669320583;0.004886921960860491
01:00:0A:00:00:00:00;1723507852;13/08/24;00:10:52;1.013;-0.032;0.098;0.021991148591041565;-0.010995574295520782;0.006108652334660292
01:00:0A:00:00:00:00;1723507853;13/08/24;00:10:53;1.013;-0.032;0.098;0.02321287989616394;-0.012217304669320583;0.0036651913542300463
01:00:0A:00:00:00:00;1723507854;13/08/24;00:10:54;1.013;-0.034;0.098;0.02321287989616394;-0.010995574295520782;0.0073303827084600925
01:00:0A:00:00:00:00;1723507855;13/08/24;00:10:55;1.012;-0.033;0.098;0.024434609338641167;-0.012217304669320583;0.0036651913542300463
01:00:0A:00:00:00:00;1723507856;13/08/24;00:10:56;1.012;-0.031;0.097;0.02321287989616394;-0.010995574295520782;0.006108652334660292
01:00:0A:00:00:00:00;1723507857;13/08/24;00:10:57;1.013;-0.034;0.097;0.024434609338641167;-0.012217304669320583;0.004886921960860491
01:00:0A:00:00:00:00;1723507858;13/08/24;00:10:58;1.013;-0.031;0.098;0.024434609338641167;-0.012217304669320583;0.004886921960860491
01:00:0A:00:00:00:00;1723507859;13/08/24;00:10:59;1.013;-0.033;0.099;0.024434609338641167;-0.010995574295520782;0.006108652334660292
01:00:0A:00:00:00:00;1723507860;13/08/24;00:11:00;1.012;-0.032;0.097;0.025656338781118393;-0.012217304669320583;0.0036651913542300463
01:00:0A:00:00:00:00;1723507861;13/08/24;00:11:01;1.013;-0.033;0.098;0.024434609338641167;-0.010995574295520782;0.0073303827084600925
01:00:0A:00:00:00:00;1723507862;13/08/24;00:11:02;1.012;-0.033;0.098;0.025656338781118393;-0.012217304669320583;0.0036651913542300463
01:00:0A:00:00:00:00;1723507863;13/08/24;00:11:03;1.013;-0.032;0.098;0.025656338781118393;-0.012217304669320583;0.006108652334660292
01:00:0A:00:00:00:00;1723507864;13/08/24;00:11:04;1.013;-0.032;0.099;0.025656338781118393;-0.010995574295520782;0.004886921960860491
01:00:0A:00:00:00:00;1723507865;13/08/24;00:11:05;1.013;-0.032;0.097;0.025656338781118393;-0.012217304669320583;0.004886921960860491
01:00:0A:00:00:00:00;1723507866;13/08/24;00:11:06;1.013;-0.034;0.098;0.025656338781118393;-0.010995574295520782;0.006108652334660292
01:00:0A:00:00:00:00;1723507867;13/08/24;00:11:07;1.014;-0.032;0.097;0.025656338781118393;-0.013439035043120384;0.0036651913542300463
01:00:0A:00:00:00:00;1723507868;13/08/24;00:11:08;1.013;-0.032;0.097;0.02687807008624077;-0.010995574295520782;0.006108652334660292
01:00:0A:00:00:00:00;1723507869;13/08/24;00:11:09;1.012;-0.034;0.098;0.025656338781118393;-0.013439035043120384;0.004886921960860491
01:00:0A:00:00:00:00;1723507870;13/08/24;00:11:10;1.012;-0.031;0.098;0.025656338781118393;-0.010995574295520782;0.004886921960860491
01:00:0A:00:00:00:00;1723507871;13/08/24;00:11:11;1.012;-0.034;0.098;0.025656338781118393;-0.012217304669320583;0.006108652334660292
01:00:0A:00:00:00:00;1723507872;13/08/24;00:11:12;1.012;-0.031;0.097;0.02687807008624077;-0.012217304669320583;0.0036651913542300463
01:00:0A:00:00:00:00;1723507873;13/08/24;00:11:13;1.014;-0.032;0.098;0.025656338781118393;-0.010995574295520782;0.0073303827084600925
01:00:0A:00:00:00:00;1723507874;13/08/24;00:11:14;1.013;-0.033;0.097;0.02687807008624077;-0.012217304669320583;0.004886921960860491
01:00:0A:00:00:00:00;1723507875;13/08/24;00:11:15;1.014;-0.033;0.097;0.02687807008624077;-0.010995574295520782;0.006108652334660292
01:00:0A:00:00:00:00;1723507876;13/08/24;00:11:16;1.013;-0.034;0.097;0.02687807008624077;-0.012217304669320583;0.004886921960860491
01:00:0A:00:00:00:00;1723507877;13/08/24;00:11:17;1.015;-0.032;0.097;0.02687807008624077;-0.012217304669320583;0.004886921960860491
01:00:0A:00:00:00:00;1723507878;13/08/24;00:11:18;1.013;-0.033;0.098;0.02687807008624077;-0.010995574295520782;0.006108652334660292
01:00:0A:00:00:00:00;1723507879;13/08/24;00:11:19;1.014;-0.032;0.097;0.02687807008624077;-0.013439035043120384;0.004886921960860491
01:00:0A:00:00:00:00;1723507880;13/08/24;00:11:20;1.012;-0.033;0.097;0.02687807008624077;-0.010995574295520782;0.006108652334660292
01:00:0A:00:00:00:00;1723507881;13/08/24;00:11:21;1.013;-0.032;0.098;0.02687807008624077;-0.013439035043120384;0.004886921960860491
01:00:0A:00:00:00:00;1723507882;13/08/24;00:11:22;1.012;-0.032;0.097;0.02687807008624077;-0.010995574295520782;0.006108652334660292
01:00:0A:00:00:00:00;1723507883;13/08/24;00:11:23;1.013;-0.032;0.099;0.02687807008624077;-0.012217304669320583;0.004886921960860491
01:00:0A:00:00:00:00;1723507884;13/08/24;00:11:24;1.014;-0.033;0.096;0.02687807008624077;-0.012217304669320583;0.006108652334660292
01:00:0A:00:00:00:00;1723507885;13/08/24;00:11:25;1.013;-0.033;0.097;0.028099799528717995;-0.010995574295520782;0.006108652334660292
01:00:0A:00:00:00:00;1723507886;13/08/24;00:11:26;1.013;-0.032;0.097;0.028099799528717995;-0.013439035043120384;0.004886921960860491
01:00:0A:00:00:00:00;1723507887;13/08/24;00:11:27;1.014;-0.033;0.098;0.028099799528717995;-0.010995574295520782;0.006108652334660292
01:00:0A:00:00:00:00;1723507888;13/08/24;00:11:28;1.014;-0.032;0.098;0.028099799528717995;-0.013439035043120384;0.006108652334660292
01:00:0A:00:00:00:00;1723507889;13/08/24;00:11:29;1.014;-0.033;0.097;0.028099799528717995;-0.010995574295520782;0.006108652334660292
01:00:0A:00:00:00:00;1723507890;13/08/24;00:11:30;1.014;-0.032;0.098;0.028099799528717995;-0.012217304669320583;0.006108652334660292
01:00:0A:00:00:00:00;1723507891;13/08/24;00:11:31;1.014;-0.033;0.098;0.028099799528717995;-0.012217304669320583;0.004886921960860491
01:00:0A:00:00:00:00;1723507892;13/08/24;00:11:32;1.013;-0.033;0.097;0.028099799528717995;-0.010995574295520782;0.006108652334660292
01:00:0A:00:00:00:00;1723507893;13/08/24;00:11:33;1.015;-0.032;0.098;0.028099799528717995;-0.013439035043120384;0.004886921960860491
01:00:0A:00:00:00:00;1723507894;13/08/24;00:11:34;1.013;-0.032;0.098;0.028099799528717995;-0.010995574295520782;0.006108652334660292
01:00:0A:00:00:00:00;1723507895;13/08/24;00:11:35;1.013;-0.033;0.099;0.028099799528717995;-0.012217304669320583;0.004886921960860491
01:00:0A:00:00:00:00;1723507896;13/08/24;00:11:36;1.014;-0.032;0.097;0.028099799528717995;-0.010995574295520782;0.006108652334660292
01:00:0A:00:00:00:00;1723507897;13/08/24;00:11:37;1.013;-0.032;0.098;0.028099799528717995;-0.010995574295520782;0.006108652334660292
01:00:0A:00:00:00:00;1723507898;13/08/24;00:11:38;1.014;-0.032;0.098;0.028099799528717995;-0.012217304669320583;0.006108652334660292
01:00:0A:00:00:00:00;1723507899;13/08/24;00:11:39;1.014;-0.033;0.098;0.028099799528717995;-0.010995574295520782;0.006108652334660292
01:00:0A:00:00:00:00;1723507900;13/08/24;00:11:40;1.013;-0.032;0.099;0.028099799528717995;-0.013439035043120384;0.004886921960860491
01:00:0A:00:00:00:00;1723507901;13/08/24;00:11:41;1.012;-0.033;0.098;0.028099799528717995;-0.010995574295520782;0.006108652334660292
01:00:0A:00:00:00:00;1723507902;13/08/24;00:11:42;1.014;-0.034;0.099;0.028099799528717995;-0.012217304669320583;0.004886921960860491
01:00:0A:00:00:00:00;1723507903;13/08/24;00:11:43;1.013;-0.033;0.097;0.028099799528717995;-0.012217304669320583;0.006108652334660292
01:00:0A:00:00:00:00;1723507904;13/08/24;00:11:44;1.012;-0.033;0.097;0.02932153083384037;-0.010995574295520782;0.004886921960860491
01:00:0A:00:00:00:00;1723507905;13/08/24;00:11:45;1.013;-0.033;0.097;0.028099799528717995;-0.012217304669320583;0.006108652334660292
01:00:0A:00:00:00:00;1723507906;13/08/24;00:11:46;1.014;-0.033;0.098;0.02932153083384037;-0.010995574295520782;0.004886921960860491
01:00:0A:00:00:00:00;1723507907;13/08/24;00:11:47;1.013;-0.031;0.099;0.028099799528717995;-0.013439035043120384;0.006108652334660292
01:00:0A:00:00:00:00;1723507908;13/08/24;00:11:48;1.013;-0.033;0.097;0.028099799528717995;-0.010995574295520782;0.004886921960860491
01:00:0A:00:00:00:00;1723507909;13/08/24;00:11:49;1.014;-0.033;0.099;0.028099799528717995;-0.012217304669320583;0.006108652334660292
01:00:0A:00:00:00:00;1723507910;13/08/24;00:11:50;1.013;-0.032;0.097;0.02932153083384037;-0.012217304669320583;0.006108652334660292
01:00:0A:00:00:00:00;1723507911;13/08/24;00:11:51;1.013;-0.031;0.098;0.02932153083384037;-0.010995574295520782;0.006108652334660292
01:00:0A:00:00:00:00;1723507912;13/08/24;00:11:52;1.014;-0.033;0.099;0.028099799528717995;-0.012217304669320583;0.006108652334660292
01:00:0A:00:00:00:00;1723507913;13/08/24;00:11:53;1.013;-0.032;0.097;0.02932153083384037;-0.010995574295520782;0.006108652334660292
01:00:0A:00:00:00:00;1723507914;13/08/24;00:11:54;1.014;-0.032;0.098;0.028099799528717995;-0.012217304669320583;0.006108652334660292
01:00:0A:00:00:00:00;1723507915;13/08/24;00:11:55;1.014;-0.032;0.096;0.02932153083384037;-0.010995574295520782;0.006108652334660292
01:00:0A:00:00:00:00;1723507916;13/08/24;00:11:56;1.013;-0.033;0.099;0.02932153083384037;-0.012217304669320583;0.006108652334660292
01:00:0A:00:00:00:00;1723507917;13/08/24;00:11:57;1.013;-0.033;0.098;0.02932153083384037;-0.012217304669320583;0.006108652334660292
01:00:0A:00:00:00:00;1723507918;13/08/24;00:11:58;1.014;-0.033;0.098;0.02932153083384037;-0.010995574295520782;0.006108652334660292
01:00:0A:00:00:00:00;1723507919;13/08/24;00:11:59;1.013;-0.033;0.098;0.02932153083384037;-0.012217304669320583;0.006108652334660292
01:00:0A:00:00:00:00;1723507920;13/08/24;00:12:00;1.014;-0.033;0.097;0.02932153083384037;-0.010995574295520782;0.006108652334660292
01:00:0A:00:00:00:00;1723507921;13/08/24;00:12:01;1.014;-0.033;0.098;0.02932153083384037;-0.012217304669320583;0.006108652334660292
01:00:0A:00:00:00:00;1723507922;13/08/24;00:12:02;1.013;-0.033;0.097;0.02932153083384037;-0.012217304669320583;0.006108652334660292
01:00:0A:00:00:00:00;1723507923;13/08/24;00:12:03;1.013;-0.033;0.099;0.02932153083384037;-0.012217304669320583;0.004886921960860491
01:00:0A:00:00:00:00;1723507924;13/08/24;00:12:04;1.013;-0.033;0.097;0.02932153083384037;-0.012217304669320583;0.006108652334660292
01:00:0A:00:00:00:00;1723507925;13/08/24;00:12:05;1.013;-0.034;0.098;0.030543262138962746;-0.010995574295520782;0.004886921960860491
01:00:0A:00:00:00:00;1723507926;13/08/24;00:12:06;1.014;-0.032;0.098;0.02932153083384037;-0.013439035043120384;0.006108652334660292
01:00:0A:00:00:00:00;1723507927;13/08/24;00:12:07;1.013;-0.033;0.098;0.02932153083384037;-0.010995574295520782;0.004886921960860491
01:00:0A:00:00:00:00;1723507928;13/08/24;00:12:08;1.015;-0.033;0.098;0.030543262138962746;-0.009773843921720982;0.009773843921720982
01:00:0A:00:00:00:00;1723507929;13/08/24;00:12:09;1.012;-0.044;0.104;0.04886921867728233;-0.014660765416920185;-0.004886921960860491
01:00:0A:00:00:00:00;1723507930;13/08/24;00:12:10;1.012;-0.024;0.093;0.051312677562236786;-0.02321287989616394;-0.0073303827084600925
01:00:0A:00:00:00:00;1723507931;13/08/24;00:12:11;1.013;-0.031;0.094;0.04153883829712868;-0.0012217304902151227;0.02687807008624077
01:00:0A:00:00:00:00;1723507932;13/08/24;00:12:12;1.013;-0.041;0.104;0.05009094998240471;-0.014660765416920185;-0.0024434609804302454
01:00:0A:00:00:00:00;1723507933;13/08/24;00:12:13;1.014;-0.024;0.093;0.04642575979232788;-0.02321287989616394;-0.0024434609804302454
01:00:0A:00:00:00:00;1723507934;13/08/24;00:12:14;1.014;-0.035;0.096;0.042760565876960754;0.0024434609804302454;0.02321287989616394
01:00:0A:00:00:00:00;1723507935;13/08/24;00:12:15;1.013;-0.038;0.104;0.04764748737215996;-0.014660765416920185;-0.0012217304902151227
01:00:0A:00:00:00:00;1723507936;13/08/24;00:12:16;1.014;-0.026;0.093;0.045204028487205505;-0.021991148591041565;0.0
01:00:0A:00:00:00:00;1723507937;13/08/24;00:12:17;1.013;-0.035;0.098;0.042760565876960754;0.0024434609804302454;0.019547687843441963
01:00:0A:00:00:00:00;1723507938;13/08/24;00:12:18;1.012;-0.037;0.104;0.04642575979232788;-0.018325956538319588;-0.0012217304902151227
01:00:0A:00:00:00:00;1723507939;13/08/24;00:12:19;1.014;-0.026;0.092;0.04398229718208313;-0.018325956538319588;0.0036651913542300463
01:00:0A:00:00:00:00;1723507940;13/08/24;00:12:20;1.013;-0.035;0.098;0.042760565876960754;0.0;0.01710422709584236
01:00:0A:00:00:00:00;1723507941;13/08/24;00:12:21;1.013;-0.036;0.103;0.045204028487205505;-0.019547687843441963;-0.0012217304902151227
01:00:0A:00:00:00:00;1723507942;13/08/24;00:12:22;1.014;-0.028;0.092;0.042760565876960754;-0.01710422709584236;0.004886921960860491
01:00:0A:00:00:00:00;1723507943;13/08/24;00:12:23;1.013;-0.035;0.1;0.042760565876960754;-0.0012217304902151227;0.014660765416920185
01:00:0A:00:00:00:00;1723507944;13/08/24;00:12:24;1.012;-0.035;0.103;0.04398229718208313;-0.019547687843441963;-0.0012217304902151227
01:00:0A:00:00:00:00;1723507945;13/08/24;00:12:25;1.013;-0.028;0.093;0.04153883829712868;-0.015882495790719986;0.0073303827084600925
01:00:0A:00:00:00:00;1723507946;13/08/24;00:12:26;1.012;-0.036;0.102;0.04642575979232788;-0.0012217304902151227;0.010995574295520782
01:00:0A:00:00:00:00;1723507947;13/08/24;00:12:27;1.013;-0.036;0.106;0.06230825558304787;-0.014660765416920185;0.006108652334660292
01:00:0A:00:00:00:00;1723507948;13/08/24;00:12:28;1.014;-0.032;0.094;0.06475171446800232;-0.02321287989616394;0.004886921960860491
01:00:0A:00:00:00:00;1723507949;13/08/24;00:12:29;1.014;-0.031;0.095;0.0659734457731247;-0.0036651913542300463;0.009773843921720982
01:00:0A:00:00:00:00;1723507950;13/08/24;00:12:30;1.012;-0.033;0.104;0.06108652427792549;-0.012217304669320583;0.00855211354792118
01:00:0A:00:00:00:00;1723507951;13/08/24;00:12:31;1.013;-0.033;0.095;0.05864306166768074;-0.02076941914856434;0.004886921960860491
01:00:0A:00:00:00:00;1723507952;13/08/24;00:12:32;1.012;-0.033;0.097;0.06108652427792549;-0.0036651913542300463;0.010995574295520782
01:00:0A:00:00:00:00;1723507953;13/08/24;00:12:33;1.013;-0.034;0.103;0.05742133408784866;-0.013439035043120384;0.0073303827084600925
01:00:0A:00:00:00:00;1723507954;13/08/24;00:12:34;1.013;-0.032;0.095;0.05497787147760391;-0.019547687843441963;0.006108652334660292
01:00:0A:00:00:00:00;1723507955;13/08/24;00:12:35;1.013;-0.032;0.097;0.05864306166768074;-0.0036651913542300463;0.00855211354792118
01:00:0A:00:00:00:00;1723507956;13/08/24;00:12:36;1.013;-0.032;0.103;0.05497787147760391;-0.014660765416920185;0.0073303827084600925
01:00:0A:00:00:00:00;1723507957;13/08/24;00:12:37;1.012;-0.033;0.095;0.05253440886735916;-0.01710422709584236;0.0073303827084600925
01:00:0A:00:00:00:00;1723507958;13/08/24;00:12:38;1.013;-0.032;0.097;0.05619959905743599;-0.004886921960860491;0.0073303827084600925
01:00:0A:00:00:00:00;1723507959;13/08/24;00:12:39;1.013;-0.033;0.101;0.051312677562236786;-0.015882495790719986;0.00855211354792118
01:00:0A:00:00:00:00;1723507960;13/08/24;00:12:40;1.013;-0.034;0.095;0.05253440886735916;-0.015882495790719986;0.006108652334660292
01:00:0A:00:00:00:00;1723507961;13/08/24;00:12:41;1.013;-0.031;0.098;0.05375614017248154;-0.006108652334660292;0.0073303827084600925
01:00:0A:00:00:00:00;1723507962;13/08/24;00:12:42;1.013;-0.033;0.1;0.04886921867728233;-0.015882495790719986;0.00855211354792118
01:00:0A:00:00:00:00;1723507963;13/08/24;00:12:43;1.013;-0.032;0.096;0.051312677562236786;-0.014660765416920185;0.004886921960860491
01:00:0A:00:00:00:00;1723507964;13/08/24;00:12:44;1.013;-0.031;0.099;0.051312677562236786;-0.006108652334660292;0.0073303827084600925
01:00:0A:00:00:00:00;1723507965;13/08/24;00:12:45;1.013;-0.033;0.1;0.04764748737215996;-0.015882495790719986;0.0073303827084600925
01:00:0A:00:00:00:00;1723507966;13/08/24;00:12:46;1.013;-0.034;0.095;0.04886921867728233;-0.012217304669320583;0.006108652334660292
01:00:0A:00:00:00:00;1723507967;13/08/24;00:12:47;1.013;-0.032;0.1;0.05009094998240471;-0.00855211354792118;0.006108652334660292
01:00:0A:00:00:00:00;1723507968;13/08/24;00:12:48;1.013;-0.033;0.099;0.04642575979232788;-0.015882495790719986;0.0073303827084600925
01:00:0A:00:00:00:00;1723507969;13/08/24;00:12:49;1.014;-0.033;0.096;0.04886921867728233;-0.012217304669320583;0.006108652334660292
01:00:0A:00:00:00:00;1723507970;13/08/24;00:12:50;1.013;-0.032;0.099;0.04764748737215996;-0.009773843921720982;0.006108652334660292
01:00:0A:00:00:00:00;1723507971;13/08/24;00:12:51;1.013;-0.033;0.098;0.045204028487205505;-0.014660765416920185;0.00855211354792118
01:00:0A:00:00:00:00;1723507972;13/08/24;00:12:52;1.014;-0.033;0.096;0.04764748737215996;-0.012217304669320583;0.004886921960860491
01:00:0A:00:00:00:00;1723507973;13/08/24;00:12:53;1.013;-0.032;0.098;0.04642575979232788;-0.009773843921720982;0.0073303827084600925
01:00:0A:00:00:00:00;1723507974;13/08/24;00:12:54;1.013;-0.034;0.098;0.04398229718208313;-0.015882495790719986;0.0073303827084600925
01:00:0A:00:00:00:00;1723507975;13/08/24;00:12:55;1.012;-0.032;0.096;0.04642575979232788;-0.010995574295520782;0.004886921960860491
01:00:0A:00:00:00:00;1723507976;13/08/24;00:12:56;1.013;-0.032;0.099;0.045204028487205505;-0.009773843921720982;0.0073303827084600925
01:00:0A:00:00:00:00;1723507977;13/08/24;00:12:57;1.013;-0.033;0.098;0.04398229718208313;-0.014660765416920185;0.006108652334660292
01:00:0A:00:00:00:00;1723507978;13/08/24;00:12:58;1.014;-0.032;0.095;0.04642575979232788;-0.009773843921720982;0.006108652334660292
01:00:0A:00:00:00:00;1723507979;13/08/24;00:12:59;1.013;-0.031;0.099;0.045204028487205505;-0.010995574295520782;0.006108652334660292
01:00:0A:00:00:00:00;1723507980;13/08/24;00:13:00;1.013;-0.033;0.097;0.04398229718208313;-0.013439035043120384;0.0073303827084600925
01:00:0A:00:00:00:00;1723507981;13/08/24;00:13:01;1.014;-0.033;0.097;0.04642575979232788;-0.010995574295520782;0.004886921960860491
01:00:0A:00:00:00:00;1723507982;13/08/24;00:13:02;1.012;-0.032;0.098;0.04398229718208313;-0.012217304669320583;0.0073303827084600925
01:00:0A:00:00:00:00;1723507983;13/08/24;00:13:03;1.013;-0.033;0.097;0.04398229718208313;-0.013439035043120384;0.0073303827084600925
01:00:0A:00:00:00:00;1723507984;13/08/24;00:13:04;1.013;-0.032;0.097;0.045204028487205505;-0.010995574295520782;0.004886921960860491
01:00:0A:00:00:00:00;1723507985;13/08/24;00:13:05;1.013;-0.032;0.098;0.04398229718208313;-0.010995574295520782;0.00855211354792118
01:00:0A:00:00:00:00;1723507986;13/08/24;00:13:06;1.013;-0.033;0.097;0.04398229718208313;-0.013439035043120384;0.006108652334660292
01:00:0A:00:00:00:00;1723507987;13/08/24;00:13:07;1.014;-0.032;0.097;0.045204028487205505;-0.010995574295520782;0.006108652334660292
01:00:0A:00:00:00:00;1723507988;13/08/24;00:13:08;1.014;-0.033;0.099;0.04398229718208313;-0.012217304669320583;0.0073303827084600925
01:00:0A:00:00:00:00;1723507989;13/08/24;00:13:09;1.013;-0.034;0.097;0.042760565876960754;-0.013439035043120384;0.006108652334660292
01:00:0A:00:00:00:00;1723507990;13/08/24;00:13:10;1.014;-0.032;0.098;0.04398229718208313;-0.009773843921720982;0.006108652334660292
01:00:0A:00:00:00:00;1723507991;13/08/24;00:13:11;1.013;-0.032;0.098;0.042760565876960754;-0.013439035043120384;0.0073303827084600925
01:00:0A:00:00:00:00;1723507992;13/08/24;00:13:12;1.013;-0.033;0.098;0.042760565876960754;-0.012217304669320583;0.006108652334660292
01:00:0A:00:00:00:00;1723507993;13/08/24;00:13:13;1.013;-0.033;0.098;0.04398229718208313;-0.010995574295520782;0.006108652334660292
01:00:0A:00:00:00:00;1723507994;13/08/24;00:13:14;1.013;-0.032;0.098;0.042760565876960754;-0.012217304669320583;0.0073303827084600925
01:00:0A:00:00:00:00;1723507995;13/08/24;00:13:15;1.014;-0.032;0.098;0.042760565876960754;-0.012217304669320583;0.006108652334660292
01:00:0A:00:00:00:00;1723507996;13/08/24;00:13:16;1.013;-0.033;0.097;0.042760565876960754;-0.012217304669320583;0.006108652334660292
01:00:0A:00:00:00:00;1723507997;13/08/24;00:13:17;1.013;-0.032;0.098;0.04153883829712868;-0.012217304669320583;0.0073303827084600925
01:00:0A:00:00:00:00;1723507998;13/08/24;00:13:18;1.013;-0.034;0.098;0.042760565876960754;-0.012217304669320583;0.006108652334660292
01:00:0A:00:00:00:00;1723507999;13/08/24;00:13:19;1.013;-0.034;0.098;0.042760565876960754;-0.010995574295520782;0.006108652334660292
01:00:0A:00:00:00:00;1723508000;13/08/24;00:13:20;1.014;-0.032;0.098;0.04153883829712868;-0.012217304669320583;0.0073303827084600925
01:00:0A:00:00:00:00;1723508001;13/08/24;00:13:21;1.013;-0.032;0.097;0.042760565876960754;-0.012217304669320583;0.006108652334660292
01:00:0A:00:00:00:00;1723508002;13/08/24;00:13:22;1.013;-0.033;0.098;0.042760565876960754;-0.010995574295520782;0.006108652334660292
01:00:0A:00:00:00:00;1723508003;13/08/24;00:13:23;1.013;-0.032;0.098;0.04153883829712868;-0.013439035043120384;0.0073303827084600925
01:00:0A:00:00:00:00;1723508004;13/08/24;00:13:24;1.013;-0.033;0.097;0.042760565876960754;-0.010995574295520782;0.006108652334660292
01:00:0A:00:00:00:00;1723508005;13/08/24;00:13:25;1.013;-0.032;0.098;0.04153883829712868;-0.012217304669320583;0.006108652334660292
01:00:0A:00:00:00:00;1723508006;13/08/24;00:13:26;1.013;-0.032;0.096;0.04153883829712868;-0.012217304669320583;0.0073303827084600925
01:00:0A:00:00:00:00;1723508007;13/08/24;00:13:27;1.013;-0.032;0.098;0.042760565876960754;-0.012217304669320583;0.006108652334660292
01:00:0A:00:00:00:00;1723508008;13/08/24;00:13:28;1.012;-0.032;0.097;0.04153883829712868;-0.012217304669320583;0.0073303827084600925
01:00:0A:00:00:00:00;1723508009;13/08/24;00:13:29;1.012;-0.033;0.099;0.04153883829712868;-0.012217304669320583;0.006108652334660292
01:00:0A:00:00:00:00;1723508010;13/08/24;00:13:30;1.013;-0.034;0.097;0.04153883829712868;-0.012217304669320583;0.006108652334660292
01:00:0A:00:00:00:00;1723508011;13/08/24;00:13:31;1.012;-0.032;0.098;0.04153883829712868;-0.010995574295520782;0.006108652334660292
01:00:0A:00:00:00:00;1723508012;13/08/24;00:13:32;1.012;-0.033;0.097;0.04153883829712868;-0.012217304669320583;0.0073303827084600925
01:00:0A:00:00:00:00;1723508013;13/08/24;00:13:33;1.013;-0.032;0.098;0.04153883829712868;-0.012217304669320583;0.006108652334660292
01:00:0A:00:00:00:00;1723508014;13/08/24;00:13:34;1.012;-0.032;0.099;0.04153883829712868;-0.012217304669320583;0.006108652334660292
01:00:0A:00:00:00:00;1723508015;13/08/24;00:13:35;1.013;-0.032;0.097;0.040317103266716;-0.012217304669320583;0.006108652334660292
01:00:0A:00:00:00:00;1723508016;13/08/24;00:13:36;1.013;-0.032;0.097;0.04153883829712868;-0.010995574295520782;0.006108652334660292
01:00:0A:00:00:00:00;1723508017;13/08/24;00:13:37;1.015;-0.031;0.097;0.040317103266716;-0.012217304669320583;0.0073303827084600925
01:00:0A:00:00:00:00;1723508018;13/08/24;00:13:38;1.013;-0.034;0.098;0.04153883829712868;-0.012217304669320583;0.006108652334660292
01:00:0A:00:00:00:00;1723508019;13/08/24;00:13:39;1.014;-0.031;0.097;0.040317103266716;-0.012217304669320583;0.006108652334660292
01:00:0A:00:00:00:00;1723508020;13/08/24;00:13:40;1.013;-0.033;0.097;0.040317103266716;-0.012217304669320583;0.0073303827084600925
01:00:0A:00:00:00:00;1723508021;13/08/24;00:13:41;1.013;-0.033;0.097;0.040317103266716;-0.012217304669320583;0.006108652334660292
01:00:0A:00:00:00:00;1723508022;13/08/24;00:13:42;1.013;-0.032;0.097;0.040317103266716;-0.013439035043120384;0.006108652334660292
01:00:0A:00:00:00:00;1723508023;13/08/24;00:13:43;1.013;-0.032;0.097;0.040317103266716;-0.012217304669320583;0.006108652334660292
01:00:0A:00:00:00:00;1723508024;13/08/24;00:13:44;1.012;-0.032;0.098;0.040317103266716;-0.012217304669320583;0.006108652334660292
01:00:0A:00:00:00:00;1723508025;13/08/24;00:13:45;1.013;-0.033;0.097;0.040317103266716;-0.012217304669320583;0.006108652334660292
01:00:0A:00:00:00:00;1723508026;13/08/24;00:13:46;1.013;-0.033;0.097;0.039095375686883926;-0.012217304669320583;0.006108652334660292
01:00:0A:00:00:00:00;1723508027;13/08/24;00:13:47;1.014;-0.033;0.097;0.039095375686883926;-0.012217304669320583;0.006108652334660292
01:00:0A:00:00:00:00;1723508028;13/08/24;00:13:48;1.012;-0.033;0.097;0.039095375686883926;-0.012217304669320583;0.004886921960860491
01:00:0A:00:00:00:00;1723508029;13/08/24;00:13:49;1.013;-0.034;0.098;0.039095375686883926;-0.012217304669320583;0.0073303827084600925
01:00:0A:00:00:00:00;1723508030;13/08/24;00:13:50;1.012;-0.033;0.097;0.039095375686883926;-0.012217304669320583;0.006108652334660292
01:00:0A:00:00:00:00;1723508031;13/08/24;00:13:51;1.013;-0.032;0.098;0.03787364438176155;-0.012217304669320583;0.006108652334660292
01:00:0A:00:00:00:00;1723508032;13/08/24;00:13:52;1.013;-0.034;0.097;0.03787364438176155;-0.012217304669320583;0.006108652334660292
01:00:0A:00:00:00:00;1723508033;13/08/24;00:13:53;1.014;-0.032;0.097;0.03787364438176155;-0.012217304669320583;0.006108652334660292
01:00:0A:00:00:00:00;1723508034;13/08/24;00:13:54;1.013;-0.033;0.098;0.03787364438176155;-0.012217304669320583;0.006108652334660292
01:00:0A:00:00:00:00;1723508035;13/08/24;00:13:55;1.013;-0.032;0.097;0.03787364438176155;-0.012217304669320583;0.006108652334660292
01:00:0A:00:00:00:00;1723508036;13/08/24;00:13:56;1.013;-0.033;0.097;0.036651913076639175;-0.012217304669320583;0.006108652334660292
01:00:0A:00:00:00:00;1723508037;13/08/24;00:13:57;1.013;-0.032;0.097;0.03787364438176155;-0.012217304669320583;0.006108652334660292
01:00:0A:00:00:00:00;1723508038;13/08/24;00:13:58;1.013;-0.032;0.097;0.036651913076639175;-0.012217304669320583;0.006108652334660292
01:00:0A:00:00:00:00;1723508039;13/08/24;00:13:59;1.014;-0.033;0.096;0.036651913076639175;-0.012217304669320583;0.006108652334660292
01:00:0A:00:00:00:00;1723508040;13/08/24;00:14:00;1.014;-0.032;0.098;0.036651913076639175;-0.012217304669320583;0.006108652334660292
01:00:0A:00:00:00:00;1723508041;13/08/24;00:14:01;1.013;-0.034;0.098;0.0354301817715168;-0.012217304669320583;0.006108652334660292
01:00:0A:00:00:00:00;1723508042;13/08/24;00:14:02;1.015;-0.033;0.098;0.036651913076639175;-0.012217304669320583;0.004886921960860491
01:00:0A:00:00:00:00;1723508043;13/08/24;00:14:03;1.014;-0.032;0.098;0.0354301817715168;-0.012217304669320583;0.006108652334660292
01:00:0A:00:00:00:00;1723508044;13/08/24;00:14:04;1.014;-0.033;0.099;0.0354301817715168;-0.012217304669320583;0.006108652334660292
01:00:0A:00:00:00:00;1723508045;13/08/24;00:14:05;1.014;-0.033;0.097;0.0354301817715168;-0.012217304669320583;0.006108652334660292
01:00:0A:00:00:00:00;1723508046;13/08/24;00:14:06;1.013;-0.033;0.098;0.0354301817715168;-0.012217304669320583;0.006108652334660292
01:00:0A:00:00:00:00;1723508047;13/08/24;00:14:07;1.013;-0.032;0.098;0.0354301817715168;-0.012217304669320583;0.006108652334660292
01:00:0A:00:00:00:00;1723508048;13/08/24;00:14:08;1.014;-0.034;0.098;0.0354301817715168;-0.012217304669320583;0.006108652334660292
01:00:0A:00:00:00:00;1723508049;13/08/24;00:14:09;1.013;-0.033;0.098;0.0354301817715168;-0.012217304669320583;0.004886921960860491
01:00:0A:00:00:00:00;1723508050;13/08/24;00:14:10;1.014;-0.033;0.098;0.03420845419168472;-0.012217304669320583;0.006108652334660292
01:00:0A:00:00:00:00;1723508051;13/08/24;00:14:11;1.013;-0.033;0.098;0.03420845419168472;-0.012217304669320583;0.006108652334660292
01:00:0A:00:00:00:00;1723508052;13/08/24;00:14:12;1.012;-0.033;0.098;0.0354301817715168;-0.012217304669320583;0.006108652334660292
01:00:0A:00:00:00:00;1723508053;13/08/24;00:14:13;1.013;-0.032;0.098;0.03420845419168472;-0.012217304669320583;0.006108652334660292
01:00:0A:00:00:00:00;1723508054;13/08/24;00:14:14;1.012;-0.032;0.098;0.03420845419168472;-0.012217304669320583;0.004886921960860491
01:00:0A:00:00:00:00;1723508055;13/08/24;00:14:15;1.013;-0.032;0.098;0.03420845419168472;-0.012217304669320583;0.006108652334660292
01:00:0A:00:00:00:00;1723508056;13/08/24;00:14:16;1.012;-0.034;0.098;0.03420845419168472;-0.012217304669320583;0.004886921960860491
01:00:0A:00:00:00:00;1723508057;13/08/24;00:14:17;1.013;-0.032;0.099;0.03420845419168472;-0.012217304669320583;0.006108652334660292
01:00:0A:00:00:00:00;1723508058;13/08/24;00:14:18;1.013;-0.033;0.098;0.03420845419168472;-0.012217304669320583;0.006108652334660292
01:00:0A:00:00:00:00;1723508059;13/08/24;00:14:19;1.014;-0.032;0.098;0.03298672288656235;-0.012217304669320583;0.006108652334660292
01:00:0A:00:00:00:00;1723508060;13/08/24;00:14:20;1.013;-0.032;0.098;0.03298672288656235;-0.012217304669320583;0.006108652334660292
01:00:0A:00:00:00:00;1723508061;13/08/24;00:14:21;1.013;-0.032;0.098;0.03298672288656235;-0.012217304669320583;0.004886921960860491
01:00:0A:00:00:00:00;1723508062;13/08/24;00:14:22;1.012;-0.032;0.097;0.03298672288656235;-0.012217304669320583;0.006108652334660292
01:00:0A:00:00:00:00;1723508063;13/08/24;00:14:23;1.012;-0.033;0.098;0.03298672288656235;-0.012217304669320583;0.004886921960860491
01:00:0A:00:00:00:00;1723508064;13/08/24;00:14:24;1.013;-0.032;0.097;0.03298672288656235;-0.012217304669320583;0.006108652334660292
01:00:0A:00:00:00:00;1723508065;13/08/24;00:14:25;1.012;-0.033;0.098;0.03298672288656235;-0.012217304669320583;0.006108652334660292
01:00:0A:00:00:00:00;1723508066;13/08/24;00:14:26;1.014;-0.031;0.098;0.03176499158143997;-0.012217304669320583;0.006108652334660292
01:00:0A:00:00:00:00;1723508067;13/08/24;00:14:27;1.013;-0.033;0.098;0.03176499158143997;-0.010995574295520782;0.006108652334660292
01:00:0A:00:00:00:00;1723508068;13/08/24;00:14:28;1.014;-0.033;0.097;0.03176499158143997;-0.012217304669320583;0.004886921960860491
01:00:0A:00:00:00:00;1723508069;13/08/24;00:14:29;1.013;-0.032;0.098;0.03176499158143997;-0.012217304669320583;0.006108652334660292
01:00:0A:00:00:00:00;1723508070;13/08/24;00:14:30;1.013;-0.032;0.099;0.03176499158143997;-0.012217304669320583;0.004886921960860491
01:00:0A:00:00:00:00;1723508071;13/08/24;00:14:31;1.013;-0.033;0.097;0.03176499158143997;-0.012217304669320583;0.006108652334660292
01:00:0A:00:00:00:00;1723508072;13/08/24;00:14:32;1.012;-0.033;0.098;0.030543262138962746;-0.012217304669320583;0.006108652334660292
01:00:0A:00:00:00:00;1723508073;13/08/24;00:14:33;1.013;-0.033;0.097;0.030543262138962746;-0.012217304669320583;0.004886921960860491
01:00:0A:00:00:00:00;1723508074;13/08/24;00:14:34;1.014;-0.033;0.098;0.030543262138962746;-0.012217304669320583;0.006108652334660292
01:00:0A:00:00:00:00;1723508075;13/08/24;00:14:35;1.013;-0.032;0.098;0.030543262138962746;-0.012217304669320583;0.004886921960860491
01:00:0A:00:00:00:00;1723508076;13/08/24;00:14:36;1.013;-0.032;0.098;0.02932153083384037;-0.012217304669320583;0.006108652334660292
01:00:0A:00:00:00:00;1723508077;13/08/24;00:14:37;1.013;-0.033;0.098;0.02932153083384037;-0.012217304669320583;0.006108652334660292
01:00:0A:00:00:00:00;1723508078;13/08/24;00:14:38;1.014;-0.031;0.097;0.02932153083384037;-0.012217304669320583;0.006108652334660292
01:00:0A:00:00:00:00;1723508079;13/08/24;00:14:39;1.013;-0.032;0.098;0.02932153083384037;-0.012217304669320583;0.006108652334660292
01:00:0A:00:00:00:00;1723508080;13/08/24;00:14:40;1.013;-0.032;0.099;0.02932153083384037;-0.012217304669320583;0.004886921960860491
01:00:0A:00:00:00:00;1723508081;13/08/24;00:14:41;1.015;-0.033;0.098;0.02932153083384037;-0.010995574295520782;0.006108652334660292
01:00:0A:00:00:00:00;1723508082;13/08/24;00:14:42;1.013;-0.032;0.098;0.02932153083384037;-0.012217304669320583;0.004886921960860491
01:00:0A:00:00:00:00;1723508083;13/08/24;00:14:43;1.013;-0.032;0.098;0.028099799528717995;-0.012217304669320583;0.006108652334660292
01:00:0A:00:00:00:00;1723508084;13/08/24;00:14:44;1.013;-0.033;0.098;0.028099799528717995;-0.012217304669320583;0.006108652334660292
01:00:0A:00:00:00:00;1723508085;13/08/24;00:14:45;1.012;-0.032;0.098;0.028099799528717995;-0.012217304669320583;0.004886921960860491
01:00:0A:00:00:00:00;1723508086;13/08/24;00:14:46;1.012;-0.032;0.098;0.028099799528717995;-0.010995574295520782;0.006108652334660292
01:00:0A:00:00:00:00;1723508087;13/08/24;00:14:47;1.013;-0.032;0.098;0.028099799528717995;-0.012217304669320583;0.004886921960860491
01:00:0A:00:00:00:00;1723508088;13/08/24;00:14:48;1.024;-0.046;0.123;0.024434609338641167;0.05009094998240471;0.018325956538319588
01:00:0A:00:00:00:00;1723508089;13/08/24;00:14:49;0.831;-0.316;0.384;-0.27611109614372253;-1.1899654865264893;0.5204571485519409
01:00:0A:00:00:00:00;1723508090;13/08/24;00:14:50;0.67;0.284;0.459;2.4801127910614014;-1.7800612449645996;-0.05864306166768074
01:00:0A:00:00:00:00;1723508091;13/08/24;00:14:51;0.912;0.027;0.216;1.3463469743728638;0.5815436840057373;-0.8735373020172119
01:00:0A:00:00:00:00;1723508092;13/08/24;00:14:52;1.015;-0.027;-0.063;-1.5894713401794434;-1.9523253440856934;0.0036651913542300463
01:00:0A:00:00:00:00;1723508093;13/08/24;00:14:53;0.609;-0.38;-0.844;1.6212363243103027;-2.2149972915649414;1.3634511232376099
01:00:0A:00:00:00:00;1723508094;13/08/24;00:14:54;1.021;0.318;0.139;1.2999212741851807;-0.20525071024894714;-0.16249015927314758
01:00:0A:00:00:00:00;1723508095;13/08/24;00:14:55;0.612;-0.456;-0.153;0.4911356568336487;0.8442157506942749;-1.63467538356781
01:00:0A:00:00:00:00;1723508096;13/08/24;00:14:56;0.843;-0.167;-0.331;-2.9907960891723633;-2.7757716178894043;1.605353832244873
01:00:0A:00:00:00:00;1723508097;13/08/24;00:14:57;0.583;-0.419;0.806;-3.7727036476135254;-0.7428121566772461;-1.2486084699630737
01:00:0A:00:00:00:00;1723508098;13/08/24;00:14:58;0.882;0.139;0.53;-2.915048837661743;1.2486084699630737;-0.6059783101081848
01:00:0A:00:00:00:00;1723508099;13/08/24;00:14:59;1.016;-0.131;-0.234;-1.929112434387207;0.6951646208763123;-0.9150761365890503
01:00:0A:00:00:00:00;1723508100;13/08/24;00:15:00;0.951;-0.268;0.178;-1.3426817655563354;-0.14782939851284027;-0.3433062732219696
01:00:0A:00:00:00:00;1723508101;13/08/24;00:15:01;0.988;0.204;0.219;-1.1508700847625732;0.05253440886735916;0.080634206533432
01:00:0A:00:00:00:00;1723508102;13/08/24;00:15:02;0.675;-1.008;-0.227;-3.6163222789764404;0.32009339332580566;1.9449949264526367
01:00:0A:00:00:00:00;1723508103;13/08/24;00:15:03;1.09;0.113;-0.121;-1.8350391387939453;0.8222246170043945;-0.11728612333536148
01:00:0A:00:00:00:00;1723508104;13/08/24;00:15:04;0.551;-0.374;0.665;-0.7867944240570068;-1.0115928649902344;0.9175195693969727
01:00:0A:00:00:00:00;1723508105;13/08/24;00:15:05;0.976;0.058;-0.278;-0.10506881773471832;-0.3543018400669098;-0.9676105380058289
01:00:0A:00:00:00:00;1723508106;13/08/24;00:15:06;1.054;0.067;0.1;-0.3176499307155609;0.8784241676330566;1.0005972385406494
01:00:0A:00:00:00:00;1723508107;13/08/24;00:15:07;0.487;-0.076;-0.822;-1.8154914379119873;-0.6389650106430054;0.4056144952774048
01:00:0A:00:00:00:00;1723508108;13/08/24;00:15:08;0.892;0.199;0.314;-2.8735101222991943;2.624277114868164;-0.485027015209198
01:00:0A:00:00:00:00;1723508109;13/08/24;00:15:09;0.971;-0.319;-0.275;-1.585806131362915;0.045204028487205505;-0.4703662395477295
