Source;Epoch timestamp (UTC);Date;Time (UTC);Accel X (G);Accel Y (G);Accel Z (G);Gyro X (rad/s);Gyro Y (rad/s);Gyro Z (rad/s)
01:00:0A:00:00:00:00;1727654389;29/09/24;23:59:49;1.016;-0.003;0.035;0.06841690838336945;-0.009773843921720982;0.0036651913542300463
01:00:0A:00:00:00:00;1727654390;29/09/24;23:59:50;1.016;-0.002;0.034;0.06719517707824707;-0.010995574295520782;0.0024434609804302454
01:00:0A:00:00:00:00;1727654391;29/09/24;23:59:51;1.016;-0.004;0.034;0.0659734457731247;-0.010995574295520782;0.0036651913542300463
01:00:0A:00:00:00:00;1727654392;29/09/24;23:59:52;1.016;-0.003;0.035;0.06475171446800232;-0.009773843921720982;0.0036651913542300463
01:00:0A:00:00:00:00;1727654393;29/09/24;23:59:53;1.016;-0.004;0.035;0.06352998316287994;-0.010995574295520782;0.0024434609804302454
01:00:0A:00:00:00:00;1727654394;29/09/24;23:59:54;1.016;-0.002;0.034;0.06352998316287994;-0.010995574295520782;0.0036651913542300463
01:00:0A:00:00:00:00;1727654395;29/09/24;23:59:55;1.016;-0.004;0.035;0.06230825558304787;-0.009773843921720982;0.0036651913542300463
01:00:0A:00:00:00:00;1727654396;29/09/24;23:59:56;1.016;-0.003;0.034;0.06108652427792549;-0.010995574295520782;0.0024434609804302454
01:00:0A:00:00:00:00;1727654397;29/09/24;23:59:57;1.017;-0.004;0.034;0.059864792972803116;-0.010995574295520782;0.0036651913542300463
01:00:0A:00:00:00:00;1727654398;29/09/24;23:59:58;1.016;-0.004;0.034;0.059864792972803116;-0.010995574295520782;0.0036651913542300463
01:00:0A:00:00:00:00;1727654399;29/09/24;23:59:59;1.016;-0.003;0.035;0.05864306166768074;-0.010995574295520782;0.0024434609804302454
01:00:0A:00:00:00:00;1727654400;30/09/24;00:00:00;1.016;-0.004;0.034;0.05742133408784866;-0.010995574295520782;0.0036651913542300463
01:00:0A:00:00:00:00;1727654401;30/09/24;00:00:01;1.016;-0.003;0.034;0.05742133408784866;-0.009773843921720982;0.0036651913542300463
01:00:0A:00:00:00:00;1727654402;30/09/24;00:00:02;1.016;-0.004;0.035;0.05619959905743599;-0.010995574295520782;0.0024434609804302454
01:00:0A:00:00:00:00;1727654403;30/09/24;00:00:03;1.016;-0.002;0.034;0.05619959905743599;-0.010995574295520782;0.0036651913542300463
01:00:0A:00:00:00:00;1727654404;30/09/24;00:00:04;1.016;-0.003;0.034;0.05497787147760391;-0.009773843921720982;0.0036651913542300463
01:00:0A:00:00:00:00;1727654405;30/09/24;00:00:05;1.016;-0.005;0.035;0.05497787147760391;-0.010995574295520782;0.0036651913542300463
01:00:0A:00:00:00:00;1727654406;30/09/24;00:00:06;1.016;-0.004;0.034;0.05375614017248154;-0.010995574295520782;0.0036651913542300463
01:00:0A:00:00:00:00;1727654407;30/09/24;00:00:07;1.016;-0.003;0.033;0.05253440886735916;-0.009773843921720982;0.0036651913542300463
01:00:0A:00:00:00:00;1727654408;30/09/24;00:00:08;1.016;-0.004;0.035;0.05253440886735916;-0.010995574295520782;0.0036651913542300463
01:00:0A:00:00:00:00;1727654409;30/09/24;00:00:09;1.017;-0.004;0.034;0.051312677562236786;-0.010995574295520782;0.0036651913542300463
01:00:0A:00:00:00:00;1727654410;30/09/24;00:00:10;1.016;-0.004;0.034;0.051312677562236786;-0.010995574295520782;0.0036651913542300463
01:00:0A:00:00:00:00;1727654411;30/09/24;00:00:11;1.016;-0.004;0.035;0.05009094998240471;-0.010995574295520782;0.0036651913542300463
01:00:0A:00:00:00:00;1727654412;30/09/24;00:00:12;1.016;-0.003;0.034;0.05009094998240471;-0.010995574295520782;0.0036651913542300463
01:00:0A:00:00:00:00;1727654413;30/09/24;00:00:13;1.016;-0.004;0.035;0.04886921867728233;-0.010995574295520782;0.0036651913542300463
01:00:0A:00:00:00:00;1727654414;30/09/24;00:00:14;1.016;-0.003;0.035;0.04886921867728233;-0.009773843921720982;0.0024434609804302454
01:00:0A:00:00:00:00;1727654415;30/09/24;00:00:15;1.016;-0.003;0.034;0.04764748737215996;-0.010995574295520782;0.0036651913542300463
01:00:0A:00:00:00:00;1727654416;30/09/24;00:00:16;1.016;-0.004;0.035;0.04764748737215996;-0.010995574295520782;0.0036651913542300463
01:00:0A:00:00:00:00;1727654417;30/09/24;00:00:17;1.016;-0.004;0.035;0.04642575979232788;-0.010995574295520782;0.0036651913542300463
01:00:0A:00:00:00:00;1727654418;30/09/24;00:00:18;1.017;-0.003;0.034;0.04642575979232788;-0.010995574295520782;0.0024434609804302454
01:00:0A:00:00:00:00;1727654419;30/09/24;00:00:19;1.016;-0.003;0.034;0.045204028487205505;-0.010995574295520782;0.0036651913542300463
01:00:0A:00:00:00:00;1727654420;30/09/24;00:00:20;1.016;-0.003;0.036;0.045204028487205505;-0.010995574295520782;0.0036651913542300463
01:00:0A:00:00:00:00;1727654421;30/09/24;00:00:21;1.016;-0.003;0.035;0.04398229718208313;-0.010995574295520782;0.0024434609804302454
01:00:0A:00:00:00:00;1727654422;30/09/24;00:00:22;1.017;-0.005;0.034;0.04398229718208313;-0.010995574295520782;0.0036651913542300463
01:00:0A:00:00:00:00;1727654423;30/09/24;00:00:23;1.016;-0.003;0.035;0.042760565876960754;-0.010995574295520782;0.0036651913542300463
01:00:0A:00:00:00:00;1727654424;30/09/24;00:00:24;1.018;-0.004;0.035;0.042760565876960754;-0.010995574295520782;0.0036651913542300463
01:00:0A:00:00:00:00;1727654425;30/09/24;00:00:25;1.016;-0.004;0.035;0.04153883829712868;-0.010995574295520782;0.0036651913542300463
01:00:0A:00:00:00:00;1727654426;30/09/24;00:00:26;1.016;-0.004;0.034;0.04153883829712868;-0.010995574295520782;0.0036651913542300463
01:00:0A:00:00:00:00;1727654427;30/09/24;00:00:27;1.016;-0.003;0.034;0.04153883829712868;-0.010995574295520782;0.0024434609804302454
01:00:0A:00:00:00:00;1727654428;30/09/24;00:00:28;1.016;-0.004;0.034;0.040317103266716;-0.010995574295520782;0.0024434609804302454
01:00:0A:00:00:00:00;1727654429;30/09/24;00:00:29;1.016;-0.004;0.035;0.040317103266716;-0.010995574295520782;0.0024434609804302454
01:00:0A:00:00:00:00;1727654430;30/09/24;00:00:30;1.016;-0.003;0.034;0.039095375686883926;-0.010995574295520782;0.0024434609804302454
01:00:0A:00:00:00:00;1727654431;30/09/24;00:00:31;1.016;-0.004;0.035;0.039095375686883926;-0.010995574295520782;0.0024434609804302454
01:00:0A:00:00:00:00;1727654432;30/09/24;00:00:32;1.016;-0.004;0.034;0.039095375686883926;-0.010995574295520782;0.0024434609804302454
01:00:0A:00:00:00:00;1727654433;30/09/24;00:00:33;1.016;-0.003;0.035;0.03787364438176155;-0.010995574295520782;0.0024434609804302454
01:00:0A:00:00:00:00;1727654434;30/09/24;00:00:34;1.017;-0.004;0.035;0.03787364438176155;-0.010995574295520782;0.0036651913542300463
01:00:0A:00:00:00:00;1727654435;30/09/24;00:00:35;1.016;-0.003;0.035;0.036651913076639175;-0.010995574295520782;0.0024434609804302454
01:00:0A:00:00:00:00;1727654436;30/09/24;00:00:36;1.017;-0.003;0.035;0.036651913076639175;-0.010995574295520782;0.0036651913542300463
01:00:0A:00:00:00:00;1727654437;30/09/24;00:00:37;1.016;-0.005;0.035;0.0354301817715168;-0.010995574295520782;0.0024434609804302454
01:00:0A:00:00:00:00;1727654438;30/09/24;00:00:38;1.016;-0.003;0.034;0.0354301817715168;-0.010995574295520782;0.0036651913542300463
01:00:0A:00:00:00:00;1727654439;30/09/24;00:00:39;1.016;-0.003;0.035;0.0354301817715168;-0.010995574295520782;0.0024434609804302454
01:00:0A:00:00:00:00;1727654440;30/09/24;00:00:40;1.016;-0.004;0.034;0.03420845419168472;-0.010995574295520782;0.0036651913542300463
01:00:0A:00:00:00:00;1727654441;30/09/24;00:00:41;1.016;-0.003;0.033;0.03420845419168472;-0.010995574295520782;0.0036651913542300463
01:00:0A:00:00:00:00;1727654442;30/09/24;00:00:42;1.017;-0.004;0.034;0.03298672288656235;-0.010995574295520782;0.0024434609804302454
01:00:0A:00:00:00:00;1727654443;30/09/24;00:00:43;1.017;-0.003;0.035;0.03298672288656235;-0.010995574295520782;0.0036651913542300463
01:00:0A:00:00:00:00;1727654444;30/09/24;00:00:44;1.016;-0.004;0.035;0.03298672288656235;-0.010995574295520782;0.0036651913542300463
01:00:0A:00:00:00:00;1727654445;30/09/24;00:00:45;1.016;-0.003;0.035;0.03298672288656235;-0.010995574295520782;0.0036651913542300463
01:00:0A:00:00:00:00;1727654446;30/09/24;00:00:46;1.017;-0.003;0.035;0.03176499158143997;-0.010995574295520782;0.0036651913542300463
01:00:0A:00:00:00:00;1727654447;30/09/24;00:00:47;1.016;-0.003;0.034;0.03176499158143997;-0.010995574295520782;0.0036651913542300463
01:00:0A:00:00:00:00;1727654448;30/09/24;00:00:48;1.016;-0.003;0.035;0.030543262138962746;-0.010995574295520782;0.0024434609804302454
01:00:0A:00:00:00:00;1727654449;30/09/24;00:00:49;1.016;-0.002;0.034;0.030543262138962746;-0.010995574295520782;0.0024434609804302454
01:00:0A:00:00:00:00;1727654450;30/09/24;00:00:50;1.016;-0.004;0.034;0.030543262138962746;-0.010995574295520782;0.0024434609804302454
01:00:0A:00:00:00:00;1727654451;30/09/24;00:00:51;1.016;-0.003;0.034;0.030543262138962746;-0.010995574295520782;0.0036651913542300463
01:00:0A:00:00:00:00;1727654452;30/09/24;00:00:52;1.016;-0.004;0.035;0.02932153083384037;-0.010995574295520782;0.0024434609804302454
01:00:0A:00:00:00:00;1727654453;30/09/24;00:00:53;1.016;-0.003;0.034;0.02932153083384037;-0.010995574295520782;0.0024434609804302454
01:00:0A:00:00:00:00;1727654454;30/09/24;00:00:54;1.016;-0.002;0.035;0.02932153083384037;-0.010995574295520782;0.0024434609804302454
01:00:0A:00:00:00:00;1727654455;30/09/24;00:00:55;1.016;-0.003;0.035;0.028099799528717995;-0.010995574295520782;0.0036651913542300463
01:00:0A:00:00:00:00;1727654456;30/09/24;00:00:56;1.016;-0.004;0.034;0.028099799528717995;-0.010995574295520782;0.0024434609804302454
01:00:0A:00:00:00:00;1727654457;30/09/24;00:00:57;1.016;-0.003;0.034;0.028099799528717995;-0.010995574295520782;0.0024434609804302454
01:00:0A:00:00:00:00;1727654458;30/09/24;00:00:58;1.016;-0.003;0.035;0.02687807008624077;-0.010995574295520782;0.0024434609804302454
01:00:0A:00:00:00:00;1727654459;30/09/24;00:00:59;1.016;-0.002;0.034;0.02687807008624077;-0.010995574295520782;0.0024434609804302454
01:00:0A:00:00:00:00;1727654460;30/09/24;00:01:00;1.017;-0.005;0.034;0.02687807008624077;-0.010995574295520782;0.0024434609804302454
01:00:0A:00:00:00:00;1727654461;30/09/24;00:01:01;1.016;-0.004;0.035;0.02687807008624077;-0.010995574295520782;0.0024434609804302454
01:00:0A:00:00:00:00;1727654462;30/09/24;00:01:02;1.016;-0.003;0.035;0.02687807008624077;-0.010995574295520782;0.0024434609804302454
01:00:0A:00:00:00:00;1727654463;30/09/24;00:01:03;1.017;-0.004;0.035;0.025656338781118393;-0.010995574295520782;0.0024434609804302454
01:00:0A:00:00:00:00;1727654464;30/09/24;00:01:04;1.016;-0.004;0.035;0.025656338781118393;-0.010995574295520782;0.0024434609804302454
01:00:0A:00:00:00:00;1727654465;30/09/24;00:01:05;1.016;-0.003;0.034;0.025656338781118393;-0.010995574295520782;0.0024434609804302454
01:00:0A:00:00:00:00;1727654466;30/09/24;00:01:06;1.016;-0.004;0.035;0.025656338781118393;-0.010995574295520782;0.0024434609804302454
01:00:0A:00:00:00:00;1727654467;30/09/24;00:01:07;1.016;-0.004;0.034;0.024434609338641167;-0.010995574295520782;0.0024434609804302454
01:00:0A:00:00:00:00;1727654468;30/09/24;00:01:08;1.016;-0.004;0.035;0.024434609338641167;-0.010995574295520782;0.0024434609804302454
01:00:0A:00:00:00:00;1727654469;30/09/24;00:01:09;1.016;-0.003;0.034;0.024434609338641167;-0.010995574295520782;0.0024434609804302454
01:00:0A:00:00:00:00;1727654470;30/09/24;00:01:10;1.016;-0.003;0.034;0.024434609338641167;-0.010995574295520782;0.0036651913542300463
01:00:0A:00:00:00:00;1727654471;30/09/24;00:01:11;1.017;-0.002;0.035;0.02321287989616394;-0.010995574295520782;0.0036651913542300463
01:00:0A:00:00:00:00;1727654471;30/09/24;00:01:11;1.017;-0.002;0.034;0.02321287989616394;-0.010995574295520782;0.0024434609804302454
01:00:0A:00:00:00:00;1727654472;30/09/24;00:01:12;1.017;-0.003;0.033;0.02321287989616394;-0.010995574295520782;0.0024434609804302454
01:00:0A:00:00:00:00;1727654473;30/09/24;00:01:13;1.017;-0.004;0.034;0.02321287989616394;-0.010995574295520782;0.0024434609804302454
01:00:0A:00:00:00:00;1727654474;30/09/24;00:01:14;1.016;-0.004;0.033;0.02321287989616394;-0.010995574295520782;0.0024434609804302454
01:00:0A:00:00:00:00;1727654475;30/09/24;00:01:15;1.016;-0.003;0.035;0.021991148591041565;-0.010995574295520782;0.0024434609804302454
01:00:0A:00:00:00:00;1727654476;30/09/24;00:01:16;1.016;-0.003;0.034;0.021991148591041565;-0.010995574295520782;0.0024434609804302454
01:00:0A:00:00:00:00;1727654477;30/09/24;00:01:17;1.016;-0.004;0.034;0.021991148591041565;-0.010995574295520782;0.0024434609804302454
01:00:0A:00:00:00:00;1727654478;30/09/24;00:01:18;1.017;-0.002;0.035;0.021991148591041565;-0.010995574295520782;0.0024434609804302454
01:00:0A:00:00:00:00;1727654479;30/09/24;00:01:19;1.016;-0.004;0.035;0.021991148591041565;-0.010995574295520782;0.0036651913542300463
01:00:0A:00:00:00:00;1727654480;30/09/24;00:01:20;1.018;-0.004;0.034;0.02076941914856434;-0.010995574295520782;0.0024434609804302454
01:00:0A:00:00:00:00;1727654481;30/09/24;00:01:21;1.017;-0.004;0.035;0.02076941914856434;-0.010995574295520782;0.0036651913542300463
01:00:0A:00:00:00:00;1727654482;30/09/24;00:01:22;1.016;-0.004;0.034;0.02076941914856434;-0.010995574295520782;0.0036651913542300463
01:00:0A:00:00:00:00;1727654483;30/09/24;00:01:23;1.017;-0.003;0.034;0.02076941914856434;-0.010995574295520782;0.0024434609804302454
01:00:0A:00:00:00:00;1727654484;30/09/24;00:01:24;1.016;-0.002;0.035;0.02076941914856434;-0.010995574295520782;0.0024434609804302454
01:00:0A:00:00:00:00;1727654485;30/09/24;00:01:25;1.016;-0.003;0.034;0.02076941914856434;-0.010995574295520782;0.0024434609804302454
01:00:0A:00:00:00:00;1727654486;30/09/24;00:01:26;1.016;-0.003;0.033;0.019547687843441963;-0.010995574295520782;0.0024434609804302454
01:00:0A:00:00:00:00;1727654487;30/09/24;00:01:27;1.016;-0.003;0.034;0.019547687843441963;-0.010995574295520782;0.0024434609804302454
01:00:0A:00:00:00:00;1727654488;30/09/24;00:01:28;1.017;-0.003;0.034;0.019547687843441963;-0.010995574295520782;0.0024434609804302454
01:00:0A:00:00:00:00;1727654489;30/09/24;00:01:29;1.017;-0.003;0.034;0.019547687843441963;-0.010995574295520782;0.0024434609804302454
01:00:0A:00:00:00:00;1727654490;30/09/24;00:01:30;1.016;-0.003;0.034;0.019547687843441963;-0.010995574295520782;0.0024434609804302454
01:00:0A:00:00:00:00;1727654491;30/09/24;00:01:31;1.017;-0.004;0.033;0.019547687843441963;-0.010995574295520782;0.0024434609804302454
01:00:0A:00:00:00:00;1727654492;30/09/24;00:01:32;1.016;-0.003;0.035;0.018325956538319588;-0.010995574295520782;0.0024434609804302454
01:00:0A:00:00:00:00;1727654493;30/09/24;00:01:33;1.016;-0.004;0.035;0.018325956538319588;-0.010995574295520782;0.0024434609804302454
01:00:0A:00:00:00:00;1727654494;30/09/24;00:01:34;1.016;-0.003;0.034;0.018325956538319588;-0.010995574295520782;0.0036651913542300463
01:00:0A:00:00:00:00;1727654495;30/09/24;00:01:35;1.017;-0.004;0.034;0.018325956538319588;-0.010995574295520782;0.0024434609804302454
01:00:0A:00:00:00:00;1727654496;30/09/24;00:01:36;1.016;-0.004;0.036;0.018325956538319588;-0.010995574295520782;0.0024434609804302454
01:00:0A:00:00:00:00;1727654497;30/09/24;00:01:37;1.017;-0.004;0.034;0.018325956538319588;-0.010995574295520782;0.0036651913542300463
01:00:0A:00:00:00:00;1727654498;30/09/24;00:01:38;1.016;-0.004;0.034;0.01710422709584236;-0.010995574295520782;0.0024434609804302454
01:00:0A:00:00:00:00;1727654499;30/09/24;00:01:39;1.016;-0.004;0.035;0.018325956538319588;-0.010995574295520782;0.0036651913542300463
01:00:0A:00:00:00:00;1727654500;30/09/24;00:01:40;1.016;-0.003;0.034;0.01710422709584236;-0.010995574295520782;0.0024434609804302454
01:00:0A:00:00:00:00;1727654501;30/09/24;00:01:41;1.016;-0.003;0.035;0.01710422709584236;-0.010995574295520782;0.0024434609804302454
01:00:0A:00:00:00:00;1727654502;30/09/24;00:01:42;1.016;-0.004;0.035;0.01710422709584236;-0.010995574295520782;0.0024434609804302454
01:00:0A:00:00:00:00;1727654503;30/09/24;00:01:43;1.017;-0.003;0.034;0.01710422709584236;-0.010995574295520782;0.0036651913542300463
01:00:0A:00:00:00:00;1727654504;30/09/24;00:01:44;1.016;-0.004;0.035;0.01710422709584236;-0.010995574295520782;0.0024434609804302454
01:00:0A:00:00:00:00;1727654505;30/09/24;00:01:45;1.016;-0.003;0.034;0.015882495790719986;-0.010995574295520782;0.0024434609804302454
01:00:0A:00:00:00:00;1727654506;30/09/24;00:01:46;1.016;-0.004;0.033;0.015882495790719986;-0.010995574295520782;0.0024434609804302454
01:00:0A:00:00:00:00;1727654507;30/09/24;00:01:47;1.017;-0.002;0.035;0.015882495790719986;-0.010995574295520782;0.0024434609804302454
01:00:0A:00:00:00:00;1727654508;30/09/24;00:01:48;1.017;-0.003;0.034;0.015882495790719986;-0.010995574295520782;0.0024434609804302454
01:00:0A:00:00:00:00;1727654509;30/09/24;00:01:49;1.016;-0.003;0.034;0.015882495790719986;-0.010995574295520782;0.0024434609804302454
01:00:0A:00:00:00:00;1727654510;30/09/24;00:01:50;1.017;-0.003;0.033;0.015882495790719986;-0.010995574295520782;0.0024434609804302454
01:00:0A:00:00:00:00;1727654511;30/09/24;00:01:51;1.016;-0.004;0.034;0.015882495790719986;-0.010995574295520782;0.0024434609804302454
01:00:0A:00:00:00:00;1727654512;30/09/24;00:01:52;1.016;-0.004;0.035;0.014660765416920185;-0.010995574295520782;0.0024434609804302454
01:00:0A:00:00:00:00;1727654513;30/09/24;00:01:53;1.016;-0.003;0.034;0.014660765416920185;-0.010995574295520782;0.0024434609804302454
01:00:0A:00:00:00:00;1727654514;30/09/24;00:01:54;1.017;-0.003;0.034;0.014660765416920185;-0.010995574295520782;0.0024434609804302454
01:00:0A:00:00:00:00;1727654515;30/09/24;00:01:55;1.016;-0.003;0.034;0.014660765416920185;-0.010995574295520782;0.0024434609804302454
01:00:0A:00:00:00:00;1727654516;30/09/24;00:01:56;1.016;-0.003;0.035;0.014660765416920185;-0.010995574295520782;0.0024434609804302454
01:00:0A:00:00:00:00;1727654517;30/09/24;00:01:57;1.016;-0.003;0.034;0.014660765416920185;-0.010995574295520782;0.0024434609804302454
01:00:0A:00:00:00:00;1727654518;30/09/24;00:01:58;1.016;-0.003;0.034;0.014660765416920185;-0.010995574295520782;0.0024434609804302454
01:00:0A:00:00:00:00;1727654519;30/09/24;00:01:59;1.015;-0.004;0.034;0.014660765416920185;-0.010995574295520782;0.0024434609804302454
01:00:0A:00:00:00:00;1727654520;30/09/24;00:02:00;1.017;-0.002;0.035;0.014660765416920185;-0.010995574295520782;0.0024434609804302454
01:00:0A:00:00:00:00;1727654521;30/09/24;00:02:01;1.016;-0.004;0.035;0.013439035043120384;-0.010995574295520782;0.0024434609804302454
01:00:0A:00:00:00:00;1727654522;30/09/24;00:02:02;1.016;-0.003;0.035;0.013439035043120384;-0.010995574295520782;0.0024434609804302454
01:00:0A:00:00:00:00;1727654523;30/09/24;00:02:03;1.016;-0.004;0.034;0.013439035043120384;-0.010995574295520782;0.0024434609804302454
01:00:0A:00:00:00:00;1727654524;30/09/24;00:02:04;1.016;-0.003;0.034;0.013439035043120384;-0.010995574295520782;0.0024434609804302454
01:00:0A:00:00:00:00;1727654525;30/09/24;00:02:05;1.016;-0.004;0.034;0.013439035043120384;-0.010995574295520782;0.0024434609804302454
01:00:0A:00:00:00:00;1727654526;30/09/24;00:02:06;1.016;-0.003;0.034;0.013439035043120384;-0.010995574295520782;0.0024434609804302454
01:00:0A:00:00:00:00;1727654527;30/09/24;00:02:07;1.016;-0.003;0.035;0.013439035043120384;-0.010995574295520782;0.0024434609804302454
01:00:0A:00:00:00:00;1727654528;30/09/24;00:02:08;1.016;-0.004;0.034;0.012217304669320583;-0.010995574295520782;0.0024434609804302454
01:00:0A:00:00:00:00;1727654529;30/09/24;00:02:09;1.016;-0.004;0.035;0.013439035043120384;-0.010995574295520782;0.0024434609804302454
01:00:0A:00:00:00:00;1727654530;30/09/24;00:02:10;1.017;-0.004;0.034;0.012217304669320583;-0.010995574295520782;0.0024434609804302454
01:00:0A:00:00:00:00;1727654531;30/09/24;00:02:11;1.016;-0.004;0.035;0.013439035043120384;-0.010995574295520782;0.0024434609804302454
01:00:0A:00:00:00:00;1727654532;30/09/24;00:02:12;1.016;-0.004;0.035;0.012217304669320583;-0.010995574295520782;0.0024434609804302454
01:00:0A:00:00:00:00;1727654533;30/09/24;00:02:13;1.016;-0.004;0.034;0.012217304669320583;-0.010995574295520782;0.0024434609804302454
01:00:0A:00:00:00:00;1727654534;30/09/24;00:02:14;1.016;-0.004;0.035;0.012217304669320583;-0.010995574295520782;0.0024434609804302454
01:00:0A:00:00:00:00;1727654535;30/09/24;00:02:15;1.016;-0.004;0.034;0.012217304669320583;-0.010995574295520782;0.0024434609804302454
01:00:0A:00:00:00:00;1727654536;30/09/24;00:02:16;1.017;-0.004;0.035;0.012217304669320583;-0.010995574295520782;0.0024434609804302454
01:00:0A:00:00:00:00;1727654537;30/09/24;00:02:17;1.016;-0.004;0.035;0.012217304669320583;-0.010995574295520782;0.0024434609804302454
01:00:0A:00:00:00:00;1727654538;30/09/24;00:02:18;1.017;-0.004;0.034;0.012217304669320583;-0.010995574295520782;0.0024434609804302454
01:00:0A:00:00:00:00;1727654539;30/09/24;00:02:19;1.016;-0.004;0.035;0.012217304669320583;-0.010995574295520782;0.0024434609804302454
01:00:0A:00:00:00:00;1727654540;30/09/24;00:02:20;1.016;-0.004;0.034;0.012217304669320583;-0.010995574295520782;0.0024434609804302454
01:00:0A:00:00:00:00;1727654541;30/09/24;00:02:21;1.016;-0.004;0.034;0.010995574295520782;-0.010995574295520782;0.0024434609804302454
01:00:0A:00:00:00:00;1727654542;30/09/24;00:02:22;1.016;-0.003;0.035;0.010995574295520782;-0.010995574295520782;0.0024434609804302454
01:00:0A:00:00:00:00;1727654543;30/09/24;00:02:23;1.016;-0.003;0.034;0.010995574295520782;-0.010995574295520782;0.0024434609804302454
01:00:0A:00:00:00:00;1727654544;30/09/24;00:02:24;1.016;-0.003;0.035;0.010995574295520782;-0.010995574295520782;0.0024434609804302454
01:00:0A:00:00:00:00;1727654545;30/09/24;00:02:25;1.016;-0.004;0.034;0.010995574295520782;-0.010995574295520782;0.0024434609804302454
01:00:0A:00:00:00:00;1727654546;30/09/24;00:02:26;1.016;-0.003;0.034;0.010995574295520782;-0.010995574295520782;0.0024434609804302454
01:00:0A:00:00:00:00;1727654547;30/09/24;00:02:27;1.016;-0.004;0.035;0.010995574295520782;-0.010995574295520782;0.0024434609804302454
01:00:0A:00:00:00:00;1727654548;30/09/24;00:02:28;1.016;-0.004;0.034;0.010995574295520782;-0.010995574295520782;0.0024434609804302454
01:00:0A:00:00:00:00;1727654549;30/09/24;00:02:29;1.016;-0.004;0.034;0.010995574295520782;-0.010995574295520782;0.0024434609804302454
01:00:0A:00:00:00:00;1727654550;30/09/24;00:02:30;1.017;-0.003;0.035;0.010995574295520782;-0.010995574295520782;0.0024434609804302454
01:00:0A:00:00:00:00;1727654551;30/09/24;00:02:31;1.016;-0.003;0.034;0.010995574295520782;-0.010995574295520782;0.0024434609804302454
01:00:0A:00:00:00:00;1727654552;30/09/24;00:02:32;1.016;-0.004;0.034;0.010995574295520782;-0.010995574295520782;0.0024434609804302454
01:00:0A:00:00:00:00;1727654553;30/09/24;00:02:33;1.016;-0.003;0.034;0.009773843921720982;-0.010995574295520782;0.0024434609804302454
01:00:0A:00:00:00:00;1727654554;30/09/24;00:02:34;1.016;-0.003;0.035;0.009773843921720982;-0.010995574295520782;0.0024434609804302454
01:00:0A:00:00:00:00;1727654555;30/09/24;00:02:35;1.016;-0.002;0.035;0.009773843921720982;-0.010995574295520782;0.0024434609804302454
01:00:0A:00:00:00:00;1727654556;30/09/24;00:02:36;1.017;-0.003;0.035;0.009773843921720982;-0.010995574295520782;0.0024434609804302454
01:00:0A:00:00:00:00;1727654557;30/09/24;00:02:37;1.016;-0.003;0.035;0.009773843921720982;-0.010995574295520782;0.0024434609804302454
01:00:0A:00:00:00:00;1727654558;30/09/24;00:02:38;1.016;-0.003;0.034;0.009773843921720982;-0.010995574295520782;0.0024434609804302454
01:00:0A:00:00:00:00;1727654559;30/09/24;00:02:39;1.016;-0.004;0.035;0.009773843921720982;-0.010995574295520782;0.0024434609804302454
01:00:0A:00:00:00:00;1727654560;30/09/24;00:02:40;1.016;-0.002;0.034;0.009773843921720982;-0.010995574295520782;0.0024434609804302454
01:00:0A:00:00:00:00;1727654561;30/09/24;00:02:41;1.016;-0.002;0.035;0.009773843921720982;-0.010995574295520782;0.0024434609804302454
01:00:0A:00:00:00:00;1727654562;30/09/24;00:02:42;1.017;-0.003;0.033;0.009773843921720982;-0.010995574295520782;0.0024434609804302454
01:00:0A:00:00:00:00;1727654563;30/09/24;00:02:43;1.016;-0.003;0.034;0.00855211354792118;-0.010995574295520782;0.0024434609804302454
01:00:0A:00:00:00:00;1727654564;30/09/24;00:02:44;1.016;-0.002;0.034;0.00855211354792118;-0.010995574295520782;0.0024434609804302454
01:00:0A:00:00:00:00;1727654565;30/09/24;00:02:45;1.017;-0.004;0.034;0.00855211354792118;-0.010995574295520782;0.0024434609804302454
01:00:0A:00:00:00:00;1727654566;30/09/24;00:02:46;1.016;-0.003;0.034;0.00855211354792118;-0.010995574295520782;0.0024434609804302454
01:00:0A:00:00:00:00;1727654567;30/09/24;00:02:47;1.016;-0.003;0.034;0.00855211354792118;-0.010995574295520782;0.0024434609804302454
01:00:0A:00:00:00:00;1727654568;30/09/24;00:02:48;1.016;-0.004;0.035;0.00855211354792118;-0.010995574295520782;0.0024434609804302454
01:00:0A:00:00:00:00;1727654569;30/09/24;00:02:49;1.016;-0.004;0.034;0.00855211354792118;-0.010995574295520782;0.0024434609804302454
01:00:0A:00:00:00:00;1727654570;30/09/24;00:02:50;1.016;-0.003;0.035;0.00855211354792118;-0.010995574295520782;0.0024434609804302454
01:00:0A:00:00:00:00;1727654571;30/09/24;00:02:51;1.017;-0.004;0.035;0.00855211354792118;-0.010995574295520782;0.0024434609804302454
01:00:0A:00:00:00:00;1727654572;30/09/24;00:02:52;1.016;-0.004;0.034;0.00855211354792118;-0.010995574295520782;0.0036651913542300463
01:00:0A:00:00:00:00;1727654573;30/09/24;00:02:53;1.016;-0.004;0.035;0.00855211354792118;-0.010995574295520782;0.0036651913542300463
01:00:0A:00:00:00:00;1727654574;30/09/24;00:02:54;1.015;-0.003;0.035;0.0073303827084600925;-0.010995574295520782;0.0024434609804302454
01:00:0A:00:00:00:00;1727654575;30/09/24;00:02:55;1.016;-0.004;0.035;0.0073303827084600925;-0.010995574295520782;0.0024434609804302454
01:00:0A:00:00:00:00;1727654576;30/09/24;00:02:56;1.017;-0.003;0.035;0.0073303827084600925;-0.010995574295520782;0.0024434609804302454
01:00:0A:00:00:00:00;1727654577;30/09/24;00:02:57;1.016;-0.003;0.034;0.0073303827084600925;-0.010995574295520782;0.0024434609804302454
01:00:0A:00:00:00:00;1727654578;30/09/24;00:02:58;1.016;-0.003;0.034;0.0073303827084600925;-0.010995574295520782;0.0024434609804302454
01:00:0A:00:00:00:00;1727654579;30/09/24;00:02:59;1.016;-0.003;0.035;0.0073303827084600925;-0.010995574295520782;0.0024434609804302454
01:00:0A:00:00:00:00;1727654580;30/09/24;00:03:00;1.017;-0.004;0.035;0.0073303827084600925;-0.010995574295520782;0.0024434609804302454
01:00:0A:00:00:00:00;1727654581;30/09/24;00:03:01;1.015;-0.003;0.034;0.0073303827084600925;-0.010995574295520782;0.0024434609804302454
01:00:0A:00:00:00:00;1727654582;30/09/24;00:03:02;1.016;-0.003;0.034;0.0073303827084600925;-0.010995574295520782;0.0024434609804302454
01:00:0A:00:00:00:00;1727654583;30/09/24;00:03:03;1.016;-0.003;0.034;0.0073303827084600925;-0.010995574295520782;0.0024434609804302454
01:00:0A:00:00:00:00;1727654584;30/09/24;00:03:04;1.016;-0.003;0.035;0.0073303827084600925;-0.010995574295520782;0.0024434609804302454
01:00:0A:00:00:00:00;1727654585;30/09/24;00:03:05;1.016;-0.003;0.035;0.0073303827084600925;-0.010995574295520782;0.0036651913542300463
01:00:0A:00:00:00:00;1727654586;30/09/24;00:03:06;1.017;-0.003;0.034;0.0073303827084600925;-0.010995574295520782;0.0024434609804302454
01:00:0A:00:00:00:00;1727654587;30/09/24;00:03:07;1.016;-0.003;0.035;0.006108652334660292;-0.010995574295520782;0.0024434609804302454
01:00:0A:00:00:00:00;1727654588;30/09/24;00:03:08;1.016;-0.004;0.035;0.006108652334660292;-0.010995574295520782;0.0024434609804302454
01:00:0A:00:00:00:00;1727654589;30/09/24;00:03:09;1.016;-0.003;0.034;0.006108652334660292;-0.010995574295520782;0.0024434609804302454
01:00:0A:00:00:00:00;1727654590;30/09/24;00:03:10;1.016;-0.003;0.034;0.006108652334660292;-0.010995574295520782;0.0024434609804302454
01:00:0A:00:00:00:00;1727654591;30/09/24;00:03:11;1.016;-0.003;0.034;0.006108652334660292;-0.010995574295520782;0.0024434609804302454
01:00:0A:00:00:00:00;1727654592;30/09/24;00:03:12;1.016;-0.004;0.035;0.006108652334660292;-0.010995574295520782;0.0024434609804302454
01:00:0A:00:00:00:00;1727654593;30/09/24;00:03:13;1.016;-0.003;0.036;0.006108652334660292;-0.010995574295520782;0.0024434609804302454
01:00:0A:00:00:00:00;1727654594;30/09/24;00:03:14;1.016;-0.003;0.035;0.006108652334660292;-0.010995574295520782;0.0024434609804302454
01:00:0A:00:00:00:00;1727654595;30/09/24;00:03:15;1.016;-0.004;0.035;0.006108652334660292;-0.010995574295520782;0.0024434609804302454
01:00:0A:00:00:00:00;1727654596;30/09/24;00:03:16;1.016;-0.003;0.035;0.004886921960860491;-0.010995574295520782;0.0024434609804302454
01:00:0A:00:00:00:00;1727654597;30/09/24;00:03:17;1.016;-0.003;0.034;0.006108652334660292;-0.010995574295520782;0.0024434609804302454
01:00:0A:00:00:00:00;1727654598;30/09/24;00:03:18;1.016;-0.003;0.034;0.004886921960860491;-0.010995574295520782;0.0024434609804302454
01:00:0A:00:00:00:00;1727654599;30/09/24;00:03:19;1.016;-0.003;0.034;0.004886921960860491;-0.010995574295520782;0.0024434609804302454
01:00:0A:00:00:00:00;1727654600;30/09/24;00:03:20;1.017;-0.004;0.034;0.004886921960860491;-0.010995574295520782;0.0024434609804302454
01:00:0A:00:00:00:00;1727654601;30/09/24;00:03:21;1.016;-0.004;0.034;0.004886921960860491;-0.010995574295520782;0.0024434609804302454
01:00:0A:00:00:00:00;1727654602;30/09/24;00:03:22;1.016;-0.004;0.034;0.004886921960860491;-0.010995574295520782;0.0024434609804302454
01:00:0A:00:00:00:00;1727654603;30/09/24;00:03:23;1.016;-0.003;0.035;0.004886921960860491;-0.010995574295520782;0.0024434609804302454
01:00:0A:00:00:00:00;1727654604;30/09/24;00:03:24;1.017;-0.003;0.034;0.004886921960860491;-0.010995574295520782;0.0024434609804302454
01:00:0A:00:00:00:00;1727654605;30/09/24;00:03:25;1.017;-0.004;0.034;0.004886921960860491;-0.010995574295520782;0.0024434609804302454
01:00:0A:00:00:00:00;1727654606;30/09/24;00:03:26;1.016;-0.003;0.034;0.004886921960860491;-0.012217304669320583;0.0024434609804302454
01:00:0A:00:00:00:00;1727654607;30/09/24;00:03:27;1.016;-0.003;0.036;0.004886921960860491;-0.010995574295520782;0.0024434609804302454
01:00:0A:00:00:00:00;1727654608;30/09/24;00:03:28;1.016;-0.002;0.035;0.004886921960860491;-0.010995574295520782;0.0024434609804302454
01:00:0A:00:00:00:00;1727654609;30/09/24;00:03:29;1.016;-0.003;0.035;0.004886921960860491;-0.010995574295520782;0.0024434609804302454
01:00:0A:00:00:00:00;1727654610;30/09/24;00:03:30;1.017;-0.003;0.035;0.0036651913542300463;-0.010995574295520782;0.0024434609804302454
01:00:0A:00:00:00:00;1727654611;30/09/24;00:03:31;1.016;-0.004;0.035;0.0036651913542300463;-0.010995574295520782;0.0024434609804302454
01:00:0A:00:00:00:00;1727654612;30/09/24;00:03:32;1.016;-0.003;0.034;0.0036651913542300463;-0.010995574295520782;0.0024434609804302454
01:00:0A:00:00:00:00;1727654613;30/09/24;00:03:33;1.016;-0.005;0.035;0.0036651913542300463;-0.010995574295520782;0.0024434609804302454
01:00:0A:00:00:00:00;1727654614;30/09/24;00:03:34;1.016;-0.003;0.034;0.0036651913542300463;-0.010995574295520782;0.0024434609804302454
01:00:0A:00:00:00:00;1727654615;30/09/24;00:03:35;1.016;-0.003;0.036;0.0036651913542300463;-0.010995574295520782;0.0024434609804302454
01:00:0A:00:00:00:00;1727654616;30/09/24;00:03:36;1.016;-0.003;0.035;0.0036651913542300463;-0.010995574295520782;0.0024434609804302454
01:00:0A:00:00:00:00;1727654617;30/09/24;00:03:37;1.016;-0.004;0.034;0.0036651913542300463;-0.010995574295520782;0.0024434609804302454
01:00:0A:00:00:00:00;1727654618;30/09/24;00:03:38;1.016;-0.004;0.035;0.0036651913542300463;-0.010995574295520782;0.0024434609804302454
01:00:0A:00:00:00:00;1727654619;30/09/24;00:03:39;1.016;-0.004;0.035;0.0036651913542300463;-0.010995574295520782;0.0024434609804302454
01:00:0A:00:00:00:00;1727654620;30/09/24;00:03:40;1.016;-0.003;0.035;0.0036651913542300463;-0.010995574295520782;0.0024434609804302454
01:00:0A:00:00:00:00;1727654621;30/09/24;00:03:41;1.016;-0.004;0.034;0.0036651913542300463;-0.010995574295520782;0.0024434609804302454
01:00:0A:00:00:00:00;1727654622;30/09/24;00:03:42;1.017;-0.003;0.035;0.0036651913542300463;-0.010995574295520782;0.0024434609804302454
01:00:0A:00:00:00:00;1727654623;30/09/24;00:03:43;1.017;-0.003;0.035;0.0036651913542300463;-0.010995574295520782;0.0024434609804302454
01:00:0A:00:00:00:00;1727654624;30/09/24;00:03:44;1.017;-0.004;0.034;0.0036651913542300463;-0.010995574295520782;0.0024434609804302454
01:00:0A:00:00:00:00;1727654625;30/09/24;00:03:45;1.017;-0.003;0.034;0.0036651913542300463;-0.010995574295520782;0.0024434609804302454
01:00:0A:00:00:00:00;1727654626;30/09/24;00:03:46;1.016;-0.003;0.034;0.0024434609804302454;-0.010995574295520782;0.0024434609804302454
01:00:0A:00:00:00:00;1727654627;30/09/24;00:03:47;1.016;-0.004;0.034;0.0024434609804302454;-0.010995574295520782;0.0024434609804302454
01:00:0A:00:00:00:00;1727654628;30/09/24;00:03:48;1.016;-0.004;0.034;0.0024434609804302454;-0.010995574295520782;0.0024434609804302454
01:00:0A:00:00:00:00;1727654629;30/09/24;00:03:49;1.016;-0.003;0.035;0.0036651913542300463;-0.010995574295520782;0.0024434609804302454
01:00:0A:00:00:00:00;1727654630;30/09/24;00:03:50;1.016;-0.004;0.034;0.0024434609804302454;-0.010995574295520782;0.0024434609804302454
01:00:0A:00:00:00:00;1727654631;30/09/24;00:03:51;1.016;-0.004;0.035;0.0024434609804302454;-0.010995574295520782;0.0024434609804302454
01:00:0A:00:00:00:00;1727654632;30/09/24;00:03:52;1.016;-0.004;0.035;0.0024434609804302454;-0.010995574295520782;0.0024434609804302454
01:00:0A:00:00:00:00;1727654633;30/09/24;00:03:53;1.017;-0.004;0.035;0.0024434609804302454;-0.010995574295520782;0.0024434609804302454
01:00:0A:00:00:00:00;1727654634;30/09/24;00:03:54;1.016;-0.003;0.035;0.0024434609804302454;-0.010995574295520782;0.0024434609804302454
01:00:0A:00:00:00:00;1727654635;30/09/24;00:03:55;1.016;-0.005;0.034;0.0024434609804302454;-0.010995574295520782;0.0024434609804302454
01:00:0A:00:00:00:00;1727654636;30/09/24;00:03:56;1.016;-0.003;0.034;0.0024434609804302454;-0.010995574295520782;0.0024434609804302454
01:00:0A:00:00:00:00;1727654637;30/09/24;00:03:57;1.016;-0.003;0.034;0.0024434609804302454;-0.010995574295520782;0.0024434609804302454
01:00:0A:00:00:00:00;1727654638;30/09/24;00:03:58;1.016;-0.003;0.035;0.0024434609804302454;-0.010995574295520782;0.0024434609804302454
01:00:0A:00:00:00:00;1727654639;30/09/24;00:03:59;1.016;-0.004;0.034;0.0024434609804302454;-0.010995574295520782;0.0024434609804302454
01:00:0A:00:00:00:00;1727654640;30/09/24;00:04:00;1.016;-0.003;0.035;0.0024434609804302454;-0.010995574295520782;0.0024434609804302454
01:00:0A:00:00:00:00;1727654641;30/09/24;00:04:01;1.016;-0.004;0.035;0.0024434609804302454;-0.010995574295520782;0.0024434609804302454
01:00:0A:00:00:00:00;1727654642;30/09/24;00:04:02;1.016;-0.003;0.035;0.0024434609804302454;-0.010995574295520782;0.0024434609804302454
01:00:0A:00:00:00:00;1727654643;30/09/24;00:04:03;1.016;-0.003;0.035;0.0024434609804302454;-0.010995574295520782;0.0024434609804302454
01:00:0A:00:00:00:00;1727654644;30/09/24;00:04:04;1.017;-0.003;0.035;0.0024434609804302454;-0.010995574295520782;0.0024434609804302454
01:00:0A:00:00:00:00;1727654645;30/09/24;00:04:05;1.016;-0.003;0.034;0.0024434609804302454;-0.010995574295520782;0.0024434609804302454
01:00:0A:00:00:00:00;1727654646;30/09/24;00:04:06;1.016;-0.003;0.034;0.0024434609804302454;-0.010995574295520782;0.0024434609804302454
01:00:0A:00:00:00:00;1727654647;30/09/24;00:04:07;1.016;-0.004;0.035;0.0024434609804302454;-0.010995574295520782;0.0024434609804302454
01:00:0A:00:00:00:00;1727654658;30/09/24;00:04:18;0.809;-0.722;-0.449;0.9969320893287659;-0.6524040699005127;2.8466320037841797
01:00:0A:00:00:00:00;1727654659;30/09/24;00:04:19;0.89;0.314;-0.016;0.14416420459747314;-0.6633996367454529;0.1417207270860672
01:00:0A:00:00:00:00;1727654660;30/09/24;00:04:20;1.006;0.088;-0.116;-0.8271114826202393;0.62796950340271;0.1014036238193512
01:00:0A:00:00:00:00;1727654661;30/09/24;00:04:21;0.973;-0.218;0.081;-1.3390165567398071;-0.9272934198379517;-0.006108652334660292
01:00:0A:00:00:00:00;1727654662;30/09/24;00:04:22;0.978;-0.056;0.317;-0.8930849432945251;0.7867944240570068;0.21868975460529327
01:00:0A:00:00:00:00;1727654663;30/09/24;00:04:23;1.03;-0.313;0.076;-0.294437050819397;-0.45204028487205505;-0.7183775305747986
01:00:0A:00:00:00:00;1727654664;30/09/24;00:04:24;0.914;0.41;0.007;-0.5375614166259766;-0.09162978082895279;-0.49724429845809937
01:00:0A:00:00:00:00;1727654665;30/09/24;00:04:25;0.865;0.345;-0.452;-1.5515977144241333;-1.1985175609588623;0.8124507665634155
01:00:0A:00:00:00:00;1727654666;30/09/24;00:04:26;1.06;0.161;-0.081;-1.4477505683898926;0.09773843735456467;0.5155702233314514
01:00:0A:00:00:00:00;1727654667;30/09/24;00:04:27;0.988;0.067;0.291;-0.9773843884468079;0.05009094998240471;-0.1966986060142517
01:00:0A:00:00:00:00;1727654668;30/09/24;00:04:28;0.73;0.216;-0.663;-0.9346237778663635;0.4593706727027893;-0.04153883829712868
01:00:0A:00:00:00:00;1727654669;30/09/24;00:04:29;0.995;-0.05;0.024;-1.0250318050384521;-0.34208452701568604;1.4831807613372803
01:00:0A:00:00:00:00;1727654670;30/09/24;00:04:30;0.618;-0.811;-0.338;1.3512338399887085;0.2626720666885376;1.7605135440826416
01:00:0A:00:00:00:00;1727654671;30/09/24;00:04:31;1.042;-0.005;0.219;0.6511822938919067;-0.6902776956558228;-0.29565879702568054
01:00:0A:00:00:00:00;1727654672;30/09/24;00:04:32;1.014;-0.154;0.276;0.39217546582221985;0.22602014243602753;0.2480112910270691
01:00:0A:00:00:00:00;1727654673;30/09/24;00:04:33;0.993;-0.175;-0.111;0.44715335965156555;-0.436157763004303;-0.036651913076639175
01:00:0A:00:00:00:00;1727654674;30/09/24;00:04:34;1.001;0.032;0.085;0.39706242084503174;0.20402899384498596;-0.49235740303993225
01:00:0A:00:00:00:00;1727654675;30/09/24;00:04:35;0.659;-0.477;-0.706;0.5571090579032898;0.8710938096046448;-0.08796459436416626
01:00:0A:00:00:00:00;1727654676;30/09/24;00:04:36;1.037;0.059;0.301;0.5082398653030396;0.6291911602020264;-0.44348815083503723
01:00:0A:00:00:00:00;1727654677;30/09/24;00:04:37;0.965;0.165;0.493;0.22968533635139465;-0.4691444933414459;-0.3237585723400116
01:00:0A:00:00:00:00;1727654678;30/09/24;00:04:38;0.86;0.569;-0.15;-0.013439035043120384;-0.2076941877603531;0.4239404499530792
01:00:0A:00:00:00:00;1727654679;30/09/24;00:04:39;1.026;0.137;-0.063;-0.26145032048225403;0.09896016865968704;0.24556782841682434
01:00:0A:00:00:00:00;1727654680;30/09/24;00:04:40;1.013;-0.168;0.328;-0.23090705275535583;0.13561207056045532;0.04153883829712868
01:00:0A:00:00:00:00;1727654681;30/09/24;00:04:41;0.989;-0.301;0.133;-0.1820378452539444;-0.4447098970413208;0.32131510972976685
01:00:0A:00:00:00:00;1727654682;30/09/24;00:04:42;0.894;-0.433;0.202;-0.6047565937042236;-0.4899139106273651;-0.7574728727340698
01:00:0A:00:00:00:00;1727654683;30/09/24;00:04:43;0.935;0.092;0.396;-0.5106833577156067;0.4862487316131592;-0.32009339332580566
01:00:0A:00:00:00:00;1727654684;30/09/24;00:04:44;0.719;0.149;0.688;-0.5180137157440186;-1.205847978591919;-0.6609562039375305
01:00:0A:00:00:00:00;1727654685;30/09/24;00:04:45;0.988;0.05;-0.101;-0.8808676600456238;-0.08307767659425735;1.017701506614685
01:00:0A:00:00:00:00;1727654686;30/09/24;00:04:46;1.003;-0.277;-0.051;-0.7269296050071716;0.1576032191514969;-0.2919935882091522
01:00:0A:00:00:00:00;1727654687;30/09/24;00:04:47;0.939;0.421;-0.177;-0.7244861721992493;-0.3078760802745819;0.15393804013729095
01:00:0A:00:00:00:00;1727654688;30/09/24;00:04:48;1.005;0.087;-0.219;-0.5326744914054871;0.3787364363670349;0.08674286305904388
01:00:0A:00:00:00:00;1727654689;30/09/24;00:04:49;1.002;-0.149;0.284;-0.41661006212234497;0.04153883829712868;0.12339477241039276
01:00:0A:00:00:00:00;1727654690;30/09/24;00:04:50;1.044;-0.06;-0.025;-0.21135938167572021;-0.1576032191514969;-0.16371189057826996
01:00:0A:00:00:00:00;1727654691;30/09/24;00:04:51;0.996;0.298;0.09;-0.21991148591041565;0.17592918872833252;0.8442157506942749
01:00:0A:00:00:00:00;1727654692;30/09/24;00:04:52;1.028;0.123;0.037;0.025656338781118393;0.07696902006864548;-0.797789990901947
01:00:0A:00:00:00:00;1727654693;30/09/24;00:04:53;1.088;-0.021;0.175;-0.05742133408784866;0.08796459436416626;0.4642575681209564
01:00:0A:00:00:00:00;1727654694;30/09/24;00:04:54;0.949;-0.386;0.303;0.18081611394882202;0.3628539443016052;-0.3237585723400116
01:00:0A:00:00:00:00;1727654695;30/09/24;00:04:55;0.741;0.672;0.256;-0.05742133408784866;0.22479839622974396;-0.28099802136421204
01:00:0A:00:00:00:00;1727654696;30/09/24;00:04:56;0.978;0.166;0.196;-0.4752531349658966;-1.016479730606079;0.6976081132888794
01:00:0A:00:00:00:00;1727654697;30/09/24;00:04:57;0.681;-0.353;-0.71;0.8857545852661133;-0.49357908964157104;0.1673770695924759
01:00:0A:00:00:00:00;1727654698;30/09/24;00:04:58;0.69;-0.542;-0.671;-0.1062905490398407;0.6475171446800232;0.4899139106273651
01:00:0A:00:00:00:00;1727654699;30/09/24;00:04:59;0.808;-0.382;0.175;-0.17470745742321014;0.9004153609275818;-1.9559904336929321
01:00:0A:00:00:00:00;1727654700;30/09/24;00:05:00;0.743;0.47;0.125;-1.1716395616531372;-1.2290607690811157;-0.9028588533401489
01:00:0A:00:00:00:00;1727654701;30/09/24;00:05:01;0.689;0.888;0.193;0.9443976283073425;0.22357667982578278;-1.673770785331726
01:00:0A:00:00:00:00;1727654702;30/09/24;00:05:02;0.668;0.543;0.708;0.3897320330142975;1.2864822149276733;-1.4465289115905762
01:00:0A:00:00:00:00;1727654703;30/09/24;00:05:03;0.92;0.481;0.263;-0.34208452701568604;-1.007927656173706;0.43249258399009705
01:00:0A:00:00:00:00;1727654704;30/09/24;00:05:04;0.825;0.371;0.283;-0.44715335965156555;0.6658430695533752;0.8454375267028809
01:00:0A:00:00:00:00;1727654705;30/09/24;00:05:05;0.94;0.133;0.083;-0.5656611919403076;-1.969429612159729;-0.33108896017074585
01:00:0A:00:00:00:00;1727654706;30/09/24;00:05:06;0.78;0.091;0.424;1.643227458000183;-1.264491081237793;-1.5968017578125
01:00:0A:00:00:00:00;1727654707;30/09/24;00:05:07;0.818;0.547;-0.073;0.4031710624694824;-0.0708603635430336;-0.2993239760398865
01:00:0A:00:00:00:00;1727654708;30/09/24;00:05:08;0.837;0.209;0.522;-0.3176499307155609;1.4538592100143433;-1.469741702079773
01:00:0A:00:00:00:00;1727654709;30/09/24;00:05:09;0.747;-0.59;0.34;-1.9010125398635864;1.5112806558609009;2.287079334259033
01:00:0A:00:00:00:00;1727654710;30/09/24;00:05:10;0.99;0.096;0.423;-0.6939429044723511;0.35674530267715454;-0.9321803450584412
01:00:0A:00:00:00:00;1727654711;30/09/24;00:05:11;0.842;-0.377;0.356;0.5180137157440186;-0.3995058536529541;-0.32620203495025635
01:00:0A:00:00:00:00;1727654712;30/09/24;00:05:12;0.767;0.204;0.386;1.2571606636047363;-1.695761799812317;-0.04642575979232788
01:00:0A:00:00:00:00;1727654713;30/09/24;00:05:13;0.638;0.611;0.428;0.49357908964157104;-0.2675589621067047;0.6475171446800232
01:00:0A:00:00:00:00;1727654714;30/09/24;00:05:14;0.801;0.631;0.023;1.469741702079773;-1.0311404466629028;-1.4184291362762451
01:00:0A:00:00:00:00;1727654715;30/09/24;00:05:15;0.906;0.435;-0.046;-0.09040805697441101;0.2590068578720093;-1.0189231634140015
01:00:0A:00:00:00:00;1727654716;30/09/24;00:05:16;0.961;-0.085;0.355;-0.4141666293144226;1.3475687503814697;0.5619960427284241
01:00:0A:00:00:00:00;1727654717;30/09/24;00:05:17;1.322;0.154;0.061;1.7214182615280151;0.1417207270860672;0.10018189996480942
01:00:0A:00:00:00:00;1727654718;30/09/24;00:05:18;0.944;0.109;-0.173;-0.3897320330142975;0.08796459436416626;1.320690631866455
01:00:0A:00:00:00:00;1727654719;30/09/24;00:05:19;0.923;-0.223;0.161;-1.6774358749389648;0.6792821884155273;0.3066543638706207
01:00:0A:00:00:00:00;1727654720;30/09/24;00:05:20;0.999;-0.12;0.147;-1.0189231634140015;-0.7073819637298584;-0.8979718685150146
01:00:0A:00:00:00:00;1727654721;30/09/24;00:05:21;0.761;0.151;-0.588;-1.0103710889816284;0.5375614166259766;0.15027284622192383
01:00:0A:00:00:00:00;1727654722;30/09/24;00:05:22;0.909;-0.476;-0.25;-1.595579981803894;0.22968533635139465;1.7165312767028809
01:00:0A:00:00:00:00;1727654723;30/09/24;00:05:23;0.598;-0.85;-0.21;-0.8161159753799438;1.0091493129730225;0.13439035415649414
01:00:0A:00:00:00:00;1727654724;30/09/24;00:05:24;0.887;0.123;0.61;-2.2565362453460693;0.8894197940826416;-1.2082914113998413
01:00:0A:00:00:00:00;1727654725;30/09/24;00:05:25;1.022;-0.292;0.347;-2.1783454418182373;0.12339477241039276;-1.2864822149276733
01:00:0A:00:00:00:00;1727654726;30/09/24;00:05:26;0.98;-0.071;0.286;-1.9865336418151855;0.3628539443016052;-0.26511549949645996
01:00:0A:00:00:00:00;1727654727;30/09/24;00:05:27;1.016;0.103;0.26;-1.9498817920684814;-0.4703662395477295;-0.35552355647087097
01:00:0A:00:00:00:00;1727654728;30/09/24;00:05:28;0.847;-0.606;0.018;-0.8124507665634155;0.2015855312347412;1.7153096199035645
01:00:0A:00:00:00:00;1727654729;30/09/24;00:05:29;0.914;-0.354;0.345;0.5522221922874451;-0.08552113175392151;-0.05009094998240471
01:00:0A:00:00:00:00;1727654730;30/09/24;00:05:30;0.691;-0.251;0.694;0.1869247555732727;0.2883284091949463;-0.35063666105270386
01:00:0A:00:00:00:00;1727654731;30/09/24;00:05:31;0.789;0.509;0.417;-1.0824532508850098;-0.9065240025520325;-0.9346237778663635
01:00:0A:00:00:00:00;1727654732;30/09/24;00:05:32;0.937;-0.259;-0.603;-1.888795256614685;-0.6218608021736145;1.3463469743728638
01:00:0A:00:00:00:00;1727654733;30/09/24;00:05:33;0.9;-0.194;0.457;-2.2577579021453857;-0.4398229718208313;1.2290607690811157
01:00:0A:00:00:00:00;1727654734;30/09/24;00:05:34;0.815;-0.519;0.301;-0.8686503767967224;-0.03787364438176155;-1.507615327835083
01:00:0A:00:00:00:00;1727654735;30/09/24;00:05:35;0.82;0.093;-0.582;-2.298074960708618;-1.1740829944610596;1.4758504629135132
01:00:0A:00:00:00:00;1727654736;30/09/24;00:05:36;0.859;-0.162;-0.528;-0.0036651913542300463;0.05619959905743599;0.38606682419776917
01:00:0A:00:00:00:00;1727654737;30/09/24;00:05:37;0.691;-0.234;-0.61;-1.0592403411865234;-0.05742133408784866;0.9553932547569275
01:00:0A:00:00:00:00;1727654738;30/09/24;00:05:38;0.884;-0.514;0.071;-1.0250318050384521;1.5418238639831543;-0.09285151958465576
01:00:0A:00:00:00:00;1727654739;30/09/24;00:05:39;0.838;0.247;0.429;-1.310916781425476;-0.6743952035903931;-1.1520917415618896
01:00:0A:00:00:00:00;1727654740;30/09/24;00:05:40;1.049;-0.096;0.124;-1.0983357429504395;-0.3152064383029938;0.4789183437824249
01:00:0A:00:00:00:00;1727654741;30/09/24;00:05:41;1.038;-0.167;0.026;-1.2913691997528076;0.2919935882091522;-0.05864306166768074
01:00:0A:00:00:00:00;1727654742;30/09/24;00:05:42;1.069;-0.119;0.174;-1.3060299158096313;-0.024434609338641167;0.4092797040939331
01:00:0A:00:00:00:00;1727654743;30/09/24;00:05:43;0.844;-0.203;-0.566;-1.1349875926971436;-0.15027284622192383;0.13439035415649414
01:00:0A:00:00:00:00;1727654744;30/09/24;00:05:44;0.741;0.041;0.828;-1.4721851348876953;0.5290092825889587;-1.038470983505249
01:00:0A:00:00:00:00;1727654745;30/09/24;00:05:45;0.63;-0.24;0.735;-1.7935004234313965;-0.6633996367454529;-1.9352210760116577
01:00:0A:00:00:00:00;1727654746;30/09/24;00:05:46;0.876;0.36;-0.038;-1.8753563165664673;-1.1239920854568481;0.33108896017074585
01:00:0A:00:00:00:00;1727654747;30/09/24;00:05:47;0.868;-0.633;-0.061;-0.8283332586288452;0.10873401165008545;-1.5528194904327393
01:00:0A:00:00:00:00;1727654748;30/09/24;00:05:48;1.018;0.207;-0.004;-1.1765265464782715;-0.2028072476387024;0.24556782841682434
01:00:0A:00:00:00:00;1727654749;30/09/24;00:05:49;1.044;-0.035;-0.213;-1.0946705341339111;0.35063666105270386;-0.05009094998240471
01:00:0A:00:00:00:00;1727654750;30/09/24;00:05:50;0.957;0.417;0.394;-1.1386528015136719;-0.33597588539123535;-0.4141666293144226
01:00:0A:00:00:00:00;1727654751;30/09/24;00:05:51;0.921;0.274;-0.191;-1.4624114036560059;0.1918116807937622;-0.16249015927314758
01:00:0A:00:00:00:00;1727654752;30/09/24;00:05:52;0.871;-0.028;-0.23;-1.1325441598892212;-1.177748203277588;0.19425514340400696
01:00:0A:00:00:00:00;1727654753;30/09/24;00:05:53;0.936;-0.104;0.222;-0.8772024512290955;0.8796459436416626;1.0470229387283325
01:00:0A:00:00:00:00;1727654754;30/09/24;00:05:54;0.96;-0.074;-0.172;-0.40072759985923767;-0.49846604466438293;-0.4752531349658966
01:00:0A:00:00:00:00;1727654755;30/09/24;00:05:55;0.912;0.238;-0.077;-0.34574973583221436;0.5766568183898926;-0.19914205372333527
01:00:0A:00:00:00:00;1727654756;30/09/24;00:05:56;0.874;-0.12;0.108;-1.1765265464782715;-0.5314527750015259;0.38606682419776917
01:00:0A:00:00:00:00;1727654757;30/09/24;00:05:57;0.964;-0.058;0.228;-0.740368664264679;1.0592403411865234;0.6206390857696533
01:00:0A:00:00:00:00;1727654758;30/09/24;00:05:58;0.891;-0.271;0.405;-0.38117989897727966;-0.41294488310813904;-0.44104471802711487
01:00:0A:00:00:00:00;1727654759;30/09/24;00:05:59;0.981;0.224;-0.115;-0.4508185386657715;-0.23579397797584534;-0.37140607833862305
01:00:0A:00:00:00:00;1727654760;30/09/24;00:06:00;0.976;0.402;0.013;-0.7024949789047241;0.17592918872833252;0.46670106053352356
01:00:0A:00:00:00:00;1727654761;30/09/24;00:06:01;1.022;-0.374;-0.078;-0.04764748737215996;0.3066543638706207;-0.29688048362731934
01:00:0A:00:00:00:00;1727654762;30/09/24;00:06:02;0.786;0.11;0.694;1.0910052061080933;1.0348056554794312;0.7110471129417419
01:00:0A:00:00:00:00;1727654763;30/09/24;00:06:03;0.816;0.662;0.307;2.122145652770996;1.0629055500030518;-1.1691960096359253
01:00:0A:00:00:00:00;1727654764;30/09/24;00:06:04;0.805;0.715;0.132;-0.06963863223791122;0.40072759985923767;-0.06963863223791122
01:00:0A:00:00:00:00;1727654765;30/09/24;00:06:05;0.808;0.352;-0.505;-0.0036651913542300463;-0.6707300543785095;0.5546656250953674
01:00:0A:00:00:00:00;1727654766;30/09/24;00:06:06;0.865;0.189;-0.512;-1.7140878438949585;-0.36651912331581116;0.5473352670669556
01:00:0A:00:00:00:00;1727654767;30/09/24;00:06:07;0.876;0.293;-0.171;-2.9126055240631104;-0.46670106053352356;-0.10751228034496307
01:00:0A:00:00:00:00;1727654768;30/09/24;00:06:08;0.911;0.064;0.356;-2.1343629360198975;-0.8442157506942749;0.09407324343919754
01:00:0A:00:00:00:00;1727654769;30/09/24;00:06:09;0.89;-0.599;-0.056;-0.6743952035903931;0.20647244155406952;0.11239919811487198
01:00:0A:00:00:00:00;1727654770;30/09/24;00:06:10;1.06;-0.23;0.073;-0.4202752709388733;0.042760565876960754;-0.8258897662162781
01:00:0A:00:00:00:00;1727654771;30/09/24;00:06:11;0.959;0.499;-0.072;-0.6866125464439392;-0.1270599663257599;0.2431243658065796
01:00:0A:00:00:00:00;1727654772;30/09/24;00:06:12;0.857;-0.661;-0.109;-0.5632177591323853;0.2785545289516449;0.1466076523065567
01:00:0A:00:00:00:00;1727654773;30/09/24;00:06:13;1.035;-0.023;-0.168;-0.39584067463874817;-0.015882495790719986;-0.7489207983016968
01:00:0A:00:00:00:00;1727654774;30/09/24;00:06:14;0.947;0.378;0.244;-0.7061601877212524;0.06108652427792549;0.10384709388017654
01:00:0A:00:00:00:00;1727654775;30/09/24;00:06:15;1.015;-0.175;-0.077;-0.6780604124069214;-0.47769662737846375;0.3286454975605011
01:00:0A:00:00:00:00;1727654776;30/09/24;00:06:16;1.013;0.064;-0.042;-0.5913175940513611;0.24434609711170197;-0.2125810980796814
01:00:0A:00:00:00:00;1727654777;30/09/24;00:06:17;1.002;0.033;0.252;-0.6133087277412415;-0.08307767659425735;0.051312677562236786
01:00:0A:00:00:00:00;1727654778;30/09/24;00:06:18;1.057;-0.088;-0.071;-0.5216788649559021;-0.12095131725072861;-0.015882495790719986
01:00:0A:00:00:00:00;1727654779;30/09/24;00:06:19;1.057;0.072;0.033;-0.49357908964157104;0.22479839622974396;-0.05497787147760391
01:00:0A:00:00:00:00;1727654780;30/09/24;00:06:20;0.98;-0.125;0.035;-0.3995058536529541;-0.00855211354792118;0.10018189996480942
01:00:0A:00:00:00:00;1727654781;30/09/24;00:06:21;0.956;0.037;0.033;-0.26511549949645996;0.02687807008624077;-0.4483751058578491
01:00:0A:00:00:00:00;1727654782;30/09/24;00:06:22;0.973;0.04;0.046;-0.3799581527709961;-0.22968533635139465;0.2480112910270691
01:00:0A:00:00:00:00;1727654783;30/09/24;00:06:23;0.993;-0.167;-0.014;-0.28466320037841797;0.03787364438176155;-0.06230825558304787
01:00:0A:00:00:00:00;1727654784;30/09/24;00:06:24;1.03;-0.018;0.07;-0.22357667982578278;0.05497787147760391;-0.1319468915462494
01:00:0A:00:00:00:00;1727654785;30/09/24;00:06:25;1.011;0.029;0.119;-0.2736676335334778;-0.1820378452539444;0.12217304855585098
01:00:0A:00:00:00:00;1727654786;30/09/24;00:06:26;1.012;-0.058;0.035;-0.25534167885780334;-0.09407324343919754;0.08307767659425735
01:00:0A:00:00:00:00;1727654787;30/09/24;00:06:27;1.019;-0.003;0.048;-0.19058994948863983;0.07696902006864548;-0.06108652427792549
01:00:0A:00:00:00:00;1727654788;30/09/24;00:06:28;1.018;-0.001;0.159;-0.18081611394882202;-0.09040805697441101;0.00855211354792118
01:00:0A:00:00:00:00;1727654789;30/09/24;00:06:29;1.027;-0.021;0.032;-0.17104226350784302;-0.1258382350206375;-0.06475171446800232
01:00:0A:00:00:00:00;1727654790;30/09/24;00:06:30;1.046;-0.007;0.023;-0.17837265133857727;0.1319468915462494;-0.012217304669320583
01:00:0A:00:00:00:00;1727654791;30/09/24;00:06:31;1.054;-0.016;0.133;-0.17348572611808777;0.09651670604944229;0.080634206533432
01:00:0A:00:00:00:00;1727654792;30/09/24;00:06:32;1.064;0.002;-0.016;-0.15027284622192383;-0.09773843735456467;0.01710422709584236
01:00:0A:00:00:00:00;1727654793;30/09/24;00:06:33;1.005;0.027;0.075;-0.17104226350784302;0.13316862285137177;-0.01710422709584236
01:00:0A:00:00:00:00;1727654794;30/09/24;00:06:34;0.964;0.007;-0.016;-0.1466076523065567;-0.17470745742321014;-0.013439035043120384
01:00:0A:00:00:00:00;1727654795;30/09/24;00:06:35;0.924;0.011;0.046;-0.14538592100143433;0.251676470041275;-0.07819075137376785
01:00:0A:00:00:00:00;1727654796;30/09/24;00:06:36;0.943;0.025;0.025;0.004886921960860491;-0.35674530267715454;0.040317103266716
01:00:0A:00:00:00:00;1727654797;30/09/24;00:06:37;1.02;-0.051;-0.072;0.38117989897727966;0.3640756905078888;-0.040317103266716
01:00:0A:00:00:00:00;1727654798;30/09/24;00:06:38;1.044;0.156;0.173;0.8833111524581909;-0.05375614017248154;0.24678954482078552
01:00:0A:00:00:00:00;1727654799;30/09/24;00:06:39;1.06;-0.217;0.124;0.8307767510414124;-0.09896016865968704;0.014660765416920185
01:00:0A:00:00:00:00;1727654800;30/09/24;00:06:40;1.07;0.069;-0.172;0.7696901559829712;-0.1258382350206375;-0.0757472887635231
01:00:0A:00:00:00:00;1727654801;30/09/24;00:06:41;1.054;0.067;0.232;0.6133087277412415;0.313984751701355;-0.0036651913542300463
01:00:0A:00:00:00:00;1727654802;30/09/24;00:06:42;1.012;-0.113;-0.034;0.5644394755363464;-0.2724458873271942;0.26511549949645996
01:00:0A:00:00:00:00;1727654803;30/09/24;00:06:43;0.967;0.103;0.047;0.5558874011039734;0.05009094998240471;-0.42760565876960754
01:00:0A:00:00:00:00;1727654804;30/09/24;00:06:44;0.959;0.023;0.03;0.3335324227809906;0.10384709388017654;0.4300491213798523
01:00:0A:00:00:00:00;1727654805;30/09/24;00:06:45;0.968;-0.081;0.068;0.44715335965156555;-0.18325956165790558;-0.2541199326515198
01:00:0A:00:00:00:00;1727654806;30/09/24;00:06:46;1.004;0.043;-0.015;0.375071257352829;0.021991148591041565;0.0708603635430336
01:00:0A:00:00:00:00;1727654807;30/09/24;00:06:47;1.038;0.002;0.051;0.3090977966785431;0.16493360698223114;0.11850785464048386
01:00:0A:00:00:00:00;1727654808;30/09/24;00:06:48;1.039;0.006;0.121;0.3335324227809906;-0.17592918872833252;-0.01710422709584236
01:00:0A:00:00:00:00;1727654809;30/09/24;00:06:49;1.038;-0.019;-0.053;0.32620203495025635;-0.1661553531885147;-0.03176499158143997
01:00:0A:00:00:00:00;1727654810;30/09/24;00:06:50;1.079;-0.005;0.106;0.31154125928878784;0.10995574295520782;-0.07330382615327835
01:00:0A:00:00:00:00;1727654811;30/09/24;00:06:51;1.009;0.1;0.165;0.43860122561454773;0.0757472887635231;0.012217304669320583
01:00:0A:00:00:00:00;1727654812;30/09/24;00:06:52;1.004;0.039;0.107;0.5693264007568359;0.03420845419168472;0.045204028487205505
01:00:0A:00:00:00:00;1727654813;30/09/24;00:06:53;1.02;-0.03;0.061;0.6218608021736145;-0.010995574295520782;0.12828169763088226
01:00:0A:00:00:00:00;1727654814;30/09/24;00:06:54;1.012;-0.043;0.075;0.6059783101081848;0.02932153083384037;0.028099799528717995
01:00:0A:00:00:00:00;1727654815;30/09/24;00:06:55;1.002;0.025;0.011;0.5705481767654419;-0.04153883829712868;-0.004886921960860491
01:00:0A:00:00:00:00;1727654816;30/09/24;00:06:56;1.009;-0.003;0.023;0.49357908964157104;0.00855211354792118;0.07452555745840073
01:00:0A:00:00:00:00;1727654817;30/09/24;00:06:57;1.013;0.016;0.097;0.46303585171699524;-0.04153883829712868;0.02321287989616394
01:00:0A:00:00:00:00;1727654818;30/09/24;00:06:58;1.016;0.01;0.043;0.42638394236564636;-0.05864306166768074;0.014660765416920185
01:00:0A:00:00:00:00;1727654819;30/09/24;00:06:59;1.013;-0.024;0.05;0.39706242084503174;0.05375614017248154;-0.05497787147760391
01:00:0A:00:00:00:00;1727654820;30/09/24;00:07:00;1.026;0.022;0.057;0.35063666105270386;-0.018325956538319588;0.014660765416920185
01:00:0A:00:00:00:00;1727654821;30/09/24;00:07:01;1.033;-0.022;0.038;0.3090977966785431;0.02076941914856434;0.05619959905743599
01:00:0A:00:00:00:00;1727654822;30/09/24;00:07:02;1.03;-0.013;0.048;0.3152064383029938;-0.04153883829712868;-0.015882495790719986
01:00:0A:00:00:00:00;1727654823;30/09/24;00:07:03;1.031;0.017;0.053;0.2932153046131134;-0.040317103266716;-0.012217304669320583
01:00:0A:00:00:00:00;1727654824;30/09/24;00:07:04;1.028;-0.002;0.067;0.26511549949645996;0.02932153083384037;0.021991148591041565
01:00:0A:00:00:00:00;1727654825;30/09/24;00:07:05;0.988;-0.021;0.073;0.2565633952617645;0.030543262138962746;-0.00855211354792118
01:00:0A:00:00:00:00;1727654826;30/09/24;00:07:06;0.97;-0.002;0.04;0.2431243658065796;-0.009773843921720982;-0.0354301817715168
01:00:0A:00:00:00:00;1727654827;30/09/24;00:07:07;0.996;-0.01;0.035;0.21013763546943665;0.024434609338641167;0.014660765416920185
01:00:0A:00:00:00:00;1727654828;30/09/24;00:07:08;1.021;-0.001;0.066;0.19547687470912933;-0.06475171446800232;0.019547687843441963
01:00:0A:00:00:00:00;1727654829;30/09/24;00:07:09;1.041;0.004;0.026;0.17470745742321014;-0.014660765416920185;-0.0024434609804302454
01:00:0A:00:00:00:00;1727654830;30/09/24;00:07:10;1.039;-0.01;0.048;0.16004669666290283;0.028099799528717995;-0.012217304669320583
01:00:0A:00:00:00:00;1727654831;30/09/24;00:07:11;1.037;0.006;0.062;0.14538592100143433;-0.039095375686883926;-0.0024434609804302454
01:00:0A:00:00:00:00;1727654832;30/09/24;00:07:12;1.037;-0.014;0.037;0.12339477241039276;-0.019547687843441963;0.0354301817715168
01:00:0A:00:00:00:00;1727654833;30/09/24;00:07:13;1.018;0.004;0.061;0.1160643920302391;0.03298672288656235;0.010995574295520782
01:00:0A:00:00:00:00;1727654834;30/09/24;00:07:14;0.994;0.018;0.039;0.10262535512447357;-0.004886921960860491;-0.014660765416920185
01:00:0A:00:00:00:00;1727654835;30/09/24;00:07:15;0.981;-0.006;0.032;0.08918632566928864;0.0;-0.0012217304902151227
01:00:0A:00:00:00:00;1727654836;30/09/24;00:07:16;0.981;-0.009;0.042;0.08918632566928864;-0.03298672288656235;-0.019547687843441963
01:00:0A:00:00:00:00;1727654837;30/09/24;00:07:17;0.991;0.009;0.055;0.0708603635430336;-0.040317103266716;0.006108652334660292
01:00:0A:00:00:00:00;1727654838;30/09/24;00:07:18;1.025;-0.007;0.051;0.05864306166768074;-0.040317103266716;0.013439035043120384
01:00:0A:00:00:00:00;1727654839;30/09/24;00:07:19;1.029;-0.009;0.047;0.05497787147760391;0.0036651913542300463;-0.02321287989616394
01:00:0A:00:00:00:00;1727654840;30/09/24;00:07:20;1.042;0.008;0.071;0.039095375686883926;-0.014660765416920185;0.014660765416920185
01:00:0A:00:00:00:00;1727654841;30/09/24;00:07:21;1.053;-0.019;0.051;0.03176499158143997;-0.00855211354792118;0.025656338781118393
01:00:0A:00:00:00:00;1727654842;30/09/24;00:07:22;1.033;-0.077;0.059;-0.11728612333536148;0.025656338781118393;0.161268413066864
01:00:0A:00:00:00:00;1727654843;30/09/24;00:07:23;0.999;-0.074;0.065;-0.0036651913542300463;0.0012217304902151227;0.012217304669320583
01:00:0A:00:00:00:00;1727654844;30/09/24;00:07:24;0.988;-0.018;0.04;0.040317103266716;-0.03298672288656235;-0.07819075137376785
01:00:0A:00:00:00:00;1727654845;30/09/24;00:07:25;0.988;0.014;0.046;-0.006108652334660292;0.019547687843441963;-0.004886921960860491
01:00:0A:00:00:00:00;1727654846;30/09/24;00:07:26;0.997;-0.006;0.056;-0.02321287989616394;-0.03420845419168472;0.040317103266716
01:00:0A:00:00:00:00;1727654847;30/09/24;00:07:27;1.015;-0.025;0.043;-0.0024434609804302454;-0.05864306166768074;-0.03420845419168472
01:00:0A:00:00:00:00;1727654848;30/09/24;00:07:28;1.024;0.018;0.04;-0.00855211354792118;-0.0073303827084600925;-0.019547687843441963
01:00:0A:00:00:00:00;1727654849;30/09/24;00:07:29;1.035;-0.001;0.06;-0.02687807008624077;-0.009773843921720982;0.03298672288656235
01:00:0A:00:00:00:00;1727654850;30/09/24;00:07:30;1.039;-0.025;0.056;-0.00855211354792118;-0.040317103266716;-0.015882495790719986
01:00:0A:00:00:00:00;1727654851;30/09/24;00:07:31;1.034;0.004;0.035;-0.010995574295520782;0.009773843921720982;0.06108652427792549
01:00:0A:00:00:00:00;1727654852;30/09/24;00:07:32;1.02;-0.052;0.045;0.0036651913542300463;0.030543262138962746;-0.004886921960860491
01:00:0A:00:00:00:00;1727654853;30/09/24;00:07:33;1.014;-0.018;0.047;-0.11362093687057495;-0.019547687843441963;-0.015882495790719986
01:00:0A:00:00:00:00;1727654854;30/09/24;00:07:34;1.0;0.024;0.041;-0.1062905490398407;-0.004886921960860491;-0.03176499158143997
01:00:0A:00:00:00:00;1727654855;30/09/24;00:07:35;0.999;-0.004;0.054;-0.1160643920302391;0.006108652334660292;0.036651913076639175
01:00:0A:00:00:00:00;1727654856;30/09/24;00:07:36;0.997;-0.027;0.042;-0.08185594528913498;-0.018325956538319588;-0.021991148591041565
01:00:0A:00:00:00:00;1727654857;30/09/24;00:07:37;1.003;0.01;0.045;-0.07330382615327835;-0.02932153083384037;0.0
01:00:0A:00:00:00:00;1727654858;30/09/24;00:07:38;1.027;-0.004;0.049;-0.07941248267889023;-0.02932153083384037;0.03787364438176155
01:00:0A:00:00:00:00;1727654859;30/09/24;00:07:39;1.039;-0.027;0.051;-0.05742133408784866;-0.010995574295520782;0.0012217304902151227
01:00:0A:00:00:00:00;1727654860;30/09/24;00:07:40;1.039;0.017;0.06;-0.04764748737215996;-0.004886921960860491;-0.03420845419168472
01:00:0A:00:00:00:00;1727654861;30/09/24;00:07:41;1.014;0.0;0.047;-0.05864306166768074;0.0;0.01710422709584236
01:00:0A:00:00:00:00;1727654862;30/09/24;00:07:42;1.007;-0.015;0.039;-0.04642575979232788;0.006108652334660292;0.0
01:00:0A:00:00:00:00;1727654863;30/09/24;00:07:43;1.001;0.008;0.04;-0.040317103266716;-0.019547687843441963;-0.021991148591041565
01:00:0A:00:00:00:00;1727654864;30/09/24;00:07:44;1.009;-0.005;0.042;-0.05253440886735916;-0.03176499158143997;0.024434609338641167
01:00:0A:00:00:00:00;1727654865;30/09/24;00:07:45;1.009;-0.021;0.042;-0.039095375686883926;-0.028099799528717995;0.0
01:00:0A:00:00:00:00;1727654866;30/09/24;00:07:46;1.008;0.003;0.046;-0.03176499158143997;-0.013439035043120384;-0.01710422709584236
01:00:0A:00:00:00:00;1727654867;30/09/24;00:07:47;1.017;0.005;0.056;-0.039095375686883926;-0.02076941914856434;0.00855211354792118
01:00:0A:00:00:00:00;1727654868;30/09/24;00:07:48;1.027;-0.019;0.048;-0.036651913076639175;-0.004886921960860491;0.010995574295520782
01:00:0A:00:00:00:00;1727654869;30/09/24;00:07:49;1.03;0.0;0.042;-0.0354301817715168;0.01710422709584236;-0.009773843921720982
01:00:0A:00:00:00:00;1727654870;30/09/24;00:07:50;1.026;0.001;0.049;-0.040317103266716;-0.019547687843441963;0.004886921960860491
01:00:0A:00:00:00:00;1727654871;30/09/24;00:07:51;1.028;-0.008;0.049;-0.040317103266716;-0.006108652334660292;0.006108652334660292
01:00:0A:00:00:00:00;1727654872;30/09/24;00:07:52;1.019;-0.001;0.046;-0.036651913076639175;0.00855211354792118;-0.009773843921720982
01:00:0A:00:00:00:00;1727654873;30/09/24;00:07:53;1.008;0.004;0.042;-0.045204028487205505;0.0012217304902151227;0.0024434609804302454
01:00:0A:00:00:00:00;1727654874;30/09/24;00:07:54;0.997;0.0;0.045;-0.04642575979232788;-0.03298672288656235;0.006108652334660292
01:00:0A:00:00:00:00;1727654875;30/09/24;00:07:55;0.998;-0.003;0.046;-0.04153883829712868;-0.014660765416920185;-0.021991148591041565
01:00:0A:00:00:00:00;1727654876;30/09/24;00:07:56;1.018;0.0;0.053;-0.05009094998240471;-0.010995574295520782;0.012217304669320583
01:00:0A:00:00:00:00;1727654877;30/09/24;00:07:57;1.003;-0.034;-0.027;-0.0036651913542300463;-0.2076941877603531;0.07208210229873657
01:00:0A:00:00:00:00;1727654878;30/09/24;00:07:58;1.004;-0.022;-0.002;0.03298672288656235;0.051312677562236786;-0.06719517707824707
01:00:0A:00:00:00:00;1727654879;30/09/24;00:07:59;1.019;-0.024;-0.017;0.0708603635430336;-0.028099799528717995;0.03787364438176155
01:00:0A:00:00:00:00;1727654880;30/09/24;00:08:00;1.014;-0.02;0.064;0.09773843735456467;0.10384709388017654;-0.03176499158143997
01:00:0A:00:00:00:00;1727654881;30/09/24;00:08:01;1.017;0.0;0.061;0.11728612333536148;-0.04886921867728233;-0.0073303827084600925
01:00:0A:00:00:00:00;1727654882;30/09/24;00:08:02;1.018;-0.014;0.0;0.10751228034496307;-0.025656338781118393;0.004886921960860491
01:00:0A:00:00:00:00;1727654883;30/09/24;00:08:03;1.02;-0.007;0.049;0.1014036238193512;0.024434609338641167;0.013439035043120384
01:00:0A:00:00:00:00;1727654884;30/09/24;00:08:04;1.017;0.005;0.081;0.09896016865968704;-0.04398229718208313;0.013439035043120384
01:00:0A:00:00:00:00;1727654885;30/09/24;00:08:05;1.011;-0.004;0.031;0.09407324343919754;-0.036651913076639175;0.015882495790719986
01:00:0A:00:00:00:00;1727654886;30/09/24;00:08:06;1.011;-0.008;0.036;0.09407324343919754;0.059864792972803116;-0.021991148591041565
01:00:0A:00:00:00:00;1727654887;30/09/24;00:08:07;1.009;0.007;0.062;0.08674286305904388;-0.02321287989616394;0.0012217304902151227
01:00:0A:00:00:00:00;1727654888;30/09/24;00:08:08;1.016;-0.006;0.033;0.07819075137376785;-0.05497787147760391;0.025656338781118393
01:00:0A:00:00:00:00;1727654889;30/09/24;00:08:09;1.018;-0.011;0.04;0.08552113175392151;0.010995574295520782;-0.02321287989616394
01:00:0A:00:00:00:00;1727654890;30/09/24;00:08:10;1.022;0.008;0.064;0.07941248267889023;-0.0036651913542300463;-0.013439035043120384
01:00:0A:00:00:00:00;1727654891;30/09/24;00:08:11;1.021;-0.009;0.044;0.0659734457731247;-0.024434609338641167;0.02687807008624077
01:00:0A:00:00:00:00;1727654892;30/09/24;00:08:12;1.013;-0.021;0.032;0.0708603635430336;-0.0012217304902151227;0.012217304669320583
01:00:0A:00:00:00:00;1727654893;30/09/24;00:08:13;1.011;0.009;0.051;0.06719517707824707;0.009773843921720982;0.004886921960860491
01:00:0A:00:00:00:00;1727654894;30/09/24;00:08:14;1.013;0.004;0.045;0.05497787147760391;-0.040317103266716;0.02321287989616394
01:00:0A:00:00:00:00;1727654895;30/09/24;00:08:15;1.016;-0.017;0.036;0.05864306166768074;-0.02076941914856434;-0.00855211354792118
01:00:0A:00:00:00:00;1727654896;30/09/24;00:08:16;1.016;-0.005;0.051;0.05619959905743599;-0.0012217304902151227;-0.014660765416920185
01:00:0A:00:00:00:00;1727654897;30/09/24;00:08:17;1.019;0.003;0.052;0.04153883829712868;-0.030543262138962746;0.039095375686883926
01:00:0A:00:00:00:00;1727654898;30/09/24;00:08:18;1.021;-0.01;0.044;0.04398229718208313;0.0012217304902151227;0.012217304669320583
01:00:0A:00:00:00:00;1727654899;30/09/24;00:08:19;1.017;-0.002;0.044;0.04886921867728233;0.0;-0.028099799528717995
01:00:0A:00:00:00:00;1727654900;30/09/24;00:08:20;1.016;-0.002;0.049;0.03298672288656235;-0.014660765416920185;0.013439035043120384
01:00:0A:00:00:00:00;1727654901;30/09/24;00:08:21;1.016;-0.014;0.044;0.030543262138962746;-0.010995574295520782;0.019547687843441963
01:00:0A:00:00:00:00;1727654902;30/09/24;00:08:22;1.013;0.0;0.044;0.03420845419168472;-0.004886921960860491;-0.00855211354792118
01:00:0A:00:00:00:00;1727654903;30/09/24;00:08:23;1.011;0.004;0.046;0.024434609338641167;-0.006108652334660292;0.0036651913542300463
01:00:0A:00:00:00:00;1727654904;30/09/24;00:08:24;1.016;-0.008;0.045;0.02076941914856434;-0.03298672288656235;0.012217304669320583
01:00:0A:00:00:00:00;1727654905;30/09/24;00:08:25;1.023;-0.007;0.045;0.025656338781118393;-0.006108652334660292;-0.0073303827084600925
01:00:0A:00:00:00:00;1727654906;30/09/24;00:08:26;1.02;0.004;0.051;0.019547687843441963;0.0;0.0012217304902151227
01:00:0A:00:00:00:00;1727654907;30/09/24;00:08:27;1.017;-0.002;0.043;0.015882495790719986;-0.01710422709584236;0.012217304669320583
01:00:0A:00:00:00:00;1727654908;30/09/24;00:08:28;1.015;-0.008;0.043;0.02076941914856434;-0.013439035043120384;-0.009773843921720982
01:00:0A:00:00:00:00;1727654909;30/09/24;00:08:29;1.015;0.0;0.048;0.01710422709584236;-0.015882495790719986;-0.004886921960860491
01:00:0A:00:00:00:00;1727654910;30/09/24;00:08:30;1.015;-0.004;0.047;0.010995574295520782;-0.0036651913542300463;0.01710422709584236
01:00:0A:00:00:00:00;1727654911;30/09/24;00:08:31;1.015;-0.009;0.04;0.014660765416920185;-0.021991148591041565;0.0036651913542300463
01:00:0A:00:00:00:00;1727654912;30/09/24;00:08:32;1.017;0.0;0.045;0.014660765416920185;-0.009773843921720982;-0.0036651913542300463
01:00:0A:00:00:00:00;1727654913;30/09/24;00:08:33;1.019;-0.003;0.048;0.009773843921720982;-0.00855211354792118;0.0073303827084600925
01:00:0A:00:00:00:00;1727654914;30/09/24;00:08:34;1.019;-0.008;0.045;0.010995574295520782;-0.01710422709584236;0.0
01:00:0A:00:00:00:00;1727654915;30/09/24;00:08:35;1.018;-0.002;0.047;0.009773843921720982;-0.0012217304902151227;0.0012217304902151227
01:00:0A:00:00:00:00;1727654916;30/09/24;00:08:36;1.015;-0.002;0.049;0.004886921960860491;-0.00855211354792118;0.009773843921720982
01:00:0A:00:00:00:00;1727654917;30/09/24;00:08:37;1.015;-0.004;0.045;0.004886921960860491;-0.010995574295520782;0.0036651913542300463
01:00:0A:00:00:00:00;1727654918;30/09/24;00:08:38;1.015;-0.001;0.044;0.006108652334660292;-0.015882495790719986;-0.006108652334660292
01:00:0A:00:00:00:00;1727654919;30/09/24;00:08:39;1.016;0.001;0.05;0.0024434609804302454;-0.010995574295520782;0.004886921960860491
01:00:0A:00:00:00:00;1727654920;30/09/24;00:08:40;1.019;-0.005;0.048;0.0024434609804302454;-0.009773843921720982;-0.0012217304902151227
01:00:0A:00:00:00:00;1727654921;30/09/24;00:08:41;1.017;-0.005;0.047;0.0024434609804302454;-0.013439035043120384;0.0012217304902151227
01:00:0A:00:00:00:00;1727654922;30/09/24;00:08:42;1.016;-0.001;0.047;-0.0012217304902151227;-0.004886921960860491;0.004886921960860491
01:00:0A:00:00:00:00;1727654923;30/09/24;00:08:43;1.015;-0.001;0.046;-0.0024434609804302454;-0.010995574295520782;0.006108652334660292
01:00:0A:00:00:00:00;1727654924;30/09/24;00:08:44;1.016;-0.003;0.043;-0.0012217304902151227;-0.014660765416920185;-0.0036651913542300463
01:00:0A:00:00:00:00;1727654925;30/09/24;00:08:45;1.017;-0.001;0.046;-0.0036651913542300463;-0.015882495790719986;-0.0012217304902151227
01:00:0A:00:00:00:00;1727654926;30/09/24;00:08:46;1.016;-0.007;0.051;-0.006108652334660292;-0.01710422709584236;0.00855211354792118
01:00:0A:00:00:00:00;1727654927;30/09/24;00:08:47;1.016;-0.003;0.045;-0.004886921960860491;-0.0073303827084600925;0.0036651913542300463
01:00:0A:00:00:00:00;1727654928;30/09/24;00:08:48;1.016;0.0;0.044;-0.006108652334660292;-0.010995574295520782;0.0024434609804302454
01:00:0A:00:00:00:00;1727654929;30/09/24;00:08:49;1.015;0.0;0.047;-0.0073303827084600925;-0.009773843921720982;-0.0012217304902151227
01:00:0A:00:00:00:00;1727654930;30/09/24;00:08:50;1.021;-0.006;0.048;-0.0073303827084600925;-0.009773843921720982;-0.0024434609804302454
01:00:0A:00:00:00:00;1727654931;30/09/24;00:08:51;1.02;-0.002;0.045;-0.00855211354792118;-0.00855211354792118;0.0
01:00:0A:00:00:00:00;1727654932;30/09/24;00:08:52;1.016;-0.004;0.046;-0.010995574295520782;-0.004886921960860491;0.0073303827084600925
01:00:0A:00:00:00:00;1727654933;30/09/24;00:08:53;1.01;-0.002;0.047;-0.00855211354792118;-0.013439035043120384;-0.0012217304902151227
01:00:0A:00:00:00:00;1727654934;30/09/24;00:08:54;1.013;-0.003;0.044;-0.009773843921720982;-0.0073303827084600925;0.0024434609804302454
01:00:0A:00:00:00:00;1727654935;30/09/24;00:08:55;1.016;-0.003;0.047;-0.010995574295520782;-0.010995574295520782;0.0036651913542300463
01:00:0A:00:00:00:00;1727654936;30/09/24;00:08:56;1.016;-0.004;0.046;-0.010995574295520782;-0.010995574295520782;0.0036651913542300463
01:00:0A:00:00:00:00;1727654937;30/09/24;00:08:57;1.015;-0.002;0.046;-0.010995574295520782;-0.009773843921720982;-0.0012217304902151227
01:00:0A:00:00:00:00;1727654938;30/09/24;00:08:58;1.016;-0.003;0.047;-0.012217304669320583;-0.012217304669320583;0.004886921960860491
01:00:0A:00:00:00:00;1727654939;30/09/24;00:08:59;1.021;-0.005;0.048;-0.012217304669320583;-0.009773843921720982;0.0036651913542300463
01:00:0A:00:00:00:00;1727654940;30/09/24;00:09:00;1.016;-0.003;0.05;-0.013439035043120384;-0.010995574295520782;0.0024434609804302454
01:00:0A:00:00:00:00;1727654941;30/09/24;00:09:01;1.015;-0.004;0.047;-0.014660765416920185;-0.00855211354792118;0.0036651913542300463
01:00:0A:00:00:00:00;1727654942;30/09/24;00:09:02;1.013;-0.005;0.046;-0.014660765416920185;-0.01710422709584236;0.006108652334660292
01:00:0A:00:00:00:00;1727654943;30/09/24;00:09:03;1.016;-0.003;0.046;-0.014660765416920185;-0.018325956538319588;0.0
01:00:0A:00:00:00:00;1727654944;30/09/24;00:09:04;1.019;-0.002;0.049;-0.015882495790719986;-0.012217304669320583;0.0024434609804302454
01:00:0A:00:00:00:00;1727654945;30/09/24;00:09:05;1.016;-0.005;0.049;-0.015882495790719986;-0.012217304669320583;-0.0012217304902151227
01:00:0A:00:00:00:00;1727654946;30/09/24;00:09:06;1.014;-0.005;0.047;-0.015882495790719986;-0.014660765416920185;0.0
01:00:0A:00:00:00:00;1727654947;30/09/24;00:09:07;1.013;-0.005;0.047;-0.018325956538319588;-0.015882495790719986;0.006108652334660292
01:00:0A:00:00:00:00;1727654948;30/09/24;00:09:08;1.02;-0.003;0.048;-0.018325956538319588;-0.012217304669320583;0.004886921960860491
01:00:0A:00:00:00:00;1727654949;30/09/24;00:09:09;1.023;-0.001;0.047;-0.01710422709584236;-0.009773843921720982;-0.0024434609804302454
01:00:0A:00:00:00:00;1727654950;30/09/24;00:09:10;1.017;-0.003;0.048;-0.01710422709584236;-0.0073303827084600925;-0.004886921960860491
01:00:0A:00:00:00:00;1727654951;30/09/24;00:09:11;1.012;-0.006;0.044;-0.01710422709584236;-0.009773843921720982;0.0036651913542300463
01:00:0A:00:00:00:00;1727654952;30/09/24;00:09:12;1.011;-0.006;0.046;-0.01710422709584236;-0.012217304669320583;0.0036651913542300463
01:00:0A:00:00:00:00;1727654953;30/09/24;00:09:13;1.016;-0.002;0.045;-0.01710422709584236;-0.012217304669320583;0.004886921960860491
01:00:0A:00:00:00:00;1727654954;30/09/24;00:09:14;1.017;0.0;0.05;-0.01710422709584236;-0.012217304669320583;0.0
01:00:0A:00:00:00:00;1727654955;30/09/24;00:09:15;1.016;-0.004;0.048;-0.015882495790719986;-0.00855211354792118;-0.0012217304902151227
01:00:0A:00:00:00:00;1727654956;30/09/24;00:09:16;1.016;-0.006;0.045;-0.01710422709584236;-0.012217304669320583;0.006108652334660292
01:00:0A:00:00:00:00;1727654957;30/09/24;00:09:17;1.018;-0.004;0.05;-0.01710422709584236;-0.012217304669320583;0.006108652334660292
01:00:0A:00:00:00:00;1727654958;30/09/24;00:09:18;1.019;-0.003;0.047;-0.01710422709584236;-0.00855211354792118;0.0024434609804302454
01:00:0A:00:00:00:00;1727654959;30/09/24;00:09:19;1.016;0.0;0.048;-0.01710422709584236;-0.006108652334660292;-0.0012217304902151227
01:00:0A:00:00:00:00;1727654960;30/09/24;00:09:20;1.015;-0.005;0.046;-0.01710422709584236;-0.010995574295520782;0.0024434609804302454
01:00:0A:00:00:00:00;1727654961;30/09/24;00:09:21;1.015;-0.004;0.048;-0.01710422709584236;-0.014660765416920185;0.004886921960860491
01:00:0A:00:00:00:00;1727654962;30/09/24;00:09:22;1.016;-0.003;0.048;-0.01710422709584236;-0.010995574295520782;0.004886921960860491
01:00:0A:00:00:00:00;1727654963;30/09/24;00:09:23;1.016;0.0;0.048;-0.01710422709584236;-0.009773843921720982;0.0
01:00:0A:00:00:00:00;1727654964;30/09/24;00:09:24;1.016;-0.005;0.048;-0.015882495790719986;-0.009773843921720982;-0.0012217304902151227
01:00:0A:00:00:00:00;1727654965;30/09/24;00:09:25;1.016;-0.004;0.045;-0.015882495790719986;-0.014660765416920185;0.0024434609804302454
01:00:0A:00:00:00:00;1727654966;30/09/24;00:09:26;1.017;-0.003;0.046;-0.01710422709584236;-0.01710422709584236;0.00855211354792118
01:00:0A:00:00:00:00;1727654967;30/09/24;00:09:27;1.018;-0.002;0.05;-0.015882495790719986;-0.012217304669320583;0.0
01:00:0A:00:00:00:00;1727654968;30/09/24;00:09:28;1.018;-0.002;0.048;-0.015882495790719986;-0.009773843921720982;-0.0012217304902151227
01:00:0A:00:00:00:00;1727654969;30/09/24;00:09:29;1.016;-0.006;0.047;-0.015882495790719986;-0.0036651913542300463;0.0024434609804302454
01:00:0A:00:00:00:00;1727654970;30/09/24;00:09:30;1.014;-0.004;0.042;-0.014660765416920185;-0.01710422709584236;0.0036651913542300463
01:00:0A:00:00:00:00;1727654971;30/09/24;00:09:31;1.016;-0.004;0.048;-0.014660765416920185;-0.015882495790719986;0.0024434609804302454
01:00:0A:00:00:00:00;1727654972;30/09/24;00:09:32;1.017;-0.003;0.05;-0.014660765416920185;-0.013439035043120384;0.0024434609804302454
01:00:0A:00:00:00:00;1727654973;30/09/24;00:09:33;1.017;-0.003;0.046;-0.013439035043120384;-0.00855211354792118;-0.0024434609804302454
01:00:0A:00:00:00:00;1727654974;30/09/24;00:09:34;1.016;-0.005;0.047;-0.013439035043120384;-0.010995574295520782;0.0024434609804302454
01:00:0A:00:00:00:00;1727654975;30/09/24;00:09:35;1.016;-0.005;0.047;-0.012217304669320583;-0.013439035043120384;0.0024434609804302454
01:00:0A:00:00:00:00;1727654976;30/09/24;00:09:36;1.014;-0.004;0.049;-0.012217304669320583;-0.009773843921720982;0.0073303827084600925
01:00:0A:00:00:00:00;1727654977;30/09/24;00:09:37;1.016;-0.001;0.048;-0.009773843921720982;-0.012217304669320583;-0.0012217304902151227
01:00:0A:00:00:00:00;1727654978;30/09/24;00:09:38;1.016;-0.003;0.048;-0.009773843921720982;-0.010995574295520782;-0.0024434609804302454
01:00:0A:00:00:00:00;1727654979;30/09/24;00:09:39;1.016;-0.005;0.049;-0.009773843921720982;-0.010995574295520782;0.0036651913542300463
01:00:0A:00:00:00:00;1727654980;30/09/24;00:09:40;1.016;-0.003;0.047;-0.00855211354792118;-0.013439035043120384;0.0012217304902151227
01:00:0A:00:00:00:00;1727654981;30/09/24;00:09:41;1.016;-0.003;0.048;-0.009773843921720982;-0.00855211354792118;0.004886921960860491
01:00:0A:00:00:00:00;1727654982;30/09/24;00:09:42;1.014;-0.003;0.048;-0.0073303827084600925;-0.013439035043120384;-0.0024434609804302454
01:00:0A:00:00:00:00;1727654983;30/09/24;00:09:43;1.016;-0.004;0.048;-0.00855211354792118;-0.010995574295520782;0.0036651913542300463
01:00:0A:00:00:00:00;1727654984;30/09/24;00:09:44;1.016;-0.004;0.048;-0.00855211354792118;-0.012217304669320583;0.0024434609804302454
01:00:0A:00:00:00:00;1727654985;30/09/24;00:09:45;1.017;-0.003;0.047;-0.00855211354792118;-0.012217304669320583;0.0
01:00:0A:00:00:00:00;1727654986;30/09/24;00:09:46;1.017;-0.005;0.047;-0.00855211354792118;-0.00855211354792118;0.0036651913542300463
01:00:0A:00:00:00:00;1727654987;30/09/24;00:09:47;1.016;-0.002;0.047;-0.0073303827084600925;-0.013439035043120384;-0.0012217304902151227
01:00:0A:00:00:00:00;1727654988;30/09/24;00:09:48;1.016;-0.003;0.047;-0.00855211354792118;-0.010995574295520782;0.004886921960860491
01:00:0A:00:00:00:00;1727654989;30/09/24;00:09:49;1.016;-0.003;0.048;-0.00855211354792118;-0.012217304669320583;0.0024434609804302454
01:00:0A:00:00:00:00;1727654990;30/09/24;00:09:50;1.016;-0.003;0.047;-0.00855211354792118;-0.009773843921720982;0.0024434609804302454
01:00:0A:00:00:00:00;1727654991;30/09/24;00:09:51;1.016;-0.004;0.048;-0.00855211354792118;-0.009773843921720982;0.0036651913542300463
01:00:0A:00:00:00:00;1727654992;30/09/24;00:09:52;1.017;-0.004;0.045;-0.0073303827084600925;-0.014660765416920185;0.0
01:00:0A:00:00:00:00;1727654993;30/09/24;00:09:53;1.016;-0.003;0.047;-0.00855211354792118;-0.009773843921720982;0.0036651913542300463
01:00:0A:00:00:00:00;1727654994;30/09/24;00:09:54;1.016;-0.005;0.048;-0.0073303827084600925;-0.010995574295520782;0.0
01:00:0A:00:00:00:00;1727654995;30/09/24;00:09:55;1.016;-0.004;0.048;-0.00855211354792118;-0.00855211354792118;0.0036651913542300463
01:00:0A:00:00:00:00;1727654996;30/09/24;00:09:56;1.016;-0.004;0.046;-0.00855211354792118;-0.013439035043120384;0.004886921960860491
01:00:0A:00:00:00:00;1727654997;30/09/24;00:09:57;1.017;-0.002;0.046;-0.0073303827084600925;-0.013439035043120384;0.0
01:00:0A:00:00:00:00;1727654998;30/09/24;00:09:58;1.016;-0.004;0.047;-0.00855211354792118;-0.010995574295520782;0.004886921960860491
01:00:0A:00:00:00:00;1727654999;30/09/24;00:09:59;1.016;-0.002;0.047;-0.0073303827084600925;-0.009773843921720982;-0.0012217304902151227
01:00:0A:00:00:00:00;1727655000;30/09/24;00:10:00;1.016;-0.004;0.045;-0.00855211354792118;-0.012217304669320583;0.0036651913542300463
01:00:0A:00:00:00:00;1727655001;30/09/24;00:10:01;1.016;-0.005;0.047;-0.00855211354792118;-0.013439035043120384;0.0024434609804302454
01:00:0A:00:00:00:00;1727655002;30/09/24;00:10:02;1.016;-0.002;0.047;-0.00855211354792118;-0.012217304669320583;0.0024434609804302454
01:00:0A:00:00:00:00;1727655003;30/09/24;00:10:03;1.016;-0.002;0.047;-0.009773843921720982;-0.00855211354792118;0.0036651913542300463
01:00:0A:00:00:00:00;1727655004;30/09/24;00:10:04;1.016;-0.004;0.046;-0.00855211354792118;-0.012217304669320583;0.0
01:00:0A:00:00:00:00;1727655005;30/09/24;00:10:05;1.016;-0.003;0.046;-0.009773843921720982;-0.012217304669320583;0.0036651913542300463
01:00:0A:00:00:00:00;1727655006;30/09/24;00:10:06;1.016;-0.003;0.048;-0.009773843921720982;-0.013439035043120384;0.0036651913542300463
01:00:0A:00:00:00:00;1727655007;30/09/24;00:10:07;1.016;-0.002;0.048;-0.009773843921720982;-0.009773843921720982;0.0012217304902151227
01:00:0A:00:00:00:00;1727655008;30/09/24;00:10:08;1.016;-0.004;0.047;-0.009773843921720982;-0.00855211354792118;0.0024434609804302454
01:00:0A:00:00:00:00;1727655009;30/09/24;00:10:09;1.016;-0.004;0.045;-0.009773843921720982;-0.010995574295520782;0.0012217304902151227
01:00:0A:00:00:00:00;1727655010;30/09/24;00:10:10;1.016;-0.004;0.047;-0.010995574295520782;-0.013439035043120384;0.004886921960860491
01:00:0A:00:00:00:00;1727655011;30/09/24;00:10:11;1.016;-0.003;0.047;-0.009773843921720982;-0.012217304669320583;0.0
01:00:0A:00:00:00:00;1727655012;30/09/24;00:10:12;1.016;-0.002;0.046;-0.009773843921720982;-0.00855211354792118;0.0012217304902151227
01:00:0A:00:00:00:00;1727655013;30/09/24;00:10:13;1.016;-0.005;0.047;-0.010995574295520782;-0.009773843921720982;0.0036651913542300463
01:00:0A:00:00:00:00;1727655014;30/09/24;00:10:14;1.016;-0.004;0.046;-0.009773843921720982;-0.013439035043120384;0.0
01:00:0A:00:00:00:00;1727655015;30/09/24;00:10:15;1.016;-0.004;0.047;-0.009773843921720982;-0.015882495790719986;0.0036651913542300463
01:00:0A:00:00:00:00;1727655016;30/09/24;00:10:16;1.016;-0.004;0.048;-0.009773843921720982;-0.010995574295520782;0.0012217304902151227
01:00:0A:00:00:00:00;1727655017;30/09/24;00:10:17;1.016;-0.003;0.047;-0.009773843921720982;-0.009773843921720982;0.0024434609804302454
01:00:0A:00:00:00:00;1727655018;30/09/24;00:10:18;1.016;-0.005;0.046;-0.009773843921720982;-0.009773843921720982;0.0012217304902151227
01:00:0A:00:00:00:00;1727655019;30/09/24;00:10:19;1.015;-0.003;0.046;-0.009773843921720982;-0.014660765416920185;0.0024434609804302454
01:00:0A:00:00:00:00;1727655020;30/09/24;00:10:20;1.016;-0.004;0.046;-0.010995574295520782;-0.012217304669320583;0.0036651913542300463
01:00:0A:00:00:00:00;1727655021;30/09/24;00:10:21;1.017;-0.003;0.048;-0.009773843921720982;-0.010995574295520782;0.0
01:00:0A:00:00:00:00;1727655022;30/09/24;00:10:22;1.016;-0.004;0.046;-0.010995574295520782;-0.009773843921720982;0.0024434609804302454
01:00:0A:00:00:00:00;1727655023;30/09/24;00:10:23;1.016;-0.004;0.046;-0.010995574295520782;-0.012217304669320583;0.0036651913542300463
01:00:0A:00:00:00:00;1727655024;30/09/24;00:10:24;1.016;-0.004;0.046;-0.010995574295520782;-0.012217304669320583;0.0012217304902151227
01:00:0A:00:00:00:00;1727655025;30/09/24;00:10:25;1.016;-0.004;0.048;-0.010995574295520782;-0.010995574295520782;0.0024434609804302454
01:00:0A:00:00:00:00;1727655026;30/09/24;00:10:26;1.016;-0.003;0.046;-0.010995574295520782;-0.010995574295520782;0.0012217304902151227
01:00:0A:00:00:00:00;1727655027;30/09/24;00:10:27;1.016;-0.004;0.046;-0.012217304669320583;-0.010995574295520782;0.0036651913542300463
01:00:0A:00:00:00:00;1727655028;30/09/24;00:10:28;1.016;-0.004;0.046;-0.010995574295520782;-0.013439035043120384;0.0012217304902151227
01:00:0A:00:00:00:00;1727655029;30/09/24;00:10:29;1.016;-0.004;0.047;-0.010995574295520782;-0.010995574295520782;0.0012217304902151227
01:00:0A:00:00:00:00;1727655030;30/09/24;00:10:30;1.016;-0.005;0.046;-0.012217304669320583;-0.009773843921720982;0.0036651913542300463
01:00:0A:00:00:00:00;1727655031;30/09/24;00:10:31;1.016;-0.004;0.046;-0.010995574295520782;-0.009773843921720982;0.0012217304902151227
01:00:0A:00:00:00:00;1727655032;30/09/24;00:10:32;1.016;-0.004;0.045;-0.010995574295520782;-0.013439035043120384;0.0036651913542300463
01:00:0A:00:00:00:00;1727655033;30/09/24;00:10:33;1.016;-0.004;0.046;-0.010995574295520782;-0.012217304669320583;0.0012217304902151227
01:00:0A:00:00:00:00;1727655034;30/09/24;00:10:34;1.016;-0.003;0.047;-0.010995574295520782;-0.012217304669320583;0.0036651913542300463
01:00:0A:00:00:00:00;1727655035;30/09/24;00:10:35;1.017;-0.004;0.048;-0.010995574295520782;-0.009773843921720982;0.0024434609804302454
01:00:0A:00:00:00:00;1727655036;30/09/24;00:10:36;1.015;-0.004;0.046;-0.010995574295520782;-0.012217304669320583;0.0
01:00:0A:00:00:00:00;1727655037;30/09/24;00:10:37;1.015;-0.004;0.045;-0.010995574295520782;-0.012217304669320583;0.0036651913542300463
01:00:0A:00:00:00:00;1727655038;30/09/24;00:10:38;1.016;-0.004;0.047;-0.010995574295520782;-0.012217304669320583;0.0012217304902151227
01:00:0A:00:00:00:00;1727655039;30/09/24;00:10:39;1.017;-0.003;0.047;-0.012217304669320583;-0.010995574295520782;0.0036651913542300463
01:00:0A:00:00:00:00;1727655040;30/09/24;00:10:40;1.016;-0.003;0.047;-0.012217304669320583;-0.010995574295520782;0.0024434609804302454
01:00:0A:00:00:00:00;1727655041;30/09/24;00:10:41;1.016;-0.004;0.045;-0.012217304669320583;-0.010995574295520782;0.0024434609804302454
01:00:0A:00:00:00:00;1727655042;30/09/24;00:10:42;1.017;-0.003;0.046;-0.012217304669320583;-0.012217304669320583;0.0024434609804302454
01:00:0A:00:00:00:00;1727655043;30/09/24;00:10:43;1.016;-0.004;0.045;-0.012217304669320583;-0.010995574295520782;0.0012217304902151227
01:00:0A:00:00:00:00;1727655044;30/09/24;00:10:44;1.017;-0.003;0.046;-0.013439035043120384;-0.010995574295520782;0.0036651913542300463
01:00:0A:00:00:00:00;1727655045;30/09/24;00:10:45;1.016;-0.004;0.045;-0.013439035043120384;-0.010995574295520782;0.0012217304902151227
01:00:0A:00:00:00:00;1727655046;30/09/24;00:10:46;1.016;-0.005;0.047;-0.013439035043120384;-0.010995574295520782;0.0024434609804302454
01:00:0A:00:00:00:00;1727655047;30/09/24;00:10:47;1.017;-0.003;0.046;-0.013439035043120384;-0.010995574295520782;0.0012217304902151227
01:00:0A:00:00:00:00;1727655048;30/09/24;00:10:48;1.016;-0.004;0.046;-0.013439035043120384;-0.009773843921720982;0.0012217304902151227
01:00:0A:00:00:00:00;1727655049;30/09/24;00:10:49;1.015;-0.004;0.045;-0.013439035043120384;-0.012217304669320583;0.0024434609804302454
01:00:0A:00:00:00:00;1727655050;30/09/24;00:10:50;1.016;-0.005;0.046;-0.013439035043120384;-0.010995574295520782;0.0012217304902151227
01:00:0A:00:00:00:00;1727655051;30/09/24;00:10:51;1.017;-0.004;0.046;-0.013439035043120384;-0.012217304669320583;0.0024434609804302454
01:00:0A:00:00:00:00;1727655052;30/09/24;00:10:52;1.017;-0.002;0.046;-0.013439035043120384;-0.009773843921720982;0.0012217304902151227
01:00:0A:00:00:00:00;1727655053;30/09/24;00:10:53;1.016;-0.004;0.046;-0.013439035043120384;-0.010995574295520782;0.0012217304902151227
01:00:0A:00:00:00:00;1727655054;30/09/24;00:10:54;1.016;-0.003;0.047;-0.013439035043120384;-0.010995574295520782;0.0024434609804302454
01:00:0A:00:00:00:00;1727655055;30/09/24;00:10:55;1.016;-0.004;0.047;-0.013439035043120384;-0.010995574295520782;0.0012217304902151227
01:00:0A:00:00:00:00;1727655056;30/09/24;00:10:56;1.016;-0.003;0.045;-0.013439035043120384;-0.010995574295520782;0.0024434609804302454
01:00:0A:00:00:00:00;1727655057;30/09/24;00:10:57;1.017;-0.004;0.046;-0.013439035043120384;-0.010995574295520782;0.0012217304902151227
01:00:0A:00:00:00:00;1727655058;30/09/24;00:10:58;1.016;-0.003;0.046;-0.013439035043120384;-0.010995574295520782;0.0024434609804302454
01:00:0A:00:00:00:00;1727655059;30/09/24;00:10:59;1.016;-0.004;0.047;-0.013439035043120384;-0.010995574295520782;0.0024434609804302454
01:00:0A:00:00:00:00;1727655060;30/09/24;00:11:00;1.016;-0.003;0.046;-0.013439035043120384;-0.010995574295520782;0.0024434609804302454
01:00:0A:00:00:00:00;1727655061;30/09/24;00:11:01;1.016;-0.003;0.047;-0.013439035043120384;-0.010995574295520782;0.0024434609804302454
01:00:0A:00:00:00:00;1727655062;30/09/24;00:11:02;1.016;-0.004;0.046;-0.013439035043120384;-0.012217304669320583;0.0012217304902151227
01:00:0A:00:00:00:00;1727655063;30/09/24;00:11:03;1.016;-0.004;0.046;-0.013439035043120384;-0.012217304669320583;0.0036651913542300463
01:00:0A:00:00:00:00;1727655064;30/09/24;00:11:04;1.016;-0.003;0.045;-0.012217304669320583;-0.010995574295520782;0.0024434609804302454
01:00:0A:00:00:00:00;1727655065;30/09/24;00:11:05;1.016;-0.004;0.046;-0.013439035043120384;-0.010995574295520782;0.0024434609804302454
01:00:0A:00:00:00:00;1727655066;30/09/24;00:11:06;1.016;-0.003;0.046;-0.013439035043120384;-0.012217304669320583;0.0012217304902151227
01:00:0A:00:00:00:00;1727655067;30/09/24;00:11:07;1.016;-0.004;0.047;-0.013439035043120384;-0.010995574295520782;0.0024434609804302454
01:00:0A:00:00:00:00;1727655068;30/09/24;00:11:08;1.016;-0.002;0.048;-0.013439035043120384;-0.012217304669320583;0.0024434609804302454
01:00:0A:00:00:00:00;1727655069;30/09/24;00:11:09;1.016;-0.004;0.046;-0.013439035043120384;-0.009773843921720982;0.0024434609804302454
01:00:0A:00:00:00:00;1727655070;30/09/24;00:11:10;1.016;-0.003;0.045;-0.013439035043120384;-0.012217304669320583;0.0012217304902151227
01:00:0A:00:00:00:00;1727655071;30/09/24;00:11:11;1.016;-0.005;0.047;-0.013439035043120384;-0.010995574295520782;0.0012217304902151227
01:00:0A:00:00:00:00;1727655072;30/09/24;00:11:12;1.016;-0.004;0.047;-0.013439035043120384;-0.012217304669320583;0.0024434609804302454
01:00:0A:00:00:00:00;1727655073;30/09/24;00:11:13;1.016;-0.003;0.046;-0.013439035043120384;-0.010995574295520782;0.0036651913542300463
01:00:0A:00:00:00:00;1727655074;30/09/24;00:11:14;1.016;-0.003;0.046;-0.013439035043120384;-0.010995574295520782;0.0012217304902151227
01:00:0A:00:00:00:00;1727655075;30/09/24;00:11:15;1.017;-0.002;0.047;-0.012217304669320583;-0.012217304669320583;0.0012217304902151227
01:00:0A:00:00:00:00;1727655076;30/09/24;00:11:16;1.016;-0.004;0.047;-0.013439035043120384;-0.010995574295520782;0.0024434609804302454
01:00:0A:00:00:00:00;1727655077;30/09/24;00:11:17;1.016;-0.003;0.047;-0.012217304669320583;-0.012217304669320583;0.0024434609804302454
01:00:0A:00:00:00:00;1727655078;30/09/24;00:11:18;1.016;-0.004;0.047;-0.012217304669320583;-0.010995574295520782;0.0024434609804302454
01:00:0A:00:00:00:00;1727655079;30/09/24;00:11:19;1.016;-0.004;0.046;-0.012217304669320583;-0.012217304669320583;0.0012217304902151227
01:00:0A:00:00:00:00;1727655080;30/09/24;00:11:20;1.016;-0.003;0.047;-0.012217304669320583;-0.010995574295520782;0.0024434609804302454
01:00:0A:00:00:00:00;1727655081;30/09/24;00:11:21;1.016;-0.003;0.046;-0.010995574295520782;-0.010995574295520782;0.0012217304902151227
01:00:0A:00:00:00:00;1727655082;30/09/24;00:11:22;1.016;-0.003;0.047;-0.010995574295520782;-0.012217304669320583;0.0036651913542300463
01:00:0A:00:00:00:00;1727655083;30/09/24;00:11:23;1.016;-0.003;0.046;-0.010995574295520782;-0.010995574295520782;0.0024434609804302454
01:00:0A:00:00:00:00;1727655084;30/09/24;00:11:24;1.016;-0.004;0.047;-0.010995574295520782;-0.012217304669320583;0.0024434609804302454
01:00:0A:00:00:00:00;1727655085;30/09/24;00:11:25;1.016;-0.003;0.048;-0.010995574295520782;-0.012217304669320583;0.0012217304902151227
01:00:0A:00:00:00:00;1727655086;30/09/24;00:11:26;1.016;-0.003;0.047;-0.010995574295520782;-0.010995574295520782;0.0036651913542300463
01:00:0A:00:00:00:00;1727655087;30/09/24;00:11:27;1.016;-0.003;0.047;-0.009773843921720982;-0.012217304669320583;0.0024434609804302454
01:00:0A:00:00:00:00;1727655088;30/09/24;00:11:28;1.016;-0.004;0.046;-0.009773843921720982;-0.010995574295520782;0.0012217304902151227
01:00:0A:00:00:00:00;1727655089;30/09/24;00:11:29;1.016;-0.004;0.046;-0.009773843921720982;-0.012217304669320583;0.0012217304902151227
01:00:0A:00:00:00:00;1727655090;30/09/24;00:11:30;1.016;-0.003;0.047;-0.009773843921720982;-0.010995574295520782;0.0024434609804302454
01:00:0A:00:00:00:00;1727655091;30/09/24;00:11:31;1.015;0.018;0.032;-0.015882495790719986;-0.03420845419168472;-0.024434609338641167
01:00:0A:00:00:00:00;1727655092;30/09/24;00:11:32;1.016;0.03;0.024;-0.051312677562236786;-0.010995574295520782;0.004886921960860491
01:00:0A:00:00:00:00;1727655093;30/09/24;00:11:33;1.016;0.015;0.03;-0.07330382615327835;-0.006108652334660292;0.021991148591041565
01:00:0A:00:00:00:00;1727655094;30/09/24;00:11:34;1.016;-0.006;0.044;-0.07452555745840073;0.006108652334660292;0.018325956538319588
01:00:0A:00:00:00:00;1727655095;30/09/24;00:11:35;1.016;-0.011;0.056;-0.06108652427792549;-0.009773843921720982;-0.0073303827084600925
01:00:0A:00:00:00:00;1727655096;30/09/24;00:11:36;1.016;0.002;0.042;-0.05864306166768074;-0.02687807008624077;-0.0073303827084600925
01:00:0A:00:00:00:00;1727655097;30/09/24;00:11:37;1.016;-0.001;0.042;-0.06475171446800232;-0.0036651913542300463;0.01710422709584236
01:00:0A:00:00:00:00;1727655098;30/09/24;00:11:38;1.016;-0.012;0.053;-0.05742133408784866;-0.006108652334660292;-0.0012217304902151227
01:00:0A:00:00:00:00;1727655099;30/09/24;00:11:39;1.016;0.0;0.046;-0.051312677562236786;-0.02321287989616394;-0.012217304669320583
01:00:0A:00:00:00:00;1727655100;30/09/24;00:11:40;1.016;0.0;0.042;-0.05864306166768074;-0.009773843921720982;0.013439035043120384
01:00:0A:00:00:00:00;1727655101;30/09/24;00:11:41;1.015;-0.011;0.05;-0.05375614017248154;-0.006108652334660292;0.004886921960860491
01:00:0A:00:00:00:00;1727655102;30/09/24;00:11:42;1.016;-0.002;0.047;-0.04764748737215996;-0.01710422709584236;-0.013439035043120384
01:00:0A:00:00:00:00;1727655103;30/09/24;00:11:43;1.016;0.0;0.043;-0.05375614017248154;-0.013439035043120384;0.009773843921720982
01:00:0A:00:00:00:00;1727655104;30/09/24;00:11:44;1.016;-0.01;0.047;-0.05375614017248154;-0.006108652334660292;0.00855211354792118
01:00:0A:00:00:00:00;1727655105;30/09/24;00:11:45;1.016;-0.004;0.049;-0.04642575979232788;-0.014660765416920185;-0.009773843921720982
01:00:0A:00:00:00:00;1727655106;30/09/24;00:11:46;1.016;0.0;0.045;-0.05009094998240471;-0.014660765416920185;0.0036651913542300463
01:00:0A:00:00:00:00;1727655107;30/09/24;00:11:47;1.016;-0.007;0.046;-0.051312677562236786;-0.0073303827084600925;0.010995574295520782
01:00:0A:00:00:00:00;1727655108;30/09/24;00:11:48;1.016;-0.007;0.048;-0.045204028487205505;-0.012217304669320583;-0.0073303827084600925
01:00:0A:00:00:00:00;1727655109;30/09/24;00:11:49;1.016;0.0;0.046;-0.04642575979232788;-0.014660765416920185;0.0012217304902151227
01:00:0A:00:00:00:00;1727655110;30/09/24;00:11:50;1.016;-0.006;0.045;-0.04886921867728233;-0.009773843921720982;0.009773843921720982
01:00:0A:00:00:00:00;1727655111;30/09/24;00:11:51;1.016;-0.008;0.048;-0.04398229718208313;-0.009773843921720982;-0.004886921960860491
01:00:0A:00:00:00:00;1727655112;30/09/24;00:11:52;1.016;0.0;0.046;-0.04398229718208313;-0.013439035043120384;-0.0012217304902151227
01:00:0A:00:00:00:00;1727655113;30/09/24;00:11:53;1.016;-0.003;0.044;-0.04764748737215996;-0.012217304669320583;0.009773843921720982
01:00:0A:00:00:00:00;1727655114;30/09/24;00:11:54;1.017;-0.008;0.047;-0.04398229718208313;-0.009773843921720982;0.0
01:00:0A:00:00:00:00;1727655115;30/09/24;00:11:55;1.016;-0.001;0.048;-0.042760565876960754;-0.013439035043120384;-0.004886921960860491
01:00:0A:00:00:00:00;1727655116;30/09/24;00:11:56;1.016;-0.003;0.047;-0.04642575979232788;-0.012217304669320583;0.00855211354792118
01:00:0A:00:00:00:00;1727655117;30/09/24;00:11:57;1.016;-0.007;0.047;-0.04398229718208313;-0.009773843921720982;0.0012217304902151227
01:00:0A:00:00:00:00;1727655118;30/09/24;00:11:58;1.017;-0.003;0.048;-0.04153883829712868;-0.012217304669320583;-0.0036651913542300463
01:00:0A:00:00:00:00;1727655119;30/09/24;00:11:59;1.016;-0.001;0.049;-0.04642575979232788;0.0012217304902151227;0.0012217304902151227
01:00:0A:00:00:00:00;1727655120;30/09/24;00:12:00;1.016;-0.004;0.065;-0.04886921867728233;0.0;0.0012217304902151227
01:00:0A:00:00:00:00;1727655121;30/09/24;00:12:01;1.016;-0.006;0.069;-0.051312677562236786;-0.015882495790719986;0.0012217304902151227
01:00:0A:00:00:00:00;1727655122;30/09/24;00:12:02;1.016;-0.004;0.06;-0.051312677562236786;-0.02687807008624077;0.0
01:00:0A:00:00:00:00;1727655123;30/09/24;00:12:03;1.016;-0.007;0.047;-0.051312677562236786;-0.02076941914856434;0.004886921960860491
01:00:0A:00:00:00:00;1727655124;30/09/24;00:12:04;1.016;-0.005;0.047;-0.04642575979232788;-0.009773843921720982;-0.0036651913542300463
01:00:0A:00:00:00:00;1727655125;30/09/24;00:12:05;1.016;0.0;0.048;-0.04764748737215996;-0.010995574295520782;0.0
01:00:0A:00:00:00:00;1727655126;30/09/24;00:12:06;1.016;-0.006;0.046;-0.04764748737215996;-0.014660765416920185;0.0073303827084600925
01:00:0A:00:00:00:00;1727655127;30/09/24;00:12:07;1.016;-0.006;0.046;-0.04398229718208313;-0.009773843921720982;-0.0024434609804302454
01:00:0A:00:00:00:00;1727655128;30/09/24;00:12:08;1.016;-0.001;0.048;-0.04398229718208313;-0.009773843921720982;0.0
01:00:0A:00:00:00:00;1727655129;30/09/24;00:12:09;1.016;-0.004;0.047;-0.04398229718208313;-0.014660765416920185;0.004886921960860491
01:00:0A:00:00:00:00;1727655130;30/09/24;00:12:10;1.016;-0.006;0.045;-0.04153883829712868;-0.010995574295520782;0.0
01:00:0A:00:00:00:00;1727655131;30/09/24;00:12:11;1.016;-0.002;0.047;-0.040317103266716;-0.010995574295520782;0.0
01:00:0A:00:00:00:00;1727655132;30/09/24;00:12:12;1.016;-0.004;0.048;-0.04153883829712868;-0.013439035043120384;0.0036651913542300463
01:00:0A:00:00:00:00;1727655133;30/09/24;00:12:13;1.016;-0.005;0.045;-0.039095375686883926;-0.012217304669320583;0.0012217304902151227
01:00:0A:00:00:00:00;1727655134;30/09/24;00:12:14;1.016;-0.004;0.047;-0.03787364438176155;-0.00855211354792118;-0.0012217304902151227
01:00:0A:00:00:00:00;1727655135;30/09/24;00:12:15;1.017;-0.002;0.047;-0.039095375686883926;-0.014660765416920185;0.0036651913542300463
01:00:0A:00:00:00:00;1727655136;30/09/24;00:12:16;1.016;-0.004;0.045;-0.03787364438176155;-0.013439035043120384;0.0012217304902151227
01:00:0A:00:00:00:00;1727655137;30/09/24;00:12:17;1.016;-0.004;0.047;-0.036651913076639175;-0.009773843921720982;-0.0012217304902151227
01:00:0A:00:00:00:00;1727655138;30/09/24;00:12:18;1.016;-0.002;0.048;-0.036651913076639175;-0.012217304669320583;0.0036651913542300463
01:00:0A:00:00:00:00;1727655139;30/09/24;00:12:19;1.016;-0.005;0.045;-0.0354301817715168;-0.013439035043120384;0.0024434609804302454
01:00:0A:00:00:00:00;1727655140;30/09/24;00:12:20;1.016;-0.008;0.05;-0.03420845419168472;-0.004886921960860491;0.0073303827084600925
01:00:0A:00:00:00:00;1727655141;30/09/24;00:12:21;1.016;-0.009;0.052;-0.02687807008624077;-0.012217304669320583;0.0012217304902151227
01:00:0A:00:00:00:00;1727655142;30/09/24;00:12:22;1.016;-0.014;0.051;-0.018325956538319588;-0.013439035043120384;0.004886921960860491
01:00:0A:00:00:00:00;1727655143;30/09/24;00:12:23;1.016;-0.01;0.049;-0.0073303827084600925;-0.014660765416920185;-0.006108652334660292
01:00:0A:00:00:00:00;1727655144;30/09/24;00:12:24;1.016;-0.002;0.046;-0.006108652334660292;-0.010995574295520782;-0.0036651913542300463
01:00:0A:00:00:00:00;1727655145;30/09/24;00:12:25;1.016;-0.002;0.047;-0.009773843921720982;-0.012217304669320583;0.004886921960860491
01:00:0A:00:00:00:00;1727655146;30/09/24;00:12:26;1.016;-0.007;0.047;-0.009773843921720982;-0.012217304669320583;0.0036651913542300463
01:00:0A:00:00:00:00;1727655147;30/09/24;00:12:27;1.016;-0.004;0.046;-0.00855211354792118;-0.010995574295520782;-0.0012217304902151227
01:00:0A:00:00:00:00;1727655148;30/09/24;00:12:28;1.016;-0.001;0.046;-0.009773843921720982;-0.012217304669320583;0.0024434609804302454
01:00:0A:00:00:00:00;1727655149;30/09/24;00:12:29;1.016;-0.005;0.046;-0.010995574295520782;-0.012217304669320583;0.004886921960860491
01:00:0A:00:00:00:00;1727655150;30/09/24;00:12:30;1.016;-0.005;0.047;-0.009773843921720982;-0.010995574295520782;-0.0012217304902151227
01:00:0A:00:00:00:00;1727655151;30/09/24;00:12:31;1.016;-0.001;0.048;-0.009773843921720982;-0.010995574295520782;0.0024434609804302454
01:00:0A:00:00:00:00;1727655152;30/09/24;00:12:32;1.016;-0.004;0.048;-0.012217304669320583;-0.012217304669320583;0.004886921960860491
01:00:0A:00:00:00:00;1727655153;30/09/24;00:12:33;1.016;-0.005;0.047;-0.010995574295520782;-0.010995574295520782;0.0
01:00:0A:00:00:00:00;1727655154;30/09/24;00:12:34;1.016;-0.008;0.049;-0.00855211354792118;-0.009773843921720982;0.00855211354792118
01:00:0A:00:00:00:00;1727655155;30/09/24;00:12:35;1.016;-0.009;0.048;-0.0036651913542300463;-0.013439035043120384;0.0
01:00:0A:00:00:00:00;1727655156;30/09/24;00:12:36;1.016;-0.008;0.046;0.0;-0.010995574295520782;0.0036651913542300463
01:00:0A:00:00:00:00;1727655157;30/09/24;00:12:37;1.016;-0.007;0.048;0.004886921960860491;-0.009773843921720982;-0.0036651913542300463
01:00:0A:00:00:00:00;1727655158;30/09/24;00:12:38;1.016;0.0;0.047;0.0024434609804302454;-0.013439035043120384;-0.0024434609804302454
01:00:0A:00:00:00:00;1727655159;30/09/24;00:12:39;1.016;-0.003;0.045;-0.0024434609804302454;-0.010995574295520782;0.012217304669320583
01:00:0A:00:00:00:00;1727655160;30/09/24;00:12:40;1.016;-0.009;0.047;0.0012217304902151227;-0.009773843921720982;-0.0012217304902151227
01:00:0A:00:00:00:00;1727655161;30/09/24;00:12:41;1.017;0.0;0.047;0.0012217304902151227;-0.013439035043120384;-0.004886921960860491
01:00:0A:00:00:00:00;1727655162;30/09/24;00:12:42;1.016;-0.002;0.045;-0.0036651913542300463;-0.010995574295520782;0.009773843921720982
01:00:0A:00:00:00:00;1727655163;30/09/24;00:12:43;1.016;-0.008;0.047;-0.0024434609804302454;-0.009773843921720982;0.0024434609804302454
01:00:0A:00:00:00:00;1727655164;30/09/24;00:12:44;1.016;-0.002;0.048;0.0;-0.012217304669320583;-0.0036651913542300463
01:00:0A:00:00:00:00;1727655165;30/09/24;00:12:45;1.016;-0.001;0.046;-0.004886921960860491;-0.010995574295520782;0.0073303827084600925
01:00:0A:00:00:00:00;1727655166;30/09/24;00:12:46;1.016;-0.006;0.046;-0.004886921960860491;-0.010995574295520782;0.004886921960860491
01:00:0A:00:00:00:00;1727655167;30/09/24;00:12:47;1.016;-0.006;0.05;-0.0012217304902151227;-0.010995574295520782;0.0024434609804302454
01:00:0A:00:00:00:00;1727655168;30/09/24;00:12:48;1.016;-0.007;0.047;0.0024434609804302454;-0.013439035043120384;0.0
01:00:0A:00:00:00:00;1727655169;30/09/24;00:12:49;1.016;-0.009;0.046;0.006108652334660292;-0.010995574295520782;0.004886921960860491
01:00:0A:00:00:00:00;1727655170;30/09/24;00:12:50;1.017;-0.004;0.047;0.00855211354792118;-0.009773843921720982;-0.006108652334660292
01:00:0A:00:00:00:00;1727655171;30/09/24;00:12:51;1.016;-0.001;0.048;0.004886921960860491;-0.012217304669320583;0.004886921960860491
01:00:0A:00:00:00:00;1727655172;30/09/24;00:12:52;1.016;-0.006;0.047;0.0036651913542300463;-0.012217304669320583;0.006108652334660292
01:00:0A:00:00:00:00;1727655173;30/09/24;00:12:53;1.016;-0.005;0.046;0.006108652334660292;-0.010995574295520782;-0.0024434609804302454
01:00:0A:00:00:00:00;1727655174;30/09/24;00:12:54;1.016;-0.002;0.048;0.0036651913542300463;-0.010995574295520782;0.0036651913542300463
01:00:0A:00:00:00:00;1727655175;30/09/24;00:12:55;1.016;-0.006;0.047;0.0024434609804302454;-0.012217304669320583;0.006108652334660292
01:00:0A:00:00:00:00;1727655176;30/09/24;00:12:56;1.016;-0.006;0.048;0.004886921960860491;-0.010995574295520782;-0.0012217304902151227
01:00:0A:00:00:00:00;1727655177;30/09/24;00:12:57;1.016;-0.002;0.048;0.0036651913542300463;-0.010995574295520782;0.0012217304902151227
01:00:0A:00:00:00:00;1727655178;30/09/24;00:12:58;1.016;-0.005;0.047;0.0012217304902151227;-0.012217304669320583;0.0073303827084600925
01:00:0A:00:00:00:00;1727655179;30/09/24;00:12:59;1.016;-0.005;0.047;0.0036651913542300463;-0.009773843921720982;0.0
01:00:0A:00:00:00:00;1727655180;30/09/24;00:13:00;1.016;-0.002;0.047;0.0036651913542300463;-0.010995574295520782;0.0
01:00:0A:00:00:00:00;1727655181;30/09/24;00:13:01;1.016;-0.004;0.047;0.0024434609804302454;-0.012217304669320583;0.006108652334660292
01:00:0A:00:00:00:00;1727655182;30/09/24;00:13:02;1.016;-0.005;0.047;0.0036651913542300463;-0.010995574295520782;0.0012217304902151227
01:00:0A:00:00:00:00;1727655183;30/09/24;00:13:03;1.016;-0.002;0.048;0.0036651913542300463;-0.010995574295520782;0.0012217304902151227
01:00:0A:00:00:00:00;1727655184;30/09/24;00:13:04;1.016;-0.004;0.047;0.0036651913542300463;-0.012217304669320583;0.0036651913542300463
01:00:0A:00:00:00:00;1727655185;30/09/24;00:13:05;1.016;-0.005;0.047;0.0036651913542300463;-0.012217304669320583;0.0024434609804302454
01:00:0A:00:00:00:00;1727655186;30/09/24;00:13:06;1.016;-0.002;0.048;0.004886921960860491;-0.010995574295520782;0.0
01:00:0A:00:00:00:00;1727655187;30/09/24;00:13:07;1.016;-0.004;0.046;0.0036651913542300463;-0.010995574295520782;0.004886921960860491
01:00:0A:00:00:00:00;1727655188;30/09/24;00:13:08;1.016;-0.004;0.048;0.004886921960860491;-0.012217304669320583;0.0036651913542300463
01:00:0A:00:00:00:00;1727655189;30/09/24;00:13:09;1.016;-0.003;0.047;0.006108652334660292;-0.010995574295520782;0.0
01:00:0A:00:00:00:00;1727655190;30/09/24;00:13:10;1.016;-0.003;0.048;0.004886921960860491;-0.012217304669320583;0.0036651913542300463
01:00:0A:00:00:00:00;1727655191;30/09/24;00:13:11;1.016;-0.005;0.047;0.004886921960860491;-0.010995574295520782;0.0036651913542300463
01:00:0A:00:00:00:00;1727655192;30/09/24;00:13:12;1.016;-0.004;0.047;0.006108652334660292;-0.010995574295520782;0.0012217304902151227
01:00:0A:00:00:00:00;1727655193;30/09/24;00:13:13;1.016;-0.002;0.047;0.004886921960860491;-0.012217304669320583;0.0024434609804302454
01:00:0A:00:00:00:00;1727655194;30/09/24;00:13:14;1.016;-0.004;0.048;0.004886921960860491;-0.010995574295520782;0.0024434609804302454
01:00:0A:00:00:00:00;1727655195;30/09/24;00:13:15;1.016;-0.003;0.047;0.004886921960860491;-0.010995574295520782;0.0012217304902151227
01:00:0A:00:00:00:00;1727655196;30/09/24;00:13:16;1.017;-0.003;0.048;0.004886921960860491;-0.010995574295520782;0.0024434609804302454
01:00:0A:00:00:00:00;1727655197;30/09/24;00:13:17;1.016;-0.004;0.047;0.004886921960860491;-0.010995574295520782;0.0036651913542300463
01:00:0A:00:00:00:00;1727655198;30/09/24;00:13:18;1.016;-0.003;0.047;0.004886921960860491;-0.010995574295520782;0.0012217304902151227
01:00:0A:00:00:00:00;1727655199;30/09/24;00:13:19;1.016;-0.004;0.047;0.004886921960860491;-0.010995574295520782;0.0012217304902151227
01:00:0A:00:00:00:00;1727655200;30/09/24;00:13:20;1.016;-0.003;0.047;0.0036651913542300463;-0.010995574295520782;0.0036651913542300463
01:00:0A:00:00:00:00;1727655201;30/09/24;00:13:21;1.016;-0.006;0.047;0.004886921960860491;-0.010995574295520782;0.0024434609804302454
01:00:0A:00:00:00:00;1727655202;30/09/24;00:13:22;1.016;-0.004;0.047;0.004886921960860491;-0.010995574295520782;0.0024434609804302454
01:00:0A:00:00:00:00;1727655203;30/09/24;00:13:23;1.016;-0.004;0.047;0.0036651913542300463;-0.012217304669320583;0.0024434609804302454
01:00:0A:00:00:00:00;1727655204;30/09/24;00:13:24;1.016;-0.004;0.048;0.0036651913542300463;-0.010995574295520782;0.0024434609804302454
01:00:0A:00:00:00:00;1727655205;30/09/24;00:13:25;1.016;-0.004;0.048;0.0036651913542300463;-0.012217304669320583;0.0024434609804302454
01:00:0A:00:00:00:00;1727655206;30/09/24;00:13:26;1.016;-0.004;0.047;0.0036651913542300463;-0.010995574295520782;0.0024434609804302454
01:00:0A:00:00:00:00;1727655207;30/09/24;00:13:27;1.016;-0.004;0.048;0.0036651913542300463;-0.010995574295520782;0.0024434609804302454
01:00:0A:00:00:00:00;1727655208;30/09/24;00:13:28;1.016;-0.003;0.047;0.0036651913542300463;-0.010995574295520782;0.0012217304902151227
01:00:0A:00:00:00:00;1727655209;30/09/24;00:13:29;1.016;-0.004;0.046;0.0036651913542300463;-0.010995574295520782;0.0036651913542300463
01:00:0A:00:00:00:00;1727655210;30/09/24;00:13:30;1.016;-0.003;0.047;0.0024434609804302454;-0.012217304669320583;0.0024434609804302454
01:00:0A:00:00:00:00;1727655211;30/09/24;00:13:31;1.016;-0.003;0.048;0.0024434609804302454;-0.010995574295520782;0.0012217304902151227
01:00:0A:00:00:00:00;1727655212;30/09/24;00:13:32;1.016;-0.003;0.047;0.0024434609804302454;-0.012217304669320583;0.0024434609804302454
01:00:0A:00:00:00:00;1727655213;30/09/24;00:13:33;1.016;-0.004;0.047;0.0024434609804302454;-0.010995574295520782;0.0024434609804302454
01:00:0A:00:00:00:00;1727655214;30/09/24;00:13:34;1.016;-0.004;0.047;0.0024434609804302454;-0.012217304669320583;0.0024434609804302454
01:00:0A:00:00:00:00;1727655215;30/09/24;00:13:35;1.016;-0.003;0.047;0.0012217304902151227;-0.012217304669320583;0.0024434609804302454
01:00:0A:00:00:00:00;1727655216;30/09/24;00:13:36;1.016;-0.003;0.047;0.0024434609804302454;-0.010995574295520782;0.0024434609804302454
01:00:0A:00:00:00:00;1727655217;30/09/24;00:13:37;1.016;-0.003;0.046;0.0012217304902151227;-0.012217304669320583;0.0024434609804302454
01:00:0A:00:00:00:00;1727655218;30/09/24;00:13:38;1.016;-0.003;0.048;0.0012217304902151227;-0.010995574295520782;0.0024434609804302454
01:00:0A:00:00:00:00;1727655219;30/09/24;00:13:39;1.016;-0.003;0.048;0.0012217304902151227;-0.010995574295520782;0.0024434609804302454
01:00:0A:00:00:00:00;1727655220;30/09/24;00:13:40;1.016;-0.004;0.047;0.0012217304902151227;-0.012217304669320583;0.0024434609804302454
01:00:0A:00:00:00:00;1727655221;30/09/24;00:13:41;1.016;-0.002;0.047;0.0012217304902151227;-0.010995574295520782;0.0024434609804302454
01:00:0A:00:00:00:00;1727655222;30/09/24;00:13:42;1.017;-0.004;0.048;0.0012217304902151227;-0.012217304669320583;0.0024434609804302454
01:00:0A:00:00:00:00;1727655223;30/09/24;00:13:43;1.016;-0.003;0.047;0.0012217304902151227;-0.010995574295520782;0.0024434609804302454
01:00:0A:00:00:00:00;1727655224;30/09/24;00:13:44;1.016;-0.003;0.047;0.0012217304902151227;-0.012217304669320583;0.0024434609804302454
01:00:0A:00:00:00:00;1727655225;30/09/24;00:13:45;1.016;-0.004;0.046;0.0012217304902151227;-0.010995574295520782;0.0024434609804302454
01:00:0A:00:00:00:00;1727655226;30/09/24;00:13:46;1.016;-0.004;0.048;0.0012217304902151227;-0.010995574295520782;0.0024434609804302454
01:00:0A:00:00:00:00;1727655227;30/09/24;00:13:47;1.016;-0.003;0.047;0.0012217304902151227;-0.012217304669320583;0.0024434609804302454
01:00:0A:00:00:00:00;1727655228;30/09/24;00:13:48;1.016;-0.003;0.047;0.0012217304902151227;-0.010995574295520782;0.0024434609804302454
01:00:0A:00:00:00:00;1727655229;30/09/24;00:13:49;1.016;-0.003;0.047;0.0;-0.012217304669320583;0.0024434609804302454
01:00:0A:00:00:00:00;1727655230;30/09/24;00:13:50;1.016;-0.003;0.046;0.0012217304902151227;-0.010995574295520782;0.0024434609804302454
01:00:0A:00:00:00:00;1727655231;30/09/24;00:13:51;1.016;-0.003;0.048;0.0;-0.010995574295520782;0.0024434609804302454
01:00:0A:00:00:00:00;1727655232;30/09/24;00:13:52;1.016;-0.003;0.046;0.0;-0.012217304669320583;0.0024434609804302454
01:00:0A:00:00:00:00;1727655233;30/09/24;00:13:53;1.016;-0.003;0.048;0.0012217304902151227;-0.010995574295520782;0.0024434609804302454
01:00:0A:00:00:00:00;1727655234;30/09/24;00:13:54;1.016;-0.003;0.047;0.0;-0.012217304669320583;0.0024434609804302454
01:00:0A:00:00:00:00;1727655235;30/09/24;00:13:55;1.016;-0.002;0.047;0.0;-0.010995574295520782;0.0024434609804302454
01:00:0A:00:00:00:00;1727655236;30/09/24;00:13:56;1.016;-0.003;0.047;0.0;-0.010995574295520782;0.0024434609804302454
01:00:0A:00:00:00:00;1727655237;30/09/24;00:13:57;1.016;-0.003;0.047;0.0012217304902151227;-0.012217304669320583;0.0024434609804302454
01:00:0A:00:00:00:00;1727655238;30/09/24;00:13:58;1.016;-0.003;0.047;0.0012217304902151227;-0.010995574295520782;0.0024434609804302454
01:00:0A:00:00:00:00;1727655239;30/09/24;00:13:59;1.016;-0.003;0.048;0.0012217304902151227;-0.012217304669320583;0.0024434609804302454
01:00:0A:00:00:00:00;1727655240;30/09/24;00:14:00;1.016;-0.004;0.046;0.0012217304902151227;-0.010995574295520782;0.0024434609804302454
01:00:0A:00:00:00:00;1727655241;30/09/24;00:14:01;1.016;-0.003;0.047;0.0012217304902151227;-0.010995574295520782;0.0024434609804302454
01:00:0A:00:00:00:00;1727655242;30/09/24;00:14:02;1.016;-0.004;0.047;0.0012217304902151227;-0.012217304669320583;0.0024434609804302454
01:00:0A:00:00:00:00;1727655243;30/09/24;00:14:03;1.016;-0.003;0.047;0.0012217304902151227;-0.010995574295520782;0.0024434609804302454
01:00:0A:00:00:00:00;1727655244;30/09/24;00:14:04;1.016;-0.003;0.048;0.0012217304902151227;-0.012217304669320583;0.0024434609804302454
01:00:0A:00:00:00:00;1727655245;30/09/24;00:14:05;1.016;-0.003;0.047;0.0012217304902151227;-0.010995574295520782;0.0024434609804302454
01:00:0A:00:00:00:00;1727655246;30/09/24;00:14:06;1.016;-0.004;0.047;0.0012217304902151227;-0.012217304669320583;0.0024434609804302454
01:00:0A:00:00:00:00;1727655247;30/09/24;00:14:07;1.016;-0.003;0.046;0.0012217304902151227;-0.010995574295520782;0.0024434609804302454
01:00:0A:00:00:00:00;1727655248;30/09/24;00:14:08;1.016;-0.003;0.048;0.0012217304902151227;-0.010995574295520782;0.0024434609804302454
01:00:0A:00:00:00:00;1727655249;30/09/24;00:14:09;1.016;-0.005;0.047;0.0012217304902151227;-0.012217304669320583;0.0024434609804302454
01:00:0A:00:00:00:00;1727655250;30/09/24;00:14:10;1.016;-0.003;0.047;0.0024434609804302454;-0.010995574295520782;0.0024434609804302454
01:00:0A:00:00:00:00;1727655251;30/09/24;00:14:11;1.016;-0.003;0.047;0.0024434609804302454;-0.012217304669320583;0.0024434609804302454
01:00:0A:00:00:00:00;1727655252;30/09/24;00:14:12;1.016;-0.004;0.046;0.0024434609804302454;-0.012217304669320583;0.0024434609804302454
01:00:0A:00:00:00:00;1727655253;30/09/24;00:14:13;1.016;-0.004;0.046;0.0024434609804302454;-0.010995574295520782;0.0024434609804302454
01:00:0A:00:00:00:00;1727655254;30/09/24;00:14:14;1.016;-0.004;0.047;0.0024434609804302454;-0.010995574295520782;0.0024434609804302454
01:00:0A:00:00:00:00;1727655255;30/09/24;00:14:15;1.016;-0.004;0.047;0.0024434609804302454;-0.010995574295520782;0.0024434609804302454
01:00:0A:00:00:00:00;1727655256;30/09/24;00:14:16;1.016;-0.004;0.046;0.0024434609804302454;-0.012217304669320583;0.0024434609804302454
01:00:0A:00:00:00:00;1727655257;30/09/24;00:14:17;1.017;-0.004;0.047;0.0024434609804302454;-0.010995574295520782;0.0024434609804302454
01:00:0A:00:00:00:00;1727655258;30/09/24;00:14:18;1.016;-0.003;0.047;0.0036651913542300463;-0.010995574295520782;0.0024434609804302454
01:00:0A:00:00:00:00;1727655259;30/09/24;00:14:19;1.017;-0.003;0.047;0.0036651913542300463;-0.010995574295520782;0.0024434609804302454
01:00:0A:00:00:00:00;1727655260;30/09/24;00:14:20;1.016;-0.003;0.047;0.0036651913542300463;-0.010995574295520782;0.0024434609804302454
01:00:0A:00:00:00:00;1727655261;30/09/24;00:14:21;1.016;-0.003;0.048;0.0036651913542300463;-0.012217304669320583;0.0024434609804302454
01:00:0A:00:00:00:00;1727655262;30/09/24;00:14:22;1.016;-0.004;0.048;0.0036651913542300463;-0.010995574295520782;0.0024434609804302454
01:00:0A:00:00:00:00;1727655263;30/09/24;00:14:23;1.016;-0.004;0.048;0.0036651913542300463;-0.010995574295520782;0.0024434609804302454
01:00:0A:00:00:00:00;1727655264;30/09/24;00:14:24;1.016;-0.004;0.047;0.0036651913542300463;-0.010995574295520782;0.0024434609804302454
01:00:0A:00:00:00:00;1727655265;30/09/24;00:14:25;1.017;-0.004;0.047;0.0036651913542300463;-0.010995574295520782;0.0024434609804302454
01:00:0A:00:00:00:00;1727655266;30/09/24;00:14:26;1.016;-0.003;0.047;0.004886921960860491;-0.010995574295520782;0.0024434609804302454
01:00:0A:00:00:00:00;1727655267;30/09/24;00:14:27;1.016;-0.003;0.047;0.004886921960860491;-0.010995574295520782;0.0024434609804302454
01:00:0A:00:00:00:00;1727655268;30/09/24;00:14:28;1.016;-0.003;0.048;0.004886921960860491;-0.010995574295520782;0.0024434609804302454
01:00:0A:00:00:00:00;1727655269;30/09/24;00:14:29;1.016;-0.003;0.046;0.004886921960860491;-0.010995574295520782;0.0024434609804302454
01:00:0A:00:00:00:00;1727655270;30/09/24;00:14:30;1.016;-0.003;0.047;0.004886921960860491;-0.010995574295520782;0.0024434609804302454
01:00:0A:00:00:00:00;1727655271;30/09/24;00:14:31;1.016;-0.004;0.047;0.004886921960860491;-0.010995574295520782;0.0024434609804302454
01:00:0A:00:00:00:00;1727655272;30/09/24;00:14:32;1.016;-0.004;0.047;0.004886921960860491;-0.010995574295520782;0.0024434609804302454
01:00:0A:00:00:00:00;1727655273;30/09/24;00:14:33;1.016;-0.004;0.046;0.004886921960860491;-0.010995574295520782;0.0024434609804302454
01:00:0A:00:00:00:00;1727655274;30/09/24;00:14:34;1.016;-0.003;0.046;0.004886921960860491;-0.010995574295520782;0.0024434609804302454
01:00:0A:00:00:00:00;1727655275;30/09/24;00:14:35;1.016;-0.003;0.046;0.004886921960860491;-0.010995574295520782;0.0024434609804302454
01:00:0A:00:00:00:00;1727655276;30/09/24;00:14:36;1.016;-0.003;0.047;0.006108652334660292;-0.012217304669320583;0.0024434609804302454
01:00:0A:00:00:00:00;1727655277;30/09/24;00:14:37;1.016;-0.003;0.047;0.006108652334660292;-0.010995574295520782;0.0024434609804302454
01:00:0A:00:00:00:00;1727655278;30/09/24;00:14:38;1.016;-0.004;0.047;0.006108652334660292;-0.010995574295520782;0.0024434609804302454
01:00:0A:00:00:00:00;1727655279;30/09/24;00:14:39;1.016;-0.003;0.048;0.006108652334660292;-0.010995574295520782;0.0024434609804302454
01:00:0A:00:00:00:00;1727655280;30/09/24;00:14:40;1.016;-0.004;0.047;0.006108652334660292;-0.012217304669320583;0.0024434609804302454
01:00:0A:00:00:00:00;1727655281;30/09/24;00:14:41;1.016;-0.004;0.047;0.006108652334660292;-0.010995574295520782;0.0024434609804302454
01:00:0A:00:00:00:00;1727655282;30/09/24;00:14:42;1.016;-0.004;0.047;0.006108652334660292;-0.010995574295520782;0.0024434609804302454
01:00:0A:00:00:00:00;1727655283;30/09/24;00:14:43;1.016;-0.003;0.048;0.0073303827084600925;-0.010995574295520782;0.0024434609804302454
01:00:0A:00:00:00:00;1727655284;30/09/24;00:14:44;1.016;-0.004;0.047;0.0073303827084600925;-0.010995574295520782;0.0024434609804302454
01:00:0A:00:00:00:00;1727655285;30/09/24;00:14:45;1.016;-0.003;0.047;0.0073303827084600925;-0.010995574295520782;0.0024434609804302454
01:00:0A:00:00:00:00;1727655286;30/09/24;00:14:46;1.016;-0.005;0.047;0.0073303827084600925;-0.010995574295520782;0.0024434609804302454
01:00:0A:00:00:00:00;1727655287;30/09/24;00:14:47;1.016;-0.004;0.047;0.0073303827084600925;-0.010995574295520782;0.0024434609804302454
01:00:0A:00:00:00:00;1727655288;30/09/24;00:14:48;1.016;-0.003;0.046;0.0073303827084600925;-0.012217304669320583;0.0024434609804302454
01:00:0A:00:00:00:00;1727655289;30/09/24;00:14:49;1.016;-0.004;0.047;0.0073303827084600925;-0.010995574295520782;0.0024434609804302454
01:00:0A:00:00:00:00;1727655290;30/09/24;00:14:50;1.016;-0.002;0.048;0.0073303827084600925;-0.012217304669320583;0.0024434609804302454
01:00:0A:00:00:00:00;1727655291;30/09/24;00:14:51;1.016;-0.004;0.048;0.00855211354792118;-0.010995574295520782;0.0024434609804302454
01:00:0A:00:00:00:00;1727655292;30/09/24;00:14:52;1.016;-0.004;0.048;0.00855211354792118;-0.010995574295520782;0.0024434609804302454
01:00:0A:00:00:00:00;1727655293;30/09/24;00:14:53;1.016;-0.003;0.048;0.00855211354792118;-0.010995574295520782;0.0024434609804302454
01:00:0A:00:00:00:00;1727655294;30/09/24;00:14:54;1.016;-0.004;0.047;0.00855211354792118;-0.010995574295520782;0.0024434609804302454
01:00:0A:00:00:00:00;1727655295;30/09/24;00:14:55;1.016;-0.003;0.047;0.00855211354792118;-0.012217304669320583;0.0024434609804302454
01:00:0A:00:00:00:00;1727655296;30/09/24;00:14:56;1.016;-0.004;0.046;0.00855211354792118;-0.010995574295520782;0.0024434609804302454
01:00:0A:00:00:00:00;1727655297;30/09/24;00:14:57;1.016;-0.003;0.046;0.00855211354792118;-0.010995574295520782;0.0024434609804302454
01:00:0A:00:00:00:00;1727655298;30/09/24;00:14:58;1.016;-0.003;0.046;0.00855211354792118;-0.010995574295520782;0.0024434609804302454
01:00:0A:00:00:00:00;1727655299;30/09/24;00:14:59;1.016;-0.004;0.047;0.00855211354792118;-0.010995574295520782;0.0024434609804302454
01:00:0A:00:00:00:00;1727655300;30/09/24;00:15:00;1.016;-0.004;0.047;0.00855211354792118;-0.010995574295520782;0.0024434609804302454
01:00:0A:00:00:00:00;1727655301;30/09/24;00:15:01;1.017;-0.003;0.047;0.00855211354792118;-0.010995574295520782;0.0024434609804302454
01:00:0A:00:00:00:00;1727655302;30/09/24;00:15:02;1.016;-0.004;0.047;0.00855211354792118;-0.010995574295520782;0.0024434609804302454
01:00:0A:00:00:00:00;1727655303;30/09/24;00:15:03;1.016;-0.003;0.048;0.00855211354792118;-0.010995574295520782;0.0024434609804302454
01:00:0A:00:00:00:00;1727655304;30/09/24;00:15:04;1.017;-0.002;0.047;0.00855211354792118;-0.010995574295520782;0.0024434609804302454
01:00:0A:00:00:00:00;1727655305;30/09/24;00:15:05;1.016;-0.003;0.046;0.009773843921720982;-0.012217304669320583;0.0024434609804302454
