Source;Epoch timestamp (UTC);Date;Time (UTC);Accel X (G);Accel Y (G);Accel Z (G);Gyro X (rad/s);Gyro Y (rad/s);Gyro Z (rad/s)
01:00:0A:00:00:00:00;1722816004;05/08/24;00:00:04;1.002;-0.058;0.128;0.09651670604944229;0.019547687843441963;-0.0012217304902151227
01:00:0A:00:00:00:00;1722816005;05/08/24;00:00:05;1.004;-0.019;0.109;0.10995574295520782;-0.028099799528717995;-0.05009094998240471
01:00:0A:00:00:00:00;1722816006;05/08/24;00:00:06;1.012;-0.031;0.115;0.08674286305904388;-0.006108652334660292;0.030543262138962746
01:00:0A:00:00:00:00;1722816007;05/08/24;00:00:07;1.019;-0.068;0.136;0.10873401165008545;-0.013439035043120384;-0.009773843921720982
01:00:0A:00:00:00:00;1722816008;05/08/24;00:00:08;1.023;-0.033;0.111;0.11728612333536148;-0.02932153083384037;-0.015882495790719986
01:00:0A:00:00:00:00;1722816009;05/08/24;00:00:09;1.016;-0.032;0.11;0.09896016865968704;-0.0012217304902151227;0.040317103266716
01:00:0A:00:00:00:00;1722816010;05/08/24;00:00:10;1.006;-0.049;0.128;0.1014036238193512;-0.0354301817715168;0.0354301817715168
01:00:0A:00:00:00:00;1722816011;05/08/24;00:00:11;1.01;-0.028;0.125;0.11850785464048386;-0.024434609338641167;-0.010995574295520782
01:00:0A:00:00:00:00;1722816012;05/08/24;00:00:12;1.009;-0.037;0.109;0.10873401165008545;0.0012217304902151227;0.0354301817715168
01:00:0A:00:00:00:00;1722816013;05/08/24;00:00:13;1.001;-0.053;0.128;0.13439035415649414;0.0024434609804302454;0.00855211354792118
01:00:0A:00:00:00:00;1722816014;05/08/24;00:00:14;1.008;-0.048;0.116;0.13805554807186127;-0.039095375686883926;0.012217304669320583
01:00:0A:00:00:00:00;1722816015;05/08/24;00:00:15;1.024;-0.047;0.112;0.15393804013729095;0.006108652334660292;0.030543262138962746
01:00:0A:00:00:00:00;1722816016;05/08/24;00:00:16;1.031;-0.062;0.136;0.16371189057826996;0.0;0.03420845419168472
01:00:0A:00:00:00:00;1722816017;05/08/24;00:00:17;1.015;-0.049;0.114;0.17348572611808777;-0.025656338781118393;0.00855211354792118
01:00:0A:00:00:00:00;1722816018;05/08/24;00:00:18;1.008;-0.037;0.115;0.1869247555732727;-0.00855211354792118;0.03420845419168472
01:00:0A:00:00:00:00;1722816019;05/08/24;00:00:19;1.005;-0.045;0.131;0.20036379992961884;-0.009773843921720982;-0.0012217304902151227
01:00:0A:00:00:00:00;1722816020;05/08/24;00:00:20;1.016;-0.035;0.119;0.18814648687839508;-0.02687807008624077;0.015882495790719986
01:00:0A:00:00:00:00;1722816021;05/08/24;00:00:21;1.011;-0.04;0.125;0.20036379992961884;0.0073303827084600925;0.006108652334660292
01:00:0A:00:00:00:00;1722816022;05/08/24;00:00:22;1.011;-0.039;0.126;0.1966986060142517;0.0024434609804302454;0.0036651913542300463
01:00:0A:00:00:00:00;1722816023;05/08/24;00:00:23;1.01;-0.046;0.12;0.18814648687839508;-0.02932153083384037;0.0024434609804302454
01:00:0A:00:00:00:00;1722816024;05/08/24;00:00:24;1.015;-0.042;0.116;0.19303341209888458;-0.0024434609804302454;0.015882495790719986
01:00:0A:00:00:00:00;1722816025;05/08/24;00:00:25;1.016;-0.043;0.131;0.18570303916931152;0.0024434609804302454;0.019547687843441963
01:00:0A:00:00:00:00;1722816026;05/08/24;00:00:26;1.017;-0.046;0.11;0.17470745742321014;-0.02076941914856434;0.015882495790719986
01:00:0A:00:00:00:00;1722816027;05/08/24;00:00:27;1.013;-0.059;0.119;0.17348572611808777;-0.019547687843441963;0.02687807008624077
01:00:0A:00:00:00:00;1722816028;05/08/24;00:00:28;1.016;-0.038;0.122;0.16982054710388184;-0.021991148591041565;0.03176499158143997
01:00:0A:00:00:00:00;1722816029;05/08/24;00:00:29;1.016;-0.03;0.123;0.15882496535778046;-0.012217304669320583;0.03787364438176155
01:00:0A:00:00:00:00;1722816030;05/08/24;00:00:30;1.016;-0.047;0.114;0.161268413066864;-0.028099799528717995;0.019547687843441963
01:00:0A:00:00:00:00;1722816031;05/08/24;00:00:31;1.011;-0.024;0.109;0.15515977144241333;-0.02932153083384037;0.025656338781118393
01:00:0A:00:00:00:00;1722816032;05/08/24;00:00:32;1.005;-0.036;0.118;0.1417207270860672;-0.0354301817715168;0.04642575979232788
01:00:0A:00:00:00:00;1722816033;05/08/24;00:00:33;1.006;-0.04;0.123;0.1563815027475357;-0.02076941914856434;0.009773843921720982
01:00:0A:00:00:00:00;1722816034;05/08/24;00:00:34;1.006;-0.032;0.116;0.15027284622192383;-0.02321287989616394;0.00855211354792118
01:00:0A:00:00:00:00;1722816035;05/08/24;00:00:35;1.014;-0.04;0.117;0.14049901068210602;-0.03787364438176155;0.012217304669320583
01:00:0A:00:00:00:00;1722816036;05/08/24;00:00:36;1.019;-0.043;0.124;0.13439035415649414;-0.024434609338641167;0.025656338781118393
01:00:0A:00:00:00:00;1722816037;05/08/24;00:00:37;1.02;-0.028;0.126;0.12828169763088226;-0.010995574295520782;0.014660765416920185
01:00:0A:00:00:00:00;1722816038;05/08/24;00:00:38;1.013;-0.042;0.116;0.11972958594560623;-0.004886921960860491;0.03298672288656235
01:00:0A:00:00:00:00;1722816039;05/08/24;00:00:39;0.997;-0.04;0.115;0.12461651116609573;-0.02687807008624077;0.0012217304902151227
01:00:0A:00:00:00:00;1722816040;05/08/24;00:00:40;0.996;-0.044;0.114;0.12095131725072861;-0.036651913076639175;0.021991148591041565
01:00:0A:00:00:00:00;1722816041;05/08/24;00:00:41;1.016;-0.052;0.122;0.13927726447582245;-0.02687807008624077;0.0012217304902151227
01:00:0A:00:00:00:00;1722816042;05/08/24;00:00:42;1.028;-0.044;0.126;0.13927726447582245;-0.010995574295520782;0.019547687843441963
01:00:0A:00:00:00:00;1722816043;05/08/24;00:00:43;1.024;-0.103;0.032;-0.01710422709584236;-0.12095131725072861;0.08918632566928864
01:00:0A:00:00:00:00;1722816044;05/08/24;00:00:44;1.011;-0.038;0.108;0.18325956165790558;0.161268413066864;-0.10262535512447357
01:00:0A:00:00:00:00;1722816045;05/08/24;00:00:45;1.002;0.011;0.18;0.02076941914856434;-0.06230825558304787;0.05742133408784866
01:00:0A:00:00:00:00;1722816046;05/08/24;00:00:46;1.017;-0.081;0.07;0.012217304669320583;-0.1014036238193512;0.06352998316287994
01:00:0A:00:00:00:00;1722816047;05/08/24;00:00:47;1.014;-0.045;0.122;0.15027284622192383;0.09040805697441101;-0.06108652427792549
01:00:0A:00:00:00:00;1722816048;05/08/24;00:00:48;1.0;0.015;0.154;0.045204028487205505;-0.021991148591041565;0.030543262138962746
01:00:0A:00:00:00:00;1722816049;05/08/24;00:00:49;1.004;-0.059;0.087;0.018325956538319588;-0.06719517707824707;0.04764748737215996
01:00:0A:00:00:00:00;1722816050;05/08/24;00:00:50;1.018;-0.057;0.109;0.13072516024112701;0.02932153083384037;-0.09896016865968704
01:00:0A:00:00:00:00;1722816051;05/08/24;00:00:51;1.02;0.011;0.165;0.045204028487205505;-0.013439035043120384;0.010995574295520782
01:00:0A:00:00:00:00;1722816052;05/08/24;00:00:52;1.021;-0.082;0.104;0.010995574295520782;-0.045204028487205505;0.07941248267889023
01:00:0A:00:00:00:00;1722816053;05/08/24;00:00:53;1.01;-0.043;0.11;0.11484266817569733;0.06108652427792549;-0.05864306166768074
01:00:0A:00:00:00:00;1722816054;05/08/24;00:00:54;1.006;0.0;0.125;0.030543262138962746;-0.05497787147760391;0.0354301817715168
01:00:0A:00:00:00:00;1722816055;05/08/24;00:00:55;1.009;-0.054;0.11;0.021991148591041565;-0.04642575979232788;0.05253440886735916
01:00:0A:00:00:00:00;1722816056;05/08/24;00:00:56;1.009;-0.044;0.131;0.08796459436416626;0.006108652334660292;-0.05009094998240471
01:00:0A:00:00:00:00;1722816057;05/08/24;00:00:57;1.01;-0.013;0.135;0.05375614017248154;0.013439035043120384;0.0
01:00:0A:00:00:00:00;1722816058;05/08/24;00:00:58;1.009;-0.053;0.104;0.021991148591041565;-0.028099799528717995;0.05619959905743599
01:00:0A:00:00:00:00;1722816059;05/08/24;00:00:59;1.011;-0.057;0.112;0.09040805697441101;-0.0012217304902151227;-0.042760565876960754
01:00:0A:00:00:00:00;1722816060;05/08/24;00:01:00;1.012;-0.008;0.141;0.04886921867728233;-0.040317103266716;0.01710422709584236
01:00:0A:00:00:00:00;1722816061;05/08/24;00:01:01;1.002;-0.063;0.153;-0.004886921960860491;0.11972958594560623;0.08307767659425735
01:00:0A:00:00:00:00;1722816062;05/08/24;00:01:02;1.0;-0.056;0.159;-0.0012217304902151227;-0.07941248267889023;-0.0757472887635231
01:00:0A:00:00:00:00;1722816063;05/08/24;00:01:03;1.007;-0.022;0.147;-0.10751228034496307;-0.036651913076639175;-0.0073303827084600925
01:00:0A:00:00:00:00;1722816064;05/08/24;00:01:04;1.009;-0.054;0.123;-0.1368338167667389;-0.09651670604944229;-0.012217304669320583
01:00:0A:00:00:00:00;1722816065;05/08/24;00:01:05;1.012;-0.052;0.122;-0.09529497474431992;0.021991148591041565;-0.015882495790719986
01:00:0A:00:00:00:00;1722816066;05/08/24;00:01:06;1.011;-0.034;0.156;-0.10018189996480942;-0.0012217304902151227;-0.02076941914856434
01:00:0A:00:00:00:00;1722816067;05/08/24;00:01:07;1.019;-0.032;0.111;-0.11972958594560623;-0.024434609338641167;0.006108652334660292
01:00:0A:00:00:00:00;1722816068;05/08/24;00:01:08;1.015;-0.046;0.11;-0.09407324343919754;0.01710422709584236;0.00855211354792118
01:00:0A:00:00:00:00;1722816069;05/08/24;00:01:09;1.008;-0.04;0.14;-0.08552113175392151;-0.0024434609804302454;-0.028099799528717995
01:00:0A:00:00:00:00;1722816070;05/08/24;00:01:10;1.008;-0.033;0.121;-0.11362093687057495;-0.051312677562236786;0.0024434609804302454
01:00:0A:00:00:00:00;1722816071;05/08/24;00:01:11;1.003;-0.037;0.112;-0.08796459436416626;0.014660765416920185;-0.0012217304902151227
01:00:0A:00:00:00:00;1722816072;05/08/24;00:01:12;1.001;-0.038;0.134;-0.08796459436416626;-0.015882495790719986;-0.018325956538319588
01:00:0A:00:00:00:00;1722816073;05/08/24;00:01:13;1.016;-0.035;0.122;-0.09040805697441101;-0.04153883829712868;-0.036651913076639175
01:00:0A:00:00:00:00;1722816074;05/08/24;00:01:14;1.022;-0.038;0.121;-0.08307767659425735;0.012217304669320583;-0.013439035043120384
01:00:0A:00:00:00:00;1722816075;05/08/24;00:01:15;1.018;-0.054;0.135;-0.08796459436416626;0.0036651913542300463;0.006108652334660292
01:00:0A:00:00:00:00;1722816076;05/08/24;00:01:16;1.012;-0.036;0.122;-0.08307767659425735;-0.010995574295520782;-0.010995574295520782
01:00:0A:00:00:00:00;1722816077;05/08/24;00:01:17;1.008;-0.032;0.116;-0.08796459436416626;-0.013439035043120384;0.0012217304902151227
01:00:0A:00:00:00:00;1722816078;05/08/24;00:01:18;1.009;-0.042;0.124;-0.07819075137376785;-0.004886921960860491;-0.0036651913542300463
01:00:0A:00:00:00:00;1722816079;05/08/24;00:01:19;1.007;-0.045;0.127;-0.07208210229873657;-0.02321287989616394;-0.02321287989616394
01:00:0A:00:00:00:00;1722816080;05/08/24;00:01:20;1.01;-0.031;0.118;-0.0757472887635231;-0.012217304669320583;0.004886921960860491
01:00:0A:00:00:00:00;1722816081;05/08/24;00:01:21;1.008;-0.048;0.124;-0.06475171446800232;0.0073303827084600925;0.009773843921720982
01:00:0A:00:00:00:00;1722816082;05/08/24;00:01:22;1.012;-0.038;0.121;-0.05864306166768074;-0.028099799528717995;-0.014660765416920185
01:00:0A:00:00:00:00;1722816083;05/08/24;00:01:23;1.013;-0.036;0.116;-0.05619959905743599;-0.010995574295520782;0.0036651913542300463
01:00:0A:00:00:00:00;1722816084;05/08/24;00:01:24;1.012;-0.041;0.122;-0.05253440886735916;-0.012217304669320583;0.010995574295520782
01:00:0A:00:00:00:00;1722816085;05/08/24;00:01:25;1.013;-0.037;0.12;-0.040317103266716;-0.00855211354792118;-0.004886921960860491
01:00:0A:00:00:00:00;1722816086;05/08/24;00:01:26;1.013;-0.029;0.122;-0.0354301817715168;-0.00855211354792118;-0.009773843921720982
01:00:0A:00:00:00:00;1722816087;05/08/24;00:01:27;1.011;-0.042;0.116;-0.036651913076639175;-0.015882495790719986;0.006108652334660292
01:00:0A:00:00:00:00;1722816088;05/08/24;00:01:28;1.011;-0.04;0.122;-0.018325956538319588;0.0012217304902151227;-0.010995574295520782
01:00:0A:00:00:00:00;1722816089;05/08/24;00:01:29;1.007;-0.032;0.116;-0.02687807008624077;-0.028099799528717995;0.0024434609804302454
01:00:0A:00:00:00:00;1722816090;05/08/24;00:01:30;1.008;-0.035;0.117;-0.018325956538319588;-0.00855211354792118;0.0012217304902151227
01:00:0A:00:00:00:00;1722816091;05/08/24;00:01:31;1.01;-0.04;0.123;-0.015882495790719986;-0.025656338781118393;-0.0073303827084600925
01:00:0A:00:00:00:00;1722816092;05/08/24;00:01:32;1.012;-0.033;0.122;-0.012217304669320583;-0.012217304669320583;-0.006108652334660292
01:00:0A:00:00:00:00;1722816093;05/08/24;00:01:33;1.012;-0.04;0.124;-0.014660765416920185;-0.014660765416920185;0.0073303827084600925
01:00:0A:00:00:00:00;1722816094;05/08/24;00:01:34;1.011;-0.04;0.125;-0.006108652334660292;-0.014660765416920185;-0.009773843921720982
01:00:0A:00:00:00:00;1722816095;05/08/24;00:01:35;1.012;-0.036;0.126;-0.0073303827084600925;-0.010995574295520782;0.0
01:00:0A:00:00:00:00;1722816096;05/08/24;00:01:36;1.012;-0.042;0.121;-0.004886921960860491;-0.010995574295520782;0.0024434609804302454
01:00:0A:00:00:00:00;1722816097;05/08/24;00:01:37;1.011;-0.037;0.125;-0.0012217304902151227;-0.004886921960860491;0.009773843921720982
01:00:0A:00:00:00:00;1722816098;05/08/24;00:01:38;1.008;-0.04;0.122;0.0012217304902151227;-0.012217304669320583;0.0012217304902151227
01:00:0A:00:00:00:00;1722816099;05/08/24;00:01:39;1.006;-0.034;0.122;0.0012217304902151227;-0.010995574295520782;0.009773843921720982
01:00:0A:00:00:00:00;1722816100;05/08/24;00:01:40;1.008;-0.04;0.121;0.0073303827084600925;-0.009773843921720982;0.0036651913542300463
01:00:0A:00:00:00:00;1722816101;05/08/24;00:01:41;1.007;-0.033;0.122;0.006108652334660292;-0.018325956538319588;0.0036651913542300463
01:00:0A:00:00:00:00;1722816102;05/08/24;00:01:42;1.006;-0.041;0.121;0.009773843921720982;-0.0073303827084600925;0.009773843921720982
01:00:0A:00:00:00:00;1722816103;05/08/24;00:01:43;1.006;-0.039;0.122;0.014660765416920185;-0.013439035043120384;0.0
01:00:0A:00:00:00:00;1722816104;05/08/24;00:01:44;1.009;-0.037;0.121;0.013439035043120384;-0.01710422709584236;0.006108652334660292
01:00:0A:00:00:00:00;1722816105;05/08/24;00:01:45;1.016;-0.04;0.122;0.018325956538319588;-0.013439035043120384;0.004886921960860491
01:00:0A:00:00:00:00;1722816106;05/08/24;00:01:46;1.015;-0.039;0.123;0.018325956538319588;-0.0073303827084600925;0.014660765416920185
01:00:0A:00:00:00:00;1722816107;05/08/24;00:01:47;1.01;-0.039;0.124;0.024434609338641167;0.0024434609804302454;0.00855211354792118
01:00:0A:00:00:00:00;1722816108;05/08/24;00:01:48;1.008;-0.038;0.117;0.021991148591041565;-0.01710422709584236;0.012217304669320583
01:00:0A:00:00:00:00;1722816109;05/08/24;00:01:49;1.009;-0.037;0.121;0.030543262138962746;-0.0073303827084600925;0.0012217304902151227
01:00:0A:00:00:00:00;1722816110;05/08/24;00:01:50;1.012;-0.036;0.121;0.02687807008624077;-0.013439035043120384;0.00855211354792118
01:00:0A:00:00:00:00;1722816111;05/08/24;00:01:51;1.01;-0.037;0.119;0.03298672288656235;-0.004886921960860491;0.0024434609804302454
01:00:0A:00:00:00:00;1722816112;05/08/24;00:01:52;1.008;-0.039;0.119;0.03298672288656235;-0.01710422709584236;0.0036651913542300463
01:00:0A:00:00:00:00;1722816113;05/08/24;00:01:53;1.01;-0.038;0.116;0.0354301817715168;-0.018325956538319588;0.0036651913542300463
01:00:0A:00:00:00:00;1722816114;05/08/24;00:01:54;1.014;-0.038;0.122;0.036651913076639175;-0.012217304669320583;0.010995574295520782
01:00:0A:00:00:00:00;1722816115;05/08/24;00:01:55;1.015;-0.038;0.119;0.045204028487205505;-0.009773843921720982;0.0012217304902151227
01:00:0A:00:00:00:00;1722816116;05/08/24;00:01:56;1.013;-0.037;0.121;0.045204028487205505;-0.009773843921720982;0.006108652334660292
01:00:0A:00:00:00:00;1722816117;05/08/24;00:01:57;1.014;-0.043;0.118;0.04764748737215996;-0.014660765416920185;0.0073303827084600925
01:00:0A:00:00:00:00;1722816118;05/08/24;00:01:58;1.012;-0.033;0.12;0.05009094998240471;-0.0036651913542300463;0.018325956538319588
01:00:0A:00:00:00:00;1722816119;05/08/24;00:01:59;1.01;-0.036;0.12;0.051312677562236786;-0.009773843921720982;0.009773843921720982
01:00:0A:00:00:00:00;1722816120;05/08/24;00:02:00;1.005;-0.033;0.116;0.05497787147760391;-0.010995574295520782;0.004886921960860491
01:00:0A:00:00:00:00;1722816121;05/08/24;00:02:01;1.005;-0.041;0.118;0.05619959905743599;-0.01710422709584236;0.006108652334660292
01:00:0A:00:00:00:00;1722816122;05/08/24;00:02:02;1.01;-0.037;0.118;0.05864306166768074;-0.02076941914856434;0.0036651913542300463
01:00:0A:00:00:00:00;1722816123;05/08/24;00:02:03;1.016;-0.04;0.12;0.05864306166768074;-0.015882495790719986;0.013439035043120384
01:00:0A:00:00:00:00;1722816124;05/08/24;00:02:04;1.015;-0.037;0.122;0.06352998316287994;-0.01710422709584236;0.0036651913542300463
01:00:0A:00:00:00:00;1722816125;05/08/24;00:02:05;1.012;-0.04;0.12;0.06475171446800232;-0.0073303827084600925;0.012217304669320583
01:00:0A:00:00:00:00;1722816126;05/08/24;00:02:06;1.009;-0.039;0.122;0.06841690838336945;-0.010995574295520782;0.006108652334660292
01:00:0A:00:00:00:00;1722816127;05/08/24;00:02:07;1.01;-0.04;0.115;0.0659734457731247;-0.013439035043120384;0.02321287989616394
01:00:0A:00:00:00:00;1722816128;05/08/24;00:02:08;1.009;-0.035;0.122;0.07330382615327835;-0.015882495790719986;0.0036651913542300463
01:00:0A:00:00:00:00;1722816129;05/08/24;00:02:09;1.008;-0.036;0.119;0.0708603635430336;-0.02076941914856434;0.006108652334660292
01:00:0A:00:00:00:00;1722816130;05/08/24;00:02:10;1.01;-0.04;0.122;0.0757472887635231;-0.014660765416920185;-0.0024434609804302454
01:00:0A:00:00:00:00;1722816131;05/08/24;00:02:11;1.011;-0.04;0.122;0.06963863223791122;-0.021991148591041565;0.013439035043120384
01:00:0A:00:00:00:00;1722816132;05/08/24;00:02:12;1.015;-0.04;0.121;0.0757472887635231;-0.010995574295520782;0.006108652334660292
01:00:0A:00:00:00:00;1722816133;05/08/24;00:02:13;1.013;-0.035;0.123;0.07330382615327835;-0.013439035043120384;0.009773843921720982
01:00:0A:00:00:00:00;1722816134;05/08/24;00:02:14;1.013;-0.042;0.12;0.07452555745840073;-0.018325956538319588;0.004886921960860491
01:00:0A:00:00:00:00;1722816135;05/08/24;00:02:15;1.01;-0.04;0.123;0.0757472887635231;-0.012217304669320583;0.010995574295520782
01:00:0A:00:00:00:00;1722816136;05/08/24;00:02:16;1.011;-0.04;0.122;0.07330382615327835;-0.014660765416920185;0.01710422709584236
01:00:0A:00:00:00:00;1722816137;05/08/24;00:02:17;1.013;-0.04;0.12;0.07819075137376785;-0.009773843921720982;0.010995574295520782
01:00:0A:00:00:00:00;1722816138;05/08/24;00:02:18;1.014;-0.038;0.123;0.07452555745840073;-0.01710422709584236;0.010995574295520782
01:00:0A:00:00:00:00;1722816139;05/08/24;00:02:19;1.012;-0.04;0.12;0.07819075137376785;-0.012217304669320583;0.009773843921720982
01:00:0A:00:00:00:00;1722816140;05/08/24;00:02:20;1.01;-0.04;0.124;0.07696902006864548;-0.012217304669320583;0.014660765416920185
01:00:0A:00:00:00:00;1722816141;05/08/24;00:02:21;1.012;-0.041;0.121;0.07819075137376785;-0.014660765416920185;0.010995574295520782
01:00:0A:00:00:00:00;1722816142;05/08/24;00:02:22;1.015;-0.037;0.123;0.07819075137376785;-0.0073303827084600925;0.014660765416920185
01:00:0A:00:00:00:00;1722816143;05/08/24;00:02:23;1.012;-0.04;0.12;0.07696902006864548;-0.015882495790719986;0.014660765416920185
01:00:0A:00:00:00:00;1722816144;05/08/24;00:02:24;1.01;-0.04;0.122;0.080634206533432;-0.00855211354792118;0.010995574295520782
01:00:0A:00:00:00:00;1722816145;05/08/24;00:02:25;1.011;-0.037;0.122;0.0757472887635231;-0.015882495790719986;0.015882495790719986
01:00:0A:00:00:00:00;1722816146;05/08/24;00:02:26;1.013;-0.04;0.12;0.08185594528913498;-0.006108652334660292;0.010995574295520782
01:00:0A:00:00:00:00;1722816147;05/08/24;00:02:27;1.012;-0.037;0.122;0.07696902006864548;-0.014660765416920185;0.013439035043120384
01:00:0A:00:00:00:00;1722816148;05/08/24;00:02:28;1.011;-0.039;0.118;0.07696902006864548;-0.009773843921720982;0.014660765416920185
01:00:0A:00:00:00:00;1722816149;05/08/24;00:02:29;1.011;-0.037;0.122;0.07696902006864548;-0.014660765416920185;0.012217304669320583
01:00:0A:00:00:00:00;1722816150;05/08/24;00:02:30;1.01;-0.037;0.119;0.07696902006864548;-0.00855211354792118;0.012217304669320583
01:00:0A:00:00:00:00;1722816151;05/08/24;00:02:31;1.01;-0.039;0.122;0.0757472887635231;-0.018325956538319588;0.0073303827084600925
01:00:0A:00:00:00:00;1722816152;05/08/24;00:02:32;1.011;-0.038;0.117;0.07452555745840073;-0.006108652334660292;0.01710422709584236
01:00:0A:00:00:00:00;1722816153;05/08/24;00:02:33;1.011;-0.037;0.124;0.07330382615327835;-0.015882495790719986;0.010995574295520782
01:00:0A:00:00:00:00;1722816154;05/08/24;00:02:34;1.01;-0.036;0.118;0.07330382615327835;-0.010995574295520782;0.010995574295520782
01:00:0A:00:00:00:00;1722816155;05/08/24;00:02:35;1.009;-0.038;0.124;0.0708603635430336;-0.013439035043120384;0.009773843921720982
01:00:0A:00:00:00:00;1722816156;05/08/24;00:02:36;1.011;-0.037;0.12;0.0708603635430336;-0.012217304669320583;0.0073303827084600925
01:00:0A:00:00:00:00;1722816157;05/08/24;00:02:37;1.012;-0.036;0.122;0.06719517707824707;-0.009773843921720982;0.013439035043120384
01:00:0A:00:00:00:00;1722816158;05/08/24;00:02:38;1.012;-0.04;0.121;0.06841690838336945;-0.015882495790719986;0.0073303827084600925
01:00:0A:00:00:00:00;1722816159;05/08/24;00:02:39;1.011;-0.034;0.122;0.06719517707824707;-0.00855211354792118;0.012217304669320583
01:00:0A:00:00:00:00;1722816160;05/08/24;00:02:40;1.012;-0.039;0.12;0.06475171446800232;-0.01710422709584236;0.010995574295520782
01:00:0A:00:00:00:00;1722816161;05/08/24;00:02:41;1.013;-0.033;0.122;0.06719517707824707;-0.010995574295520782;0.004886921960860491
01:00:0A:00:00:00:00;1722816162;05/08/24;00:02:42;1.012;-0.04;0.122;0.06230825558304787;-0.014660765416920185;0.013439035043120384
01:00:0A:00:00:00:00;1722816163;05/08/24;00:02:43;1.013;-0.037;0.123;0.06352998316287994;-0.014660765416920185;0.00855211354792118
01:00:0A:00:00:00:00;1722816164;05/08/24;00:02:44;1.011;-0.039;0.12;0.06108652427792549;-0.009773843921720982;0.015882495790719986
01:00:0A:00:00:00:00;1722816165;05/08/24;00:02:45;1.008;-0.034;0.121;0.06108652427792549;-0.015882495790719986;0.006108652334660292
01:00:0A:00:00:00:00;1722816166;05/08/24;00:02:46;1.011;-0.039;0.121;0.05864306166768074;-0.014660765416920185;0.010995574295520782
01:00:0A:00:00:00:00;1722816167;05/08/24;00:02:47;1.012;-0.039;0.123;0.059864792972803116;-0.014660765416920185;0.004886921960860491
01:00:0A:00:00:00:00;1722816168;05/08/24;00:02:48;1.016;-0.037;0.122;0.05619959905743599;-0.014660765416920185;0.009773843921720982
01:00:0A:00:00:00:00;1722816169;05/08/24;00:02:49;1.012;-0.038;0.122;0.05619959905743599;-0.010995574295520782;0.010995574295520782
01:00:0A:00:00:00:00;1722816170;05/08/24;00:02:50;1.012;-0.035;0.121;0.05375614017248154;-0.015882495790719986;0.00855211354792118
01:00:0A:00:00:00:00;1722816171;05/08/24;00:02:51;1.011;-0.039;0.122;0.05375614017248154;-0.00855211354792118;0.00855211354792118
01:00:0A:00:00:00:00;1722816172;05/08/24;00:02:52;1.012;-0.035;0.122;0.05009094998240471;-0.013439035043120384;0.009773843921720982
01:00:0A:00:00:00:00;1722816173;05/08/24;00:02:53;1.011;-0.038;0.122;0.051312677562236786;-0.009773843921720982;0.00855211354792118
01:00:0A:00:00:00:00;1722816174;05/08/24;00:02:54;1.009;-0.035;0.121;0.05009094998240471;-0.010995574295520782;0.00855211354792118
01:00:0A:00:00:00:00;1722816175;05/08/24;00:02:55;1.006;-0.036;0.119;0.04886921867728233;-0.015882495790719986;0.006108652334660292
01:00:0A:00:00:00:00;1722816176;05/08/24;00:02:56;1.011;-0.037;0.122;0.05009094998240471;-0.012217304669320583;0.0036651913542300463
01:00:0A:00:00:00:00;1722816177;05/08/24;00:02:57;1.013;-0.037;0.122;0.04764748737215996;-0.014660765416920185;0.00855211354792118
01:00:0A:00:00:00:00;1722816178;05/08/24;00:02:58;1.01;-0.037;0.122;0.04886921867728233;-0.00855211354792118;0.004886921960860491
01:00:0A:00:00:00:00;1722816179;05/08/24;00:02:59;1.01;-0.038;0.121;0.04642575979232788;-0.010995574295520782;0.010995574295520782
01:00:0A:00:00:00:00;1722816180;05/08/24;00:03:00;1.01;-0.035;0.119;0.04886921867728233;-0.014660765416920185;0.0012217304902151227
01:00:0A:00:00:00:00;1722816181;05/08/24;00:03:01;1.013;-0.037;0.123;0.04398229718208313;-0.010995574295520782;0.013439035043120384
01:00:0A:00:00:00:00;1722816182;05/08/24;00:03:02;1.012;-0.035;0.12;0.04764748737215996;-0.010995574295520782;0.0024434609804302454
01:00:0A:00:00:00:00;1722816183;05/08/24;00:03:03;1.01;-0.037;0.122;0.045204028487205505;-0.0073303827084600925;0.010995574295520782
01:00:0A:00:00:00:00;1722816184;05/08/24;00:03:04;1.007;-0.037;0.119;0.045204028487205505;-0.01710422709584236;0.0036651913542300463
01:00:0A:00:00:00:00;1722816185;05/08/24;00:03:05;1.01;-0.037;0.12;0.045204028487205505;-0.010995574295520782;0.009773843921720982
01:00:0A:00:00:00:00;1722816186;05/08/24;00:03:06;1.013;-0.038;0.122;0.04642575979232788;-0.013439035043120384;0.0024434609804302454
01:00:0A:00:00:00:00;1722816187;05/08/24;00:03:07;1.013;-0.036;0.119;0.045204028487205505;-0.009773843921720982;0.009773843921720982
01:00:0A:00:00:00:00;1722816188;05/08/24;00:03:08;1.01;-0.039;0.122;0.04642575979232788;-0.013439035043120384;0.004886921960860491
01:00:0A:00:00:00:00;1722816189;05/08/24;00:03:09;1.01;-0.037;0.119;0.045204028487205505;-0.012217304669320583;0.009773843921720982
01:00:0A:00:00:00:00;1722816190;05/08/24;00:03:10;1.013;-0.038;0.122;0.04642575979232788;-0.013439035043120384;0.004886921960860491
01:00:0A:00:00:00:00;1722816191;05/08/24;00:03:11;1.014;-0.036;0.119;0.045204028487205505;-0.010995574295520782;0.010995574295520782
01:00:0A:00:00:00:00;1722816192;05/08/24;00:03:12;1.014;-0.039;0.121;0.04764748737215996;-0.013439035043120384;0.004886921960860491
01:00:0A:00:00:00:00;1722816193;05/08/24;00:03:13;1.01;-0.037;0.121;0.04642575979232788;-0.012217304669320583;0.009773843921720982
01:00:0A:00:00:00:00;1722816194;05/08/24;00:03:14;1.009;-0.04;0.121;0.04764748737215996;-0.012217304669320583;0.0073303827084600925
01:00:0A:00:00:00:00;1722816195;05/08/24;00:03:15;1.012;-0.036;0.121;0.04764748737215996;-0.013439035043120384;0.00855211354792118
01:00:0A:00:00:00:00;1722816196;05/08/24;00:03:16;1.014;-0.038;0.121;0.04764748737215996;-0.014660765416920185;0.0073303827084600925
01:00:0A:00:00:00:00;1722816197;05/08/24;00:03:17;1.012;-0.036;0.12;0.04886921867728233;-0.010995574295520782;0.0073303827084600925
01:00:0A:00:00:00:00;1722816198;05/08/24;00:03:18;1.011;-0.039;0.122;0.04764748737215996;-0.012217304669320583;0.010995574295520782
01:00:0A:00:00:00:00;1722816199;05/08/24;00:03:19;1.012;-0.039;0.119;0.04886921867728233;-0.012217304669320583;0.00855211354792118
01:00:0A:00:00:00:00;1722816200;05/08/24;00:03:20;1.014;-0.037;0.121;0.04886921867728233;-0.010995574295520782;0.012217304669320583
01:00:0A:00:00:00:00;1722816201;05/08/24;00:03:21;1.012;-0.037;0.119;0.05009094998240471;-0.012217304669320583;0.0073303827084600925
01:00:0A:00:00:00:00;1722816202;05/08/24;00:03:22;1.011;-0.037;0.122;0.04886921867728233;-0.012217304669320583;0.009773843921720982
01:00:0A:00:00:00:00;1722816203;05/08/24;00:03:23;1.01;-0.038;0.119;0.04886921867728233;-0.013439035043120384;0.00855211354792118
01:00:0A:00:00:00:00;1722816204;05/08/24;00:03:24;1.012;-0.036;0.121;0.05009094998240471;-0.00855211354792118;0.00855211354792118
01:00:0A:00:00:00:00;1722816205;05/08/24;00:03:25;1.012;-0.038;0.12;0.04886921867728233;-0.014660765416920185;0.00855211354792118
01:00:0A:00:00:00:00;1722816206;05/08/24;00:03:26;1.011;-0.037;0.119;0.05009094998240471;-0.012217304669320583;0.00855211354792118
01:00:0A:00:00:00:00;1722816207;05/08/24;00:03:27;1.01;-0.037;0.123;0.04764748737215996;-0.013439035043120384;0.009773843921720982
01:00:0A:00:00:00:00;1722816208;05/08/24;00:03:28;1.01;-0.037;0.119;0.04886921867728233;-0.010995574295520782;0.00855211354792118
01:00:0A:00:00:00:00;1722816209;05/08/24;00:03:29;1.012;-0.037;0.122;0.04886921867728233;-0.009773843921720982;0.0073303827084600925
01:00:0A:00:00:00:00;1722816210;05/08/24;00:03:30;1.012;-0.037;0.118;0.04764748737215996;-0.012217304669320583;0.009773843921720982
01:00:0A:00:00:00:00;1722816211;05/08/24;00:03:31;1.012;-0.036;0.122;0.04764748737215996;-0.012217304669320583;0.0073303827084600925
01:00:0A:00:00:00:00;1722816212;05/08/24;00:03:32;1.011;-0.038;0.12;0.04642575979232788;-0.013439035043120384;0.00855211354792118
01:00:0A:00:00:00:00;1722816213;05/08/24;00:03:33;1.017;-0.035;0.117;0.039095375686883926;-0.02687807008624077;0.0
01:00:0A:00:00:00:00;1722816214;05/08/24;00:03:34;1.012;-0.018;0.088;-0.0024434609804302454;-0.02076941914856434;-0.014660765416920185
01:00:0A:00:00:00:00;1722816215;05/08/24;00:03:35;1.013;-0.012;0.104;-0.0708603635430336;0.015882495790719986;0.019547687843441963
01:00:0A:00:00:00:00;1722816216;05/08/24;00:03:36;1.01;-0.047;0.128;-0.09162978082895279;0.0012217304902151227;0.028099799528717995
01:00:0A:00:00:00:00;1722816217;05/08/24;00:03:37;1.011;-0.045;0.122;-0.05864306166768074;-0.021991148591041565;-0.039095375686883926
01:00:0A:00:00:00:00;1722816218;05/08/24;00:03:38;1.012;-0.016;0.115;-0.06475171446800232;-0.00855211354792118;-0.0036651913542300463
01:00:0A:00:00:00:00;1722816219;05/08/24;00:03:39;1.011;-0.05;0.124;-0.0708603635430336;-0.0024434609804302454;0.02932153083384037
01:00:0A:00:00:00:00;1722816220;05/08/24;00:03:40;1.012;-0.044;0.12;-0.039095375686883926;-0.018325956538319588;-0.03420845419168472
01:00:0A:00:00:00:00;1722816221;05/08/24;00:03:41;1.012;-0.019;0.121;-0.04764748737215996;-0.0073303827084600925;-0.0012217304902151227
01:00:0A:00:00:00:00;1722816222;05/08/24;00:03:42;1.011;-0.047;0.118;-0.05497787147760391;-0.013439035043120384;0.024434609338641167
01:00:0A:00:00:00:00;1722816223;05/08/24;00:03:43;1.011;-0.044;0.121;-0.02321287989616394;-0.006108652334660292;-0.024434609338641167
01:00:0A:00:00:00:00;1722816224;05/08/24;00:03:44;1.011;-0.022;0.121;-0.03420845419168472;-0.013439035043120384;-0.0012217304902151227
01:00:0A:00:00:00:00;1722816225;05/08/24;00:03:45;1.012;-0.044;0.119;-0.04153883829712868;-0.009773843921720982;0.025656338781118393
01:00:0A:00:00:00:00;1722816226;05/08/24;00:03:46;1.011;-0.041;0.12;-0.014660765416920185;-0.009773843921720982;-0.02076941914856434
01:00:0A:00:00:00:00;1722816227;05/08/24;00:03:47;1.011;-0.024;0.121;-0.02321287989616394;-0.009773843921720982;0.0
01:00:0A:00:00:00:00;1722816228;05/08/24;00:03:48;1.011;-0.043;0.119;-0.030543262138962746;-0.01710422709584236;0.018325956538319588
01:00:0A:00:00:00:00;1722816229;05/08/24;00:03:49;1.012;-0.041;0.116;-0.006108652334660292;-0.004886921960860491;-0.013439035043120384
01:00:0A:00:00:00:00;1722816230;05/08/24;00:03:50;1.012;-0.026;0.125;-0.013439035043120384;-0.013439035043120384;-0.0012217304902151227
01:00:0A:00:00:00:00;1722816231;05/08/24;00:03:51;1.011;-0.04;0.116;-0.02076941914856434;-0.015882495790719986;0.01710422709584236
01:00:0A:00:00:00:00;1722816232;05/08/24;00:03:52;1.011;-0.043;0.119;0.0012217304902151227;-0.004886921960860491;-0.010995574295520782
01:00:0A:00:00:00:00;1722816233;05/08/24;00:03:53;1.011;-0.029;0.123;-0.0073303827084600925;-0.013439035043120384;0.0036651913542300463
01:00:0A:00:00:00:00;1722816234;05/08/24;00:03:54;1.012;-0.04;0.117;-0.012217304669320583;-0.014660765416920185;0.01710422709584236
01:00:0A:00:00:00:00;1722816235;05/08/24;00:03:55;1.012;-0.039;0.121;0.0012217304902151227;-0.0073303827084600925;-0.012217304669320583
01:00:0A:00:00:00:00;1722816236;05/08/24;00:03:56;1.011;-0.017;0.126;-0.042760565876960754;-0.0024434609804302454;-0.021991148591041565
01:00:0A:00:00:00:00;1722816237;05/08/24;00:03:57;1.01;-0.018;0.132;-0.14538592100143433;-0.01710422709584236;0.0036651913542300463
01:00:0A:00:00:00:00;1722816238;05/08/24;00:03:58;1.012;-0.035;0.122;-0.18448130786418915;-0.02321287989616394;0.0
01:00:0A:00:00:00:00;1722816239;05/08/24;00:03:59;1.011;-0.04;0.113;-0.1563815027475357;-0.0024434609804302454;-0.013439035043120384
01:00:0A:00:00:00:00;1722816240;05/08/24;00:04:00;1.012;-0.034;0.128;-0.14416420459747314;0.0;-0.014660765416920185
01:00:0A:00:00:00:00;1722816241;05/08/24;00:04:01;1.011;-0.035;0.12;-0.14538592100143433;-0.02076941914856434;-0.009773843921720982
01:00:0A:00:00:00:00;1722816242;05/08/24;00:04:02;1.01;-0.037;0.115;-0.1319468915462494;-0.006108652334660292;-0.00855211354792118
01:00:0A:00:00:00:00;1722816243;05/08/24;00:04:03;1.01;-0.038;0.123;-0.12339477241039276;0.0;-0.00855211354792118
01:00:0A:00:00:00:00;1722816244;05/08/24;00:04:04;1.012;-0.037;0.123;-0.12461651116609573;-0.021991148591041565;-0.009773843921720982
01:00:0A:00:00:00:00;1722816245;05/08/24;00:04:05;1.013;-0.036;0.115;-0.11484266817569733;-0.006108652334660292;-0.00855211354792118
01:00:0A:00:00:00:00;1722816246;05/08/24;00:04:06;1.011;-0.04;0.125;-0.10995574295520782;0.0012217304902151227;-0.0024434609804302454
01:00:0A:00:00:00:00;1722816247;05/08/24;00:04:07;1.011;-0.04;0.121;-0.10751228034496307;-0.019547687843441963;-0.012217304669320583
01:00:0A:00:00:00:00;1722816248;05/08/24;00:04:08;1.011;-0.033;0.118;-0.10384709388017654;-0.009773843921720982;-0.0036651913542300463
01:00:0A:00:00:00:00;1722816249;05/08/24;00:04:09;1.012;-0.04;0.123;-0.09896016865968704;-0.0036651913542300463;-0.0024434609804302454
01:00:0A:00:00:00:00;1722816250;05/08/24;00:04:10;1.012;-0.036;0.122;-0.09407324343919754;-0.013439035043120384;-0.012217304669320583
01:00:0A:00:00:00:00;1722816251;05/08/24;00:04:11;1.013;-0.035;0.117;-0.09285151958465576;-0.00855211354792118;-0.0036651913542300463
01:00:0A:00:00:00:00;1722816252;05/08/24;00:04:12;1.01;-0.038;0.122;-0.08918632566928864;-0.0073303827084600925;-0.0024434609804302454
01:00:0A:00:00:00:00;1722816253;05/08/24;00:04:13;1.011;-0.038;0.121;-0.08552113175392151;-0.015882495790719986;-0.00855211354792118
01:00:0A:00:00:00:00;1722816254;05/08/24;00:04:14;1.011;-0.035;0.12;-0.08185594528913498;-0.0073303827084600925;-0.006108652334660292
01:00:0A:00:00:00:00;1722816255;05/08/24;00:04:15;1.012;-0.037;0.12;-0.08307767659425735;-0.0073303827084600925;0.0036651913542300463
01:00:0A:00:00:00:00;1722816256;05/08/24;00:04:16;1.01;-0.039;0.121;-0.07452555745840073;-0.009773843921720982;-0.009773843921720982
01:00:0A:00:00:00:00;1722816257;05/08/24;00:04:17;1.01;-0.033;0.12;-0.07452555745840073;-0.013439035043120384;-0.006108652334660292
01:00:0A:00:00:00:00;1722816258;05/08/24;00:04:18;1.011;-0.039;0.122;-0.07452555745840073;-0.009773843921720982;0.0024434609804302454
01:00:0A:00:00:00:00;1722816259;05/08/24;00:04:19;1.011;-0.038;0.122;-0.06841690838336945;-0.009773843921720982;-0.0073303827084600925
01:00:0A:00:00:00:00;1722816260;05/08/24;00:04:20;1.012;-0.034;0.121;-0.06963863223791122;-0.009773843921720982;0.0
01:00:0A:00:00:00:00;1722816261;05/08/24;00:04:21;1.011;-0.039;0.12;-0.06719517707824707;-0.009773843921720982;-0.0024434609804302454
01:00:0A:00:00:00:00;1722816262;05/08/24;00:04:22;1.012;-0.037;0.122;-0.06352998316287994;-0.010995574295520782;-0.006108652334660292
01:00:0A:00:00:00:00;1722816263;05/08/24;00:04:23;1.01;-0.037;0.122;-0.06475171446800232;-0.010995574295520782;-0.0036651913542300463
01:00:0A:00:00:00:00;1722816264;05/08/24;00:04:24;1.011;-0.037;0.122;-0.0659734457731247;-0.00855211354792118;0.0024434609804302454
01:00:0A:00:00:00:00;1722816265;05/08/24;00:04:25;1.011;-0.039;0.12;-0.06108652427792549;-0.009773843921720982;-0.004886921960860491
01:00:0A:00:00:00:00;1722816266;05/08/24;00:04:26;1.01;-0.034;0.121;-0.06108652427792549;-0.00855211354792118;-0.0036651913542300463
01:00:0A:00:00:00:00;1722816267;05/08/24;00:04:27;1.012;-0.038;0.122;-0.06352998316287994;-0.013439035043120384;0.0
01:00:0A:00:00:00:00;1722816268;05/08/24;00:04:28;1.011;-0.037;0.121;-0.05864306166768074;-0.0073303827084600925;-0.0024434609804302454
01:00:0A:00:00:00:00;1722816269;05/08/24;00:04:29;1.012;-0.036;0.122;-0.059864792972803116;-0.010995574295520782;-0.0012217304902151227
01:00:0A:00:00:00:00;1722816270;05/08/24;00:04:30;1.012;-0.037;0.119;-0.05864306166768074;-0.010995574295520782;-0.0012217304902151227
01:00:0A:00:00:00:00;1722816271;05/08/24;00:04:31;1.012;-0.037;0.122;-0.05619959905743599;-0.00855211354792118;-0.0036651913542300463
01:00:0A:00:00:00:00;1722816272;05/08/24;00:04:32;1.011;-0.035;0.122;-0.05619959905743599;-0.012217304669320583;-0.0036651913542300463
01:00:0A:00:00:00:00;1722816273;05/08/24;00:04:33;1.01;-0.038;0.121;-0.05619959905743599;-0.009773843921720982;0.0024434609804302454
01:00:0A:00:00:00:00;1722816274;05/08/24;00:04:34;1.012;-0.037;0.121;-0.05375614017248154;-0.010995574295520782;-0.0036651913542300463
01:00:0A:00:00:00:00;1722816275;05/08/24;00:04:35;1.011;-0.036;0.12;-0.05253440886735916;-0.00855211354792118;-0.0012217304902151227
01:00:0A:00:00:00:00;1722816276;05/08/24;00:04:36;1.011;-0.037;0.122;-0.051312677562236786;-0.012217304669320583;-0.0012217304902151227
01:00:0A:00:00:00:00;1722816277;05/08/24;00:04:37;1.011;-0.038;0.12;-0.05009094998240471;-0.009773843921720982;0.0
01:00:0A:00:00:00:00;1722816278;05/08/24;00:04:38;1.01;-0.037;0.122;-0.04764748737215996;-0.009773843921720982;-0.0024434609804302454
01:00:0A:00:00:00:00;1722816279;05/08/24;00:04:39;1.012;-0.036;0.12;-0.04764748737215996;-0.013439035043120384;0.0
01:00:0A:00:00:00:00;1722816280;05/08/24;00:04:40;1.011;-0.039;0.121;-0.042760565876960754;-0.006108652334660292;-0.0024434609804302454
01:00:0A:00:00:00:00;1722816281;05/08/24;00:04:41;1.011;-0.036;0.122;-0.04398229718208313;-0.013439035043120384;0.0
01:00:0A:00:00:00:00;1722816282;05/08/24;00:04:42;1.011;-0.039;0.12;-0.04153883829712868;-0.010995574295520782;0.0
01:00:0A:00:00:00:00;1722816283;05/08/24;00:04:43;1.011;-0.037;0.122;-0.040317103266716;-0.010995574295520782;0.0
01:00:0A:00:00:00:00;1722816284;05/08/24;00:04:44;1.011;-0.037;0.121;-0.03787364438176155;-0.009773843921720982;-0.0012217304902151227
01:00:0A:00:00:00:00;1722816285;05/08/24;00:04:45;1.011;-0.039;0.121;-0.03787364438176155;-0.010995574295520782;0.0012217304902151227
01:00:0A:00:00:00:00;1722816286;05/08/24;00:04:46;1.01;-0.039;0.12;-0.0354301817715168;-0.010995574295520782;0.0
01:00:0A:00:00:00:00;1722816287;05/08/24;00:04:47;1.012;-0.036;0.122;-0.03420845419168472;-0.009773843921720982;0.0012217304902151227
01:00:0A:00:00:00:00;1722816288;05/08/24;00:04:48;1.012;-0.037;0.122;-0.03420845419168472;-0.012217304669320583;0.0
01:00:0A:00:00:00:00;1722816289;05/08/24;00:04:49;1.011;-0.037;0.121;-0.03176499158143997;-0.00855211354792118;0.0
01:00:0A:00:00:00:00;1722816290;05/08/24;00:04:50;1.011;-0.038;0.121;-0.03176499158143997;-0.012217304669320583;0.0012217304902151227
01:00:0A:00:00:00:00;1722816291;05/08/24;00:04:51;1.01;-0.037;0.121;-0.02932153083384037;-0.010995574295520782;0.0
01:00:0A:00:00:00:00;1722816292;05/08/24;00:04:52;1.011;-0.038;0.122;-0.02932153083384037;-0.010995574295520782;0.0024434609804302454
01:00:0A:00:00:00:00;1722816293;05/08/24;00:04:53;1.011;-0.036;0.122;-0.02687807008624077;-0.009773843921720982;0.0
01:00:0A:00:00:00:00;1722816294;05/08/24;00:04:54;1.011;-0.037;0.12;-0.02687807008624077;-0.012217304669320583;0.0024434609804302454
01:00:0A:00:00:00:00;1722816295;05/08/24;00:04:55;1.01;-0.037;0.122;-0.025656338781118393;-0.010995574295520782;0.0012217304902151227
01:00:0A:00:00:00:00;1722816296;05/08/24;00:04:56;1.011;-0.036;0.121;-0.025656338781118393;-0.010995574295520782;0.0024434609804302454
01:00:0A:00:00:00:00;1722816297;05/08/24;00:04:57;1.011;-0.037;0.122;-0.02321287989616394;-0.010995574295520782;0.0012217304902151227
01:00:0A:00:00:00:00;1722816298;05/08/24;00:04:58;1.012;-0.038;0.121;-0.02321287989616394;-0.012217304669320583;0.0024434609804302454
01:00:0A:00:00:00:00;1722816299;05/08/24;00:04:59;1.013;-0.037;0.121;-0.021991148591041565;-0.009773843921720982;0.0012217304902151227
01:00:0A:00:00:00:00;1722816300;05/08/24;00:05:00;1.011;-0.038;0.121;-0.021991148591041565;-0.013439035043120384;0.0012217304902151227
01:00:0A:00:00:00:00;1722816301;05/08/24;00:05:01;1.011;-0.037;0.12;-0.019547687843441963;-0.00855211354792118;0.0012217304902151227
01:00:0A:00:00:00:00;1722816302;05/08/24;00:05:02;1.012;-0.038;0.122;-0.019547687843441963;-0.012217304669320583;0.0012217304902151227
01:00:0A:00:00:00:00;1722816303;05/08/24;00:05:03;1.011;-0.038;0.119;-0.018325956538319588;-0.009773843921720982;0.0012217304902151227
01:00:0A:00:00:00:00;1722816304;05/08/24;00:05:04;1.012;-0.036;0.122;-0.018325956538319588;-0.012217304669320583;0.0012217304902151227
01:00:0A:00:00:00:00;1722816305;05/08/24;00:05:05;1.011;-0.037;0.12;-0.01710422709584236;-0.010995574295520782;0.0012217304902151227
01:00:0A:00:00:00:00;1722816306;05/08/24;00:05:06;1.012;-0.037;0.122;-0.01710422709584236;-0.010995574295520782;0.0024434609804302454
01:00:0A:00:00:00:00;1722816307;05/08/24;00:05:07;1.011;-0.037;0.121;-0.015882495790719986;-0.010995574295520782;0.0012217304902151227
01:00:0A:00:00:00:00;1722816308;05/08/24;00:05:08;1.011;-0.037;0.122;-0.014660765416920185;-0.009773843921720982;0.0024434609804302454
01:00:0A:00:00:00:00;1722816309;05/08/24;00:05:09;1.011;-0.037;0.121;-0.014660765416920185;-0.013439035043120384;0.0024434609804302454
01:00:0A:00:00:00:00;1722816310;05/08/24;00:05:10;1.011;-0.036;0.122;-0.013439035043120384;-0.00855211354792118;0.0024434609804302454
01:00:0A:00:00:00:00;1722816311;05/08/24;00:05:11;1.012;-0.037;0.121;-0.014660765416920185;-0.012217304669320583;0.0036651913542300463
01:00:0A:00:00:00:00;1722816312;05/08/24;00:05:12;1.011;-0.036;0.122;-0.013439035043120384;-0.009773843921720982;0.0012217304902151227
01:00:0A:00:00:00:00;1722816313;05/08/24;00:05:13;1.011;-0.036;0.121;-0.013439035043120384;-0.012217304669320583;0.0024434609804302454
01:00:0A:00:00:00:00;1722816314;05/08/24;00:05:14;1.011;-0.036;0.121;-0.013439035043120384;-0.009773843921720982;0.0012217304902151227
01:00:0A:00:00:00:00;1722816315;05/08/24;00:05:15;1.012;-0.037;0.122;-0.013439035043120384;-0.010995574295520782;0.0036651913542300463
01:00:0A:00:00:00:00;1722816316;05/08/24;00:05:16;1.01;-0.037;0.122;-0.012217304669320583;-0.009773843921720982;0.0024434609804302454
01:00:0A:00:00:00:00;1722816317;05/08/24;00:05:17;1.011;-0.037;0.121;-0.012217304669320583;-0.012217304669320583;0.0024434609804302454
01:00:0A:00:00:00:00;1722816318;05/08/24;00:05:18;1.011;-0.037;0.121;-0.012217304669320583;-0.009773843921720982;0.0024434609804302454
01:00:0A:00:00:00:00;1722816319;05/08/24;00:05:19;1.01;-0.038;0.122;-0.012217304669320583;-0.010995574295520782;0.0024434609804302454
01:00:0A:00:00:00:00;1722816320;05/08/24;00:05:20;1.01;-0.037;0.12;-0.010995574295520782;-0.009773843921720982;0.0036651913542300463
01:00:0A:00:00:00:00;1722816321;05/08/24;00:05:21;1.011;-0.038;0.121;-0.010995574295520782;-0.012217304669320583;0.0024434609804302454
01:00:0A:00:00:00:00;1722816322;05/08/24;00:05:22;1.011;-0.038;0.121;-0.00855211354792118;-0.009773843921720982;0.0024434609804302454
01:00:0A:00:00:00:00;1722816323;05/08/24;00:05:23;1.011;-0.037;0.122;-0.00855211354792118;-0.012217304669320583;0.0036651913542300463
01:00:0A:00:00:00:00;1722816324;05/08/24;00:05:24;1.011;-0.038;0.12;-0.006108652334660292;-0.010995574295520782;0.0024434609804302454
01:00:0A:00:00:00:00;1722816325;05/08/24;00:05:25;1.011;-0.037;0.122;-0.004886921960860491;-0.010995574295520782;0.0036651913542300463
01:00:0A:00:00:00:00;1722816326;05/08/24;00:05:26;1.011;-0.038;0.121;-0.0024434609804302454;-0.012217304669320583;0.0024434609804302454
01:00:0A:00:00:00:00;1722816327;05/08/24;00:05:27;1.011;-0.037;0.121;0.0;-0.010995574295520782;0.0024434609804302454
01:00:0A:00:00:00:00;1722816328;05/08/24;00:05:28;1.011;-0.037;0.121;0.0;-0.013439035043120384;0.0036651913542300463
01:00:0A:00:00:00:00;1722816329;05/08/24;00:05:29;1.012;-0.037;0.121;0.0036651913542300463;-0.009773843921720982;0.0036651913542300463
01:00:0A:00:00:00:00;1722816330;05/08/24;00:05:30;1.011;-0.038;0.119;0.004886921960860491;-0.013439035043120384;0.0036651913542300463
01:00:0A:00:00:00:00;1722816331;05/08/24;00:05:31;1.011;-0.038;0.121;0.006108652334660292;-0.009773843921720982;0.0036651913542300463
01:00:0A:00:00:00:00;1722816332;05/08/24;00:05:32;1.011;-0.037;0.121;0.0073303827084600925;-0.013439035043120384;0.0036651913542300463
01:00:0A:00:00:00:00;1722816333;05/08/24;00:05:33;1.012;-0.036;0.121;0.009773843921720982;-0.010995574295520782;0.004886921960860491
01:00:0A:00:00:00:00;1722816334;05/08/24;00:05:34;1.011;-0.037;0.121;0.010995574295520782;-0.012217304669320583;0.0036651913542300463
01:00:0A:00:00:00:00;1722816335;05/08/24;00:05:35;1.012;-0.037;0.122;0.012217304669320583;-0.010995574295520782;0.004886921960860491
01:00:0A:00:00:00:00;1722816336;05/08/24;00:05:36;1.012;-0.037;0.122;0.012217304669320583;-0.012217304669320583;0.0036651913542300463
01:00:0A:00:00:00:00;1722816337;05/08/24;00:05:37;1.011;-0.038;0.122;0.012217304669320583;-0.010995574295520782;0.004886921960860491
01:00:0A:00:00:00:00;1722816338;05/08/24;00:05:38;1.012;-0.038;0.122;0.012217304669320583;-0.012217304669320583;0.004886921960860491
01:00:0A:00:00:00:00;1722816339;05/08/24;00:05:39;1.012;-0.038;0.12;0.013439035043120384;-0.010995574295520782;0.004886921960860491
01:00:0A:00:00:00:00;1722816340;05/08/24;00:05:40;1.011;-0.037;0.122;0.012217304669320583;-0.012217304669320583;0.004886921960860491
01:00:0A:00:00:00:00;1722816341;05/08/24;00:05:41;1.011;-0.037;0.12;0.012217304669320583;-0.009773843921720982;0.0036651913542300463
01:00:0A:00:00:00:00;1722816342;05/08/24;00:05:42;1.011;-0.039;0.122;0.010995574295520782;-0.012217304669320583;0.004886921960860491
01:00:0A:00:00:00:00;1722816343;05/08/24;00:05:43;1.011;-0.037;0.122;0.012217304669320583;-0.010995574295520782;0.004886921960860491
01:00:0A:00:00:00:00;1722816344;05/08/24;00:05:44;1.011;-0.037;0.121;0.012217304669320583;-0.012217304669320583;0.004886921960860491
01:00:0A:00:00:00:00;1722816345;05/08/24;00:05:45;1.011;-0.038;0.12;0.012217304669320583;-0.012217304669320583;0.004886921960860491
01:00:0A:00:00:00:00;1722816346;05/08/24;00:05:46;1.011;-0.037;0.122;0.012217304669320583;-0.010995574295520782;0.004886921960860491
01:00:0A:00:00:00:00;1722816347;05/08/24;00:05:47;1.012;-0.037;0.121;0.012217304669320583;-0.012217304669320583;0.004886921960860491
01:00:0A:00:00:00:00;1722816348;05/08/24;00:05:48;1.012;-0.037;0.122;0.013439035043120384;-0.010995574295520782;0.0036651913542300463
01:00:0A:00:00:00:00;1722816349;05/08/24;00:05:49;1.011;-0.037;0.121;0.012217304669320583;-0.012217304669320583;0.004886921960860491
01:00:0A:00:00:00:00;1722816350;05/08/24;00:05:50;1.01;-0.038;0.122;0.012217304669320583;-0.010995574295520782;0.006108652334660292
01:00:0A:00:00:00:00;1722816351;05/08/24;00:05:51;1.012;-0.036;0.122;0.012217304669320583;-0.013439035043120384;0.004886921960860491
01:00:0A:00:00:00:00;1722816352;05/08/24;00:05:52;1.011;-0.038;0.122;0.013439035043120384;-0.010995574295520782;0.004886921960860491
01:00:0A:00:00:00:00;1722816353;05/08/24;00:05:53;1.012;-0.037;0.121;0.012217304669320583;-0.012217304669320583;0.004886921960860491
01:00:0A:00:00:00:00;1722816354;05/08/24;00:05:54;1.011;-0.037;0.121;0.013439035043120384;-0.010995574295520782;0.004886921960860491
01:00:0A:00:00:00:00;1722816355;05/08/24;00:05:55;1.01;-0.038;0.122;0.013439035043120384;-0.012217304669320583;0.004886921960860491
01:00:0A:00:00:00:00;1722816356;05/08/24;00:05:56;1.011;-0.037;0.12;0.013439035043120384;-0.010995574295520782;0.004886921960860491
01:00:0A:00:00:00:00;1722816357;05/08/24;00:05:57;1.012;-0.038;0.122;0.013439035043120384;-0.012217304669320583;0.004886921960860491
01:00:0A:00:00:00:00;1722816358;05/08/24;00:05:58;1.012;-0.038;0.121;0.013439035043120384;-0.010995574295520782;0.006108652334660292
01:00:0A:00:00:00:00;1722816359;05/08/24;00:05:59;1.011;-0.037;0.121;0.013439035043120384;-0.012217304669320583;0.004886921960860491
01:00:0A:00:00:00:00;1722816360;05/08/24;00:06:00;1.011;-0.037;0.121;0.013439035043120384;-0.010995574295520782;0.004886921960860491
01:00:0A:00:00:00:00;1722816361;05/08/24;00:06:01;1.011;-0.037;0.122;0.013439035043120384;-0.012217304669320583;0.004886921960860491
01:00:0A:00:00:00:00;1722816362;05/08/24;00:06:02;1.011;-0.037;0.12;0.013439035043120384;-0.010995574295520782;0.0036651913542300463
01:00:0A:00:00:00:00;1722816363;05/08/24;00:06:03;1.01;-0.036;0.121;0.013439035043120384;-0.010995574295520782;0.004886921960860491
01:00:0A:00:00:00:00;1722816364;05/08/24;00:06:04;1.011;-0.037;0.12;0.013439035043120384;-0.012217304669320583;0.004886921960860491
01:00:0A:00:00:00:00;1722816365;05/08/24;00:06:05;1.011;-0.036;0.122;0.013439035043120384;-0.010995574295520782;0.004886921960860491
01:00:0A:00:00:00:00;1722816366;05/08/24;00:06:06;1.011;-0.036;0.121;0.013439035043120384;-0.012217304669320583;0.004886921960860491
01:00:0A:00:00:00:00;1722816367;05/08/24;00:06:07;1.011;-0.037;0.122;0.014660765416920185;-0.010995574295520782;0.004886921960860491
01:00:0A:00:00:00:00;1722816368;05/08/24;00:06:08;1.012;-0.037;0.121;0.013439035043120384;-0.012217304669320583;0.006108652334660292
01:00:0A:00:00:00:00;1722816369;05/08/24;00:06:09;1.01;-0.036;0.121;0.014660765416920185;-0.010995574295520782;0.0036651913542300463
01:00:0A:00:00:00:00;1722816370;05/08/24;00:06:10;1.012;-0.037;0.121;0.014660765416920185;-0.012217304669320583;0.004886921960860491
01:00:0A:00:00:00:00;1722816371;05/08/24;00:06:11;1.012;-0.037;0.122;0.015882495790719986;-0.010995574295520782;0.0036651913542300463
01:00:0A:00:00:00:00;1722816372;05/08/24;00:06:12;1.012;-0.038;0.12;0.014660765416920185;-0.012217304669320583;0.006108652334660292
01:00:0A:00:00:00:00;1722816373;05/08/24;00:06:13;1.011;-0.038;0.121;0.014660765416920185;-0.010995574295520782;0.004886921960860491
01:00:0A:00:00:00:00;1722816374;05/08/24;00:06:14;1.011;-0.037;0.122;0.015882495790719986;-0.012217304669320583;0.004886921960860491
01:00:0A:00:00:00:00;1722816375;05/08/24;00:06:15;1.013;-0.038;0.12;0.015882495790719986;-0.010995574295520782;0.004886921960860491
01:00:0A:00:00:00:00;1722816376;05/08/24;00:06:16;1.012;-0.037;0.121;0.015882495790719986;-0.012217304669320583;0.004886921960860491
01:00:0A:00:00:00:00;1722816377;05/08/24;00:06:17;1.011;-0.037;0.12;0.015882495790719986;-0.010995574295520782;0.006108652334660292
01:00:0A:00:00:00:00;1722816378;05/08/24;00:06:18;1.011;-0.037;0.122;0.015882495790719986;-0.012217304669320583;0.004886921960860491
01:00:0A:00:00:00:00;1722816379;05/08/24;00:06:19;1.012;-0.037;0.121;0.015882495790719986;-0.010995574295520782;0.004886921960860491
01:00:0A:00:00:00:00;1722816380;05/08/24;00:06:20;1.011;-0.037;0.122;0.015882495790719986;-0.012217304669320583;0.004886921960860491
01:00:0A:00:00:00:00;1722816381;05/08/24;00:06:21;1.012;-0.036;0.121;0.015882495790719986;-0.010995574295520782;0.004886921960860491
01:00:0A:00:00:00:00;1722816382;05/08/24;00:06:22;1.011;-0.037;0.121;0.015882495790719986;-0.012217304669320583;0.006108652334660292
01:00:0A:00:00:00:00;1722816383;05/08/24;00:06:23;1.012;-0.038;0.12;0.015882495790719986;-0.012217304669320583;0.004886921960860491
01:00:0A:00:00:00:00;1722816384;05/08/24;00:06:24;1.011;-0.037;0.122;0.015882495790719986;-0.010995574295520782;0.004886921960860491
01:00:0A:00:00:00:00;1722816385;05/08/24;00:06:25;1.012;-0.036;0.121;0.014660765416920185;-0.012217304669320583;0.004886921960860491
01:00:0A:00:00:00:00;1722816386;05/08/24;00:06:26;1.012;-0.037;0.121;0.014660765416920185;-0.010995574295520782;0.004886921960860491
01:00:0A:00:00:00:00;1722816387;05/08/24;00:06:27;1.011;-0.037;0.122;0.014660765416920185;-0.012217304669320583;0.004886921960860491
01:00:0A:00:00:00:00;1722816388;05/08/24;00:06:28;1.012;-0.037;0.122;0.015882495790719986;-0.010995574295520782;0.0036651913542300463
01:00:0A:00:00:00:00;1722816389;05/08/24;00:06:29;1.011;-0.036;0.121;0.014660765416920185;-0.012217304669320583;0.006108652334660292
01:00:0A:00:00:00:00;1722816390;05/08/24;00:06:30;1.011;-0.037;0.121;0.015882495790719986;-0.010995574295520782;0.004886921960860491
01:00:0A:00:00:00:00;1722816391;05/08/24;00:06:31;1.011;-0.037;0.121;0.014660765416920185;-0.012217304669320583;0.006108652334660292
01:00:0A:00:00:00:00;1722816392;05/08/24;00:06:32;1.012;-0.038;0.121;0.014660765416920185;-0.010995574295520782;0.004886921960860491
01:00:0A:00:00:00:00;1722816393;05/08/24;00:06:33;1.012;-0.036;0.121;0.014660765416920185;-0.012217304669320583;0.004886921960860491
01:00:0A:00:00:00:00;1722816394;05/08/24;00:06:34;1.013;-0.038;0.121;0.014660765416920185;-0.010995574295520782;0.004886921960860491
01:00:0A:00:00:00:00;1722816395;05/08/24;00:06:35;1.011;-0.038;0.121;0.014660765416920185;-0.012217304669320583;0.004886921960860491
01:00:0A:00:00:00:00;1722816396;05/08/24;00:06:36;1.011;-0.037;0.121;0.014660765416920185;-0.010995574295520782;0.004886921960860491
01:00:0A:00:00:00:00;1722816397;05/08/24;00:06:37;1.011;-0.037;0.122;0.014660765416920185;-0.012217304669320583;0.004886921960860491
01:00:0A:00:00:00:00;1722816398;05/08/24;00:06:38;1.012;-0.036;0.121;0.015882495790719986;-0.010995574295520782;0.006108652334660292
01:00:0A:00:00:00:00;1722816399;05/08/24;00:06:39;1.011;-0.037;0.121;0.015882495790719986;-0.010995574295520782;0.004886921960860491
01:00:0A:00:00:00:00;1722816400;05/08/24;00:06:40;1.012;-0.036;0.12;0.015882495790719986;-0.012217304669320583;0.004886921960860491
01:00:0A:00:00:00:00;1722816401;05/08/24;00:06:41;1.012;-0.037;0.121;0.015882495790719986;-0.012217304669320583;0.004886921960860491
01:00:0A:00:00:00:00;1722816402;05/08/24;00:06:42;1.011;-0.036;0.122;0.015882495790719986;-0.012217304669320583;0.004886921960860491
01:00:0A:00:00:00:00;1722816403;05/08/24;00:06:43;1.012;-0.037;0.121;0.015882495790719986;-0.010995574295520782;0.006108652334660292
01:00:0A:00:00:00:00;1722816404;05/08/24;00:06:44;1.011;-0.038;0.121;0.015882495790719986;-0.012217304669320583;0.004886921960860491
01:00:0A:00:00:00:00;1722816405;05/08/24;00:06:45;1.012;-0.036;0.121;0.01710422709584236;-0.010995574295520782;0.004886921960860491
01:00:0A:00:00:00:00;1722816406;05/08/24;00:06:46;1.011;-0.036;0.122;0.015882495790719986;-0.012217304669320583;0.004886921960860491
01:00:0A:00:00:00:00;1722816407;05/08/24;00:06:47;1.011;-0.036;0.121;0.01710422709584236;-0.010995574295520782;0.004886921960860491
01:00:0A:00:00:00:00;1722816408;05/08/24;00:06:48;1.012;-0.037;0.121;0.01710422709584236;-0.012217304669320583;0.006108652334660292
01:00:0A:00:00:00:00;1722816409;05/08/24;00:06:49;1.011;-0.037;0.121;0.01710422709584236;-0.010995574295520782;0.004886921960860491
01:00:0A:00:00:00:00;1722816410;05/08/24;00:06:50;1.011;-0.037;0.12;0.01710422709584236;-0.012217304669320583;0.006108652334660292
01:00:0A:00:00:00:00;1722816411;05/08/24;00:06:51;1.012;-0.037;0.122;0.01710422709584236;-0.010995574295520782;0.004886921960860491
01:00:0A:00:00:00:00;1722816412;05/08/24;00:06:52;1.011;-0.036;0.122;0.01710422709584236;-0.010995574295520782;0.006108652334660292
01:00:0A:00:00:00:00;1722816413;05/08/24;00:06:53;1.011;-0.038;0.121;0.01710422709584236;-0.010995574295520782;0.004886921960860491
01:00:0A:00:00:00:00;1722816414;05/08/24;00:06:54;1.011;-0.037;0.122;0.01710422709584236;-0.012217304669320583;0.004886921960860491
01:00:0A:00:00:00:00;1722816415;05/08/24;00:06:55;1.012;-0.037;0.122;0.018325956538319588;-0.010995574295520782;0.006108652334660292
01:00:0A:00:00:00:00;1722816416;05/08/24;00:06:56;1.012;-0.037;0.122;0.018325956538319588;-0.012217304669320583;0.004886921960860491
01:00:0A:00:00:00:00;1722816417;05/08/24;00:06:57;1.011;-0.037;0.121;0.018325956538319588;-0.010995574295520782;0.006108652334660292
01:00:0A:00:00:00:00;1722816418;05/08/24;00:06:58;1.011;-0.036;0.122;0.018325956538319588;-0.012217304669320583;0.004886921960860491
01:00:0A:00:00:00:00;1722816419;05/08/24;00:06:59;1.013;-0.037;0.12;0.019547687843441963;-0.010995574295520782;0.006108652334660292
01:00:0A:00:00:00:00;1722816420;05/08/24;00:07:00;1.011;-0.036;0.12;0.019547687843441963;-0.012217304669320583;0.004886921960860491
01:00:0A:00:00:00:00;1722816421;05/08/24;00:07:01;1.012;-0.037;0.121;0.019547687843441963;-0.012217304669320583;0.006108652334660292
01:00:0A:00:00:00:00;1722816422;05/08/24;00:07:02;1.012;-0.037;0.121;0.019547687843441963;-0.010995574295520782;0.006108652334660292
01:00:0A:00:00:00:00;1722816423;05/08/24;00:07:03;1.011;-0.037;0.121;0.019547687843441963;-0.012217304669320583;0.006108652334660292
01:00:0A:00:00:00:00;1722816424;05/08/24;00:07:04;1.012;-0.037;0.121;0.02076941914856434;-0.010995574295520782;0.006108652334660292
01:00:0A:00:00:00:00;1722816425;05/08/24;00:07:05;1.012;-0.038;0.122;0.02076941914856434;-0.012217304669320583;0.004886921960860491
01:00:0A:00:00:00:00;1722816426;05/08/24;00:07:06;1.012;-0.036;0.121;0.02076941914856434;-0.010995574295520782;0.006108652334660292
01:00:0A:00:00:00:00;1722816427;05/08/24;00:07:07;1.011;-0.037;0.121;0.02076941914856434;-0.012217304669320583;0.006108652334660292
01:00:0A:00:00:00:00;1722816428;05/08/24;00:07:08;1.012;-0.038;0.12;0.02076941914856434;-0.012217304669320583;0.004886921960860491
01:00:0A:00:00:00:00;1722816429;05/08/24;00:07:09;1.011;-0.038;0.122;0.02076941914856434;-0.012217304669320583;0.006108652334660292
01:00:0A:00:00:00:00;1722816430;05/08/24;00:07:10;1.011;-0.037;0.121;0.02076941914856434;-0.010995574295520782;0.004886921960860491
01:00:0A:00:00:00:00;1722816431;05/08/24;00:07:11;1.011;-0.037;0.121;0.019547687843441963;-0.010995574295520782;0.0073303827084600925
01:00:0A:00:00:00:00;1722816432;05/08/24;00:07:12;1.012;-0.037;0.121;0.02076941914856434;-0.012217304669320583;0.004886921960860491
01:00:0A:00:00:00:00;1722816433;05/08/24;00:07:13;1.011;-0.037;0.121;0.019547687843441963;-0.012217304669320583;0.006108652334660292
01:00:0A:00:00:00:00;1722816434;05/08/24;00:07:14;1.011;-0.037;0.121;0.019547687843441963;-0.012217304669320583;0.004886921960860491
01:00:0A:00:00:00:00;1722816435;05/08/24;00:07:15;1.01;-0.036;0.121;0.019547687843441963;-0.012217304669320583;0.004886921960860491
01:00:0A:00:00:00:00;1722816436;05/08/24;00:07:16;1.012;-0.038;0.121;0.02076941914856434;-0.010995574295520782;0.004886921960860491
01:00:0A:00:00:00:00;1722816437;05/08/24;00:07:17;1.012;-0.036;0.121;0.019547687843441963;-0.012217304669320583;0.004886921960860491
01:00:0A:00:00:00:00;1722816438;05/08/24;00:07:18;1.012;-0.037;0.121;0.02076941914856434;-0.010995574295520782;0.006108652334660292
01:00:0A:00:00:00:00;1722816439;05/08/24;00:07:19;1.011;-0.037;0.121;0.019547687843441963;-0.012217304669320583;0.004886921960860491
01:00:0A:00:00:00:00;1722816440;05/08/24;00:07:20;1.011;-0.037;0.121;0.019547687843441963;-0.012217304669320583;0.006108652334660292
01:00:0A:00:00:00:00;1722816441;05/08/24;00:07:21;1.01;-0.037;0.121;0.02076941914856434;-0.012217304669320583;0.006108652334660292
01:00:0A:00:00:00:00;1722816442;05/08/24;00:07:22;1.011;-0.037;0.121;0.019547687843441963;-0.012217304669320583;0.004886921960860491
01:00:0A:00:00:00:00;1722816443;05/08/24;00:07:23;1.011;-0.037;0.121;0.02076941914856434;-0.010995574295520782;0.006108652334660292
01:00:0A:00:00:00:00;1722816444;05/08/24;00:07:24;1.011;-0.037;0.121;0.019547687843441963;-0.012217304669320583;0.006108652334660292
01:00:0A:00:00:00:00;1722816445;05/08/24;00:07:25;1.012;-0.037;0.122;0.02076941914856434;-0.010995574295520782;0.006108652334660292
01:00:0A:00:00:00:00;1722816446;05/08/24;00:07:26;1.011;-0.038;0.121;0.02076941914856434;-0.013439035043120384;0.004886921960860491
01:00:0A:00:00:00:00;1722816447;05/08/24;00:07:27;1.011;-0.036;0.12;0.02076941914856434;-0.010995574295520782;0.004886921960860491
01:00:0A:00:00:00:00;1722816448;05/08/24;00:07:28;1.011;-0.036;0.121;0.019547687843441963;-0.012217304669320583;0.006108652334660292
01:00:0A:00:00:00:00;1722816449;05/08/24;00:07:29;1.012;-0.037;0.121;0.02076941914856434;-0.012217304669320583;0.004886921960860491
01:00:0A:00:00:00:00;1722816450;05/08/24;00:07:30;1.011;-0.038;0.122;0.019547687843441963;-0.012217304669320583;0.006108652334660292
01:00:0A:00:00:00:00;1722816451;05/08/24;00:07:31;1.012;-0.037;0.12;0.02076941914856434;-0.012217304669320583;0.004886921960860491
01:00:0A:00:00:00:00;1722816452;05/08/24;00:07:32;1.011;-0.036;0.121;0.019547687843441963;-0.010995574295520782;0.006108652334660292
01:00:0A:00:00:00:00;1722816453;05/08/24;00:07:33;1.011;-0.038;0.121;0.019547687843441963;-0.012217304669320583;0.004886921960860491
01:00:0A:00:00:00:00;1722816454;05/08/24;00:07:34;1.011;-0.037;0.121;0.019547687843441963;-0.010995574295520782;0.006108652334660292
01:00:0A:00:00:00:00;1722816455;05/08/24;00:07:35;1.011;-0.038;0.121;0.019547687843441963;-0.012217304669320583;0.006108652334660292
01:00:0A:00:00:00:00;1722816456;05/08/24;00:07:36;1.011;-0.036;0.121;0.019547687843441963;-0.012217304669320583;0.004886921960860491
01:00:0A:00:00:00:00;1722816457;05/08/24;00:07:37;1.01;-0.037;0.122;0.019547687843441963;-0.010995574295520782;0.006108652334660292
01:00:0A:00:00:00:00;1722816458;05/08/24;00:07:38;1.011;-0.036;0.121;0.019547687843441963;-0.012217304669320583;0.004886921960860491
01:00:0A:00:00:00:00;1722816459;05/08/24;00:07:39;1.011;-0.037;0.121;0.019547687843441963;-0.012217304669320583;0.006108652334660292
01:00:0A:00:00:00:00;1722816460;05/08/24;00:07:40;1.012;-0.037;0.121;0.019547687843441963;-0.012217304669320583;0.004886921960860491
01:00:0A:00:00:00:00;1722816461;05/08/24;00:07:41;1.01;-0.038;0.121;0.019547687843441963;-0.010995574295520782;0.006108652334660292
01:00:0A:00:00:00:00;1722816462;05/08/24;00:07:42;1.012;-0.037;0.122;0.019547687843441963;-0.010995574295520782;0.004886921960860491
01:00:0A:00:00:00:00;1722816463;05/08/24;00:07:43;1.011;-0.038;0.121;0.019547687843441963;-0.012217304669320583;0.006108652334660292
01:00:0A:00:00:00:00;1722816464;05/08/24;00:07:44;1.011;-0.037;0.121;0.019547687843441963;-0.010995574295520782;0.004886921960860491
01:00:0A:00:00:00:00;1722816465;05/08/24;00:07:45;1.011;-0.036;0.121;0.019547687843441963;-0.012217304669320583;0.004886921960860491
01:00:0A:00:00:00:00;1722816466;05/08/24;00:07:46;1.012;-0.037;0.121;0.019547687843441963;-0.010995574295520782;0.004886921960860491
01:00:0A:00:00:00:00;1722816467;05/08/24;00:07:47;1.011;-0.038;0.122;0.019547687843441963;-0.012217304669320583;0.006108652334660292
01:00:0A:00:00:00:00;1722816468;05/08/24;00:07:48;1.012;-0.037;0.121;0.019547687843441963;-0.012217304669320583;0.004886921960860491
01:00:0A:00:00:00:00;1722816469;05/08/24;00:07:49;1.012;-0.038;0.122;0.019547687843441963;-0.012217304669320583;0.006108652334660292
01:00:0A:00:00:00:00;1722816470;05/08/24;00:07:50;1.012;-0.037;0.121;0.019547687843441963;-0.012217304669320583;0.004886921960860491
01:00:0A:00:00:00:00;1722816471;05/08/24;00:07:51;1.01;-0.038;0.121;0.019547687843441963;-0.010995574295520782;0.006108652334660292
01:00:0A:00:00:00:00;1722816472;05/08/24;00:07:52;1.011;-0.037;0.122;0.019547687843441963;-0.012217304669320583;0.004886921960860491
01:00:0A:00:00:00:00;1722816473;05/08/24;00:07:53;1.011;-0.037;0.121;0.019547687843441963;-0.010995574295520782;0.006108652334660292
01:00:0A:00:00:00:00;1722816474;05/08/24;00:07:54;1.011;-0.038;0.121;0.019547687843441963;-0.012217304669320583;0.004886921960860491
01:00:0A:00:00:00:00;1722816475;05/08/24;00:07:55;1.012;-0.036;0.121;0.019547687843441963;-0.010995574295520782;0.006108652334660292
01:00:0A:00:00:00:00;1722816476;05/08/24;00:07:56;1.01;-0.038;0.121;0.019547687843441963;-0.010995574295520782;0.006108652334660292
01:00:0A:00:00:00:00;1722816477;05/08/24;00:07:57;1.011;-0.037;0.12;0.019547687843441963;-0.012217304669320583;0.004886921960860491
01:00:0A:00:00:00:00;1722816478;05/08/24;00:07:58;1.012;-0.037;0.121;0.019547687843441963;-0.010995574295520782;0.006108652334660292
01:00:0A:00:00:00:00;1722816479;05/08/24;00:07:59;1.011;-0.037;0.121;0.018325956538319588;-0.012217304669320583;0.004886921960860491
01:00:0A:00:00:00:00;1722816480;05/08/24;00:08:00;1.011;-0.038;0.121;0.018325956538319588;-0.010995574295520782;0.006108652334660292
01:00:0A:00:00:00:00;1722816481;05/08/24;00:08:01;1.011;-0.037;0.121;0.018325956538319588;-0.012217304669320583;0.004886921960860491
01:00:0A:00:00:00:00;1722816482;05/08/24;00:08:02;1.012;-0.038;0.122;0.018325956538319588;-0.012217304669320583;0.006108652334660292
01:00:0A:00:00:00:00;1722816483;05/08/24;00:08:03;1.011;-0.037;0.122;0.018325956538319588;-0.010995574295520782;0.004886921960860491
01:00:0A:00:00:00:00;1722816484;05/08/24;00:08:04;1.011;-0.036;0.121;0.018325956538319588;-0.012217304669320583;0.004886921960860491
01:00:0A:00:00:00:00;1722816485;05/08/24;00:08:05;1.011;-0.038;0.122;0.018325956538319588;-0.010995574295520782;0.006108652334660292
01:00:0A:00:00:00:00;1722816486;05/08/24;00:08:06;1.01;-0.037;0.122;0.01710422709584236;-0.012217304669320583;0.004886921960860491
01:00:0A:00:00:00:00;1722816487;05/08/24;00:08:07;1.011;-0.037;0.122;0.01710422709584236;-0.010995574295520782;0.004886921960860491
01:00:0A:00:00:00:00;1722816488;05/08/24;00:08:08;1.011;-0.037;0.122;0.015882495790719986;-0.012217304669320583;0.004886921960860491
01:00:0A:00:00:00:00;1722816489;05/08/24;00:08:09;1.011;-0.037;0.122;0.015882495790719986;-0.010995574295520782;0.004886921960860491
01:00:0A:00:00:00:00;1722816490;05/08/24;00:08:10;1.011;-0.038;0.122;0.015882495790719986;-0.010995574295520782;0.004886921960860491
01:00:0A:00:00:00:00;1722816491;05/08/24;00:08:11;1.011;-0.037;0.122;0.015882495790719986;-0.012217304669320583;0.004886921960860491
01:00:0A:00:00:00:00;1722816492;05/08/24;00:08:12;1.011;-0.037;0.122;0.014660765416920185;-0.010995574295520782;0.006108652334660292
01:00:0A:00:00:00:00;1722816493;05/08/24;00:08:13;1.01;-0.038;0.122;0.014660765416920185;-0.012217304669320583;0.004886921960860491
01:00:0A:00:00:00:00;1722816494;05/08/24;00:08:14;1.011;-0.038;0.122;0.014660765416920185;-0.010995574295520782;0.004886921960860491
01:00:0A:00:00:00:00;1722816495;05/08/24;00:08:15;1.011;-0.038;0.121;0.014660765416920185;-0.012217304669320583;0.004886921960860491
01:00:0A:00:00:00:00;1722816496;05/08/24;00:08:16;1.011;-0.037;0.121;0.014660765416920185;-0.012217304669320583;0.004886921960860491
01:00:0A:00:00:00:00;1722816497;05/08/24;00:08:17;1.011;-0.037;0.122;0.013439035043120384;-0.010995574295520782;0.004886921960860491
01:00:0A:00:00:00:00;1722816498;05/08/24;00:08:18;1.012;-0.038;0.121;0.013439035043120384;-0.012217304669320583;0.004886921960860491
01:00:0A:00:00:00:00;1722816499;05/08/24;00:08:19;1.012;-0.036;0.122;0.013439035043120384;-0.010995574295520782;0.004886921960860491
01:00:0A:00:00:00:00;1722816500;05/08/24;00:08:20;1.011;-0.037;0.122;0.013439035043120384;-0.012217304669320583;0.004886921960860491
01:00:0A:00:00:00:00;1722816501;05/08/24;00:08:21;1.012;-0.037;0.121;0.012217304669320583;-0.010995574295520782;0.004886921960860491
01:00:0A:00:00:00:00;1722816502;05/08/24;00:08:22;1.011;-0.037;0.121;0.012217304669320583;-0.010995574295520782;0.004886921960860491
01:00:0A:00:00:00:00;1722816503;05/08/24;00:08:23;1.011;-0.037;0.121;0.012217304669320583;-0.010995574295520782;0.004886921960860491
01:00:0A:00:00:00:00;1722816504;05/08/24;00:08:24;1.012;-0.037;0.121;0.012217304669320583;-0.010995574295520782;0.004886921960860491
01:00:0A:00:00:00:00;1722816505;05/08/24;00:08:25;1.01;-0.037;0.122;0.010995574295520782;-0.012217304669320583;0.004886921960860491
01:00:0A:00:00:00:00;1722816506;05/08/24;00:08:26;1.011;-0.038;0.122;0.010995574295520782;-0.010995574295520782;0.004886921960860491
01:00:0A:00:00:00:00;1722816507;05/08/24;00:08:27;1.012;-0.037;0.121;0.010995574295520782;-0.010995574295520782;0.004886921960860491
01:00:0A:00:00:00:00;1722816508;05/08/24;00:08:28;1.012;-0.037;0.121;0.010995574295520782;-0.010995574295520782;0.004886921960860491
01:00:0A:00:00:00:00;1722816509;05/08/24;00:08:29;1.011;-0.037;0.122;0.009773843921720982;-0.010995574295520782;0.004886921960860491
01:00:0A:00:00:00:00;1722816510;05/08/24;00:08:30;1.011;-0.037;0.122;0.009773843921720982;-0.010995574295520782;0.004886921960860491
01:00:0A:00:00:00:00;1722816511;05/08/24;00:08:31;1.011;-0.037;0.121;0.009773843921720982;-0.010995574295520782;0.004886921960860491
01:00:0A:00:00:00:00;1722816512;05/08/24;00:08:32;1.011;-0.037;0.122;0.009773843921720982;-0.012217304669320583;0.004886921960860491
01:00:0A:00:00:00:00;1722816513;05/08/24;00:08:33;1.012;-0.037;0.122;0.009773843921720982;-0.010995574295520782;0.004886921960860491
01:00:0A:00:00:00:00;1722816514;05/08/24;00:08:34;1.011;-0.037;0.122;0.00855211354792118;-0.012217304669320583;0.004886921960860491
01:00:0A:00:00:00:00;1722816515;05/08/24;00:08:35;1.011;-0.037;0.121;0.00855211354792118;-0.010995574295520782;0.0036651913542300463
01:00:0A:00:00:00:00;1722816516;05/08/24;00:08:36;1.011;-0.037;0.122;0.00855211354792118;-0.010995574295520782;0.004886921960860491
01:00:0A:00:00:00:00;1722816517;05/08/24;00:08:37;1.011;-0.037;0.122;0.00855211354792118;-0.010995574295520782;0.0036651913542300463
01:00:0A:00:00:00:00;1722816518;05/08/24;00:08:38;1.012;-0.037;0.122;0.0073303827084600925;-0.010995574295520782;0.004886921960860491
01:00:0A:00:00:00:00;1722816519;05/08/24;00:08:39;1.011;-0.038;0.122;0.0073303827084600925;-0.010995574295520782;0.0036651913542300463
01:00:0A:00:00:00:00;1722816520;05/08/24;00:08:40;1.011;-0.037;0.122;0.006108652334660292;-0.010995574295520782;0.004886921960860491
01:00:0A:00:00:00:00;1722816521;05/08/24;00:08:41;1.011;-0.037;0.122;0.006108652334660292;-0.010995574295520782;0.0036651913542300463
01:00:0A:00:00:00:00;1722816522;05/08/24;00:08:42;1.012;-0.037;0.122;0.004886921960860491;-0.010995574295520782;0.004886921960860491
01:00:0A:00:00:00:00;1722816523;05/08/24;00:08:43;1.012;-0.038;0.121;0.004886921960860491;-0.010995574295520782;0.0036651913542300463
01:00:0A:00:00:00:00;1722816524;05/08/24;00:08:44;1.01;-0.037;0.122;0.004886921960860491;-0.010995574295520782;0.004886921960860491
01:00:0A:00:00:00:00;1722816525;05/08/24;00:08:45;1.011;-0.037;0.121;0.004886921960860491;-0.010995574295520782;0.0036651913542300463
01:00:0A:00:00:00:00;1722816526;05/08/24;00:08:46;1.011;-0.037;0.122;0.0036651913542300463;-0.012217304669320583;0.0036651913542300463
01:00:0A:00:00:00:00;1722816527;05/08/24;00:08:47;1.011;-0.037;0.122;0.0036651913542300463;-0.010995574295520782;0.0036651913542300463
01:00:0A:00:00:00:00;1722816528;05/08/24;00:08:48;1.011;-0.037;0.122;0.0036651913542300463;-0.012217304669320583;0.0036651913542300463
01:00:0A:00:00:00:00;1722816529;05/08/24;00:08:49;1.011;-0.037;0.122;0.0036651913542300463;-0.010995574295520782;0.0036651913542300463
01:00:0A:00:00:00:00;1722816530;05/08/24;00:08:50;1.012;-0.036;0.122;0.0024434609804302454;-0.010995574295520782;0.0036651913542300463
01:00:0A:00:00:00:00;1722816531;05/08/24;00:08:51;1.011;-0.038;0.121;0.0024434609804302454;-0.012217304669320583;0.0036651913542300463
01:00:0A:00:00:00:00;1722816532;05/08/24;00:08:52;1.011;-0.035;0.122;0.0024434609804302454;-0.010995574295520782;0.0036651913542300463
01:00:0A:00:00:00:00;1722816533;05/08/24;00:08:53;1.011;-0.037;0.122;0.0024434609804302454;-0.010995574295520782;0.0036651913542300463
01:00:0A:00:00:00:00;1722816534;05/08/24;00:08:54;1.01;-0.037;0.121;0.0024434609804302454;-0.010995574295520782;0.0036651913542300463
01:00:0A:00:00:00:00;1722816535;05/08/24;00:08:55;1.011;-0.038;0.122;0.0012217304902151227;-0.012217304669320583;0.0036651913542300463
01:00:0A:00:00:00:00;1722816536;05/08/24;00:08:56;1.011;-0.037;0.121;0.0012217304902151227;-0.010995574295520782;0.0036651913542300463
01:00:0A:00:00:00:00;1722816537;05/08/24;00:08:57;1.011;-0.037;0.121;0.0012217304902151227;-0.010995574295520782;0.004886921960860491
01:00:0A:00:00:00:00;1722816538;05/08/24;00:08:58;1.012;-0.037;0.121;0.0012217304902151227;-0.010995574295520782;0.0036651913542300463
01:00:0A:00:00:00:00;1722816539;05/08/24;00:08:59;1.01;-0.036;0.121;0.0;-0.010995574295520782;0.0036651913542300463
01:00:0A:00:00:00:00;1722816540;05/08/24;00:09:00;1.012;-0.037;0.122;0.0;-0.010995574295520782;0.0036651913542300463
01:00:0A:00:00:00:00;1722816541;05/08/24;00:09:01;1.012;-0.036;0.121;0.0;-0.010995574295520782;0.0036651913542300463
01:00:0A:00:00:00:00;1722816542;05/08/24;00:09:02;1.011;-0.036;0.122;0.0;-0.010995574295520782;0.0036651913542300463
01:00:0A:00:00:00:00;1722816543;05/08/24;00:09:03;1.01;-0.037;0.121;0.0;-0.010995574295520782;0.0036651913542300463
01:00:0A:00:00:00:00;1722816544;05/08/24;00:09:04;1.011;-0.036;0.122;0.0;-0.010995574295520782;0.0036651913542300463
01:00:0A:00:00:00:00;1722816545;05/08/24;00:09:05;1.011;-0.037;0.121;-0.0012217304902151227;-0.010995574295520782;0.0036651913542300463
01:00:0A:00:00:00:00;1722816546;05/08/24;00:09:06;1.011;-0.037;0.122;-0.0012217304902151227;-0.010995574295520782;0.0036651913542300463
01:00:0A:00:00:00:00;1722816547;05/08/24;00:09:07;1.011;-0.037;0.122;-0.0012217304902151227;-0.010995574295520782;0.0036651913542300463
01:00:0A:00:00:00:00;1722816548;05/08/24;00:09:08;1.011;-0.037;0.122;-0.0012217304902151227;-0.010995574295520782;0.0036651913542300463
01:00:0A:00:00:00:00;1722816549;05/08/24;00:09:09;1.01;-0.036;0.121;-0.0012217304902151227;-0.010995574295520782;0.0036651913542300463
01:00:0A:00:00:00:00;1722816550;05/08/24;00:09:10;1.01;-0.036;0.121;-0.0024434609804302454;-0.010995574295520782;0.0036651913542300463
01:00:0A:00:00:00:00;1722816551;05/08/24;00:09:11;1.011;-0.036;0.122;-0.0024434609804302454;-0.010995574295520782;0.0036651913542300463
01:00:0A:00:00:00:00;1722816552;05/08/24;00:09:12;1.012;-0.038;0.121;-0.0024434609804302454;-0.010995574295520782;0.0036651913542300463
01:00:0A:00:00:00:00;1722816553;05/08/24;00:09:13;1.011;-0.037;0.121;-0.0012217304902151227;-0.010995574295520782;0.0036651913542300463
01:00:0A:00:00:00:00;1722816554;05/08/24;00:09:14;1.011;-0.037;0.121;-0.0024434609804302454;-0.010995574295520782;0.0036651913542300463
01:00:0A:00:00:00:00;1722816555;05/08/24;00:09:15;1.011;-0.037;0.121;-0.0012217304902151227;-0.010995574295520782;0.0024434609804302454
01:00:0A:00:00:00:00;1722816556;05/08/24;00:09:16;1.01;-0.036;0.122;-0.0012217304902151227;-0.012217304669320583;0.0036651913542300463
01:00:0A:00:00:00:00;1722816557;05/08/24;00:09:17;1.011;-0.036;0.121;-0.0024434609804302454;-0.010995574295520782;0.0036651913542300463
01:00:0A:00:00:00:00;1722816558;05/08/24;00:09:18;1.011;-0.036;0.122;-0.0012217304902151227;-0.010995574295520782;0.0036651913542300463
01:00:0A:00:00:00:00;1722816559;05/08/24;00:09:19;1.011;-0.037;0.12;-0.0012217304902151227;-0.010995574295520782;0.0024434609804302454
01:00:0A:00:00:00:00;1722816560;05/08/24;00:09:20;1.012;-0.037;0.122;-0.0024434609804302454;-0.010995574295520782;0.0036651913542300463
01:00:0A:00:00:00:00;1722816561;05/08/24;00:09:21;1.012;-0.036;0.121;-0.0012217304902151227;-0.010995574295520782;0.0036651913542300463
01:00:0A:00:00:00:00;1722816562;05/08/24;00:09:22;1.011;-0.037;0.121;-0.0012217304902151227;-0.010995574295520782;0.0036651913542300463
01:00:0A:00:00:00:00;1722816563;05/08/24;00:09:23;1.011;-0.037;0.121;-0.0012217304902151227;-0.010995574295520782;0.0036651913542300463
01:00:0A:00:00:00:00;1722816564;05/08/24;00:09:24;1.011;-0.037;0.121;-0.0012217304902151227;-0.010995574295520782;0.0036651913542300463
01:00:0A:00:00:00:00;1722816565;05/08/24;00:09:25;1.011;-0.037;0.122;-0.0012217304902151227;-0.010995574295520782;0.0036651913542300463
01:00:0A:00:00:00:00;1722816566;05/08/24;00:09:26;1.012;-0.037;0.121;-0.0012217304902151227;-0.010995574295520782;0.0036651913542300463
01:00:0A:00:00:00:00;1722816567;05/08/24;00:09:27;1.012;-0.038;0.12;-0.0012217304902151227;-0.010995574295520782;0.0036651913542300463
01:00:0A:00:00:00:00;1722816568;05/08/24;00:09:28;1.011;-0.036;0.121;-0.0012217304902151227;-0.010995574295520782;0.0036651913542300463
01:00:0A:00:00:00:00;1722816569;05/08/24;00:09:29;1.011;-0.037;0.121;-0.0012217304902151227;-0.010995574295520782;0.0036651913542300463
01:00:0A:00:00:00:00;1722816570;05/08/24;00:09:30;1.011;-0.037;0.122;-0.0012217304902151227;-0.010995574295520782;0.0036651913542300463
01:00:0A:00:00:00:00;1722816571;05/08/24;00:09:31;1.011;-0.036;0.122;-0.0012217304902151227;-0.010995574295520782;0.0036651913542300463
01:00:0A:00:00:00:00;1722816572;05/08/24;00:09:32;1.01;-0.037;0.121;-0.0012217304902151227;-0.010995574295520782;0.0036651913542300463
01:00:0A:00:00:00:00;1722816573;05/08/24;00:09:33;1.01;-0.037;0.122;-0.0024434609804302454;-0.010995574295520782;0.0036651913542300463
01:00:0A:00:00:00:00;1722816574;05/08/24;00:09:34;1.012;-0.038;0.121;-0.0012217304902151227;-0.010995574295520782;0.0036651913542300463
01:00:0A:00:00:00:00;1722816575;05/08/24;00:09:35;1.011;-0.036;0.121;-0.0024434609804302454;-0.012217304669320583;0.0036651913542300463
01:00:0A:00:00:00:00;1722816576;05/08/24;00:09:36;1.011;-0.037;0.121;-0.0012217304902151227;-0.010995574295520782;0.0036651913542300463
01:00:0A:00:00:00:00;1722816577;05/08/24;00:09:37;1.012;-0.037;0.12;-0.0024434609804302454;-0.010995574295520782;0.0036651913542300463
01:00:0A:00:00:00:00;1722816578;05/08/24;00:09:38;1.012;-0.037;0.121;-0.0012217304902151227;-0.010995574295520782;0.0036651913542300463
01:00:0A:00:00:00:00;1722816579;05/08/24;00:09:39;1.011;-0.037;0.121;-0.0024434609804302454;-0.010995574295520782;0.0036651913542300463
01:00:0A:00:00:00:00;1722816580;05/08/24;00:09:40;1.012;-0.037;0.121;-0.0024434609804302454;-0.010995574295520782;0.0036651913542300463
01:00:0A:00:00:00:00;1722816581;05/08/24;00:09:41;1.01;-0.036;0.122;-0.0024434609804302454;-0.010995574295520782;0.0036651913542300463
01:00:0A:00:00:00:00;1722816582;05/08/24;00:09:42;1.01;-0.036;0.122;-0.0024434609804302454;-0.010995574295520782;0.0036651913542300463
01:00:0A:00:00:00:00;1722816583;05/08/24;00:09:43;1.011;-0.037;0.122;-0.0024434609804302454;-0.010995574295520782;0.0036651913542300463
01:00:0A:00:00:00:00;1722816584;05/08/24;00:09:44;1.011;-0.038;0.121;-0.0024434609804302454;-0.010995574295520782;0.0024434609804302454
01:00:0A:00:00:00:00;1722816585;05/08/24;00:09:45;1.011;-0.037;0.122;-0.0024434609804302454;-0.010995574295520782;0.0036651913542300463
01:00:0A:00:00:00:00;1722816586;05/08/24;00:09:46;1.011;-0.037;0.121;-0.0024434609804302454;-0.010995574295520782;0.0036651913542300463
01:00:0A:00:00:00:00;1722816587;05/08/24;00:09:47;1.011;-0.037;0.121;-0.0024434609804302454;-0.010995574295520782;0.0036651913542300463
01:00:0A:00:00:00:00;1722816588;05/08/24;00:09:48;1.012;-0.037;0.121;-0.0024434609804302454;-0.010995574295520782;0.0036651913542300463
01:00:0A:00:00:00:00;1722816589;05/08/24;00:09:49;1.011;-0.037;0.121;-0.0024434609804302454;-0.010995574295520782;0.0036651913542300463
01:00:0A:00:00:00:00;1722816590;05/08/24;00:09:50;1.011;-0.037;0.12;-0.0024434609804302454;-0.010995574295520782;0.0036651913542300463
01:00:0A:00:00:00:00;1722816591;05/08/24;00:09:51;1.011;-0.037;0.122;-0.0024434609804302454;-0.010995574295520782;0.0036651913542300463
01:00:0A:00:00:00:00;1722816592;05/08/24;00:09:52;1.012;-0.036;0.122;-0.0036651913542300463;-0.012217304669320583;0.0036651913542300463
01:00:0A:00:00:00:00;1722816593;05/08/24;00:09:53;1.011;-0.037;0.121;-0.0036651913542300463;-0.010995574295520782;0.0024434609804302454
01:00:0A:00:00:00:00;1722816594;05/08/24;00:09:54;1.012;-0.037;0.122;-0.0036651913542300463;-0.012217304669320583;0.0036651913542300463
01:00:0A:00:00:00:00;1722816595;05/08/24;00:09:55;1.011;-0.036;0.121;-0.0036651913542300463;-0.010995574295520782;0.0036651913542300463
01:00:0A:00:00:00:00;1722816596;05/08/24;00:09:56;1.012;-0.038;0.121;-0.0036651913542300463;-0.010995574295520782;0.0036651913542300463
01:00:0A:00:00:00:00;1722816597;05/08/24;00:09:57;1.01;-0.037;0.12;-0.0036651913542300463;-0.010995574295520782;0.0024434609804302454
01:00:0A:00:00:00:00;1722816598;05/08/24;00:09:58;1.01;-0.037;0.122;-0.0036651913542300463;-0.010995574295520782;0.0036651913542300463
01:00:0A:00:00:00:00;1722816599;05/08/24;00:09:59;1.011;-0.037;0.121;-0.0036651913542300463;-0.010995574295520782;0.0024434609804302454
01:00:0A:00:00:00:00;1722816600;05/08/24;00:10:00;1.011;-0.037;0.122;-0.0036651913542300463;-0.010995574295520782;0.0036651913542300463
01:00:0A:00:00:00:00;1722816601;05/08/24;00:10:01;1.012;-0.037;0.12;-0.004886921960860491;-0.010995574295520782;0.0024434609804302454
01:00:0A:00:00:00:00;1722816602;05/08/24;00:10:02;1.011;-0.037;0.122;-0.004886921960860491;-0.010995574295520782;0.0036651913542300463
01:00:0A:00:00:00:00;1722816603;05/08/24;00:10:03;1.011;-0.037;0.121;-0.004886921960860491;-0.010995574295520782;0.0024434609804302454
01:00:0A:00:00:00:00;1722816604;05/08/24;00:10:04;1.011;-0.035;0.121;-0.004886921960860491;-0.010995574295520782;0.0036651913542300463
01:00:0A:00:00:00:00;1722816605;05/08/24;00:10:05;1.011;-0.037;0.121;-0.004886921960860491;-0.010995574295520782;0.0036651913542300463
01:00:0A:00:00:00:00;1722816606;05/08/24;00:10:06;1.011;-0.036;0.121;-0.006108652334660292;-0.010995574295520782;0.0024434609804302454
01:00:0A:00:00:00:00;1722816607;05/08/24;00:10:07;1.012;-0.037;0.122;-0.006108652334660292;-0.010995574295520782;0.0036651913542300463
01:00:0A:00:00:00:00;1722816608;05/08/24;00:10:08;1.011;-0.037;0.121;-0.004886921960860491;-0.010995574295520782;0.0024434609804302454
01:00:0A:00:00:00:00;1722816609;05/08/24;00:10:09;1.011;-0.036;0.12;-0.006108652334660292;-0.010995574295520782;0.0036651913542300463
01:00:0A:00:00:00:00;1722816610;05/08/24;00:10:10;1.012;-0.036;0.122;-0.006108652334660292;-0.010995574295520782;0.0036651913542300463
01:00:0A:00:00:00:00;1722816611;05/08/24;00:10:11;1.012;-0.037;0.121;-0.006108652334660292;-0.010995574295520782;0.0036651913542300463
01:00:0A:00:00:00:00;1722816612;05/08/24;00:10:12;1.012;-0.037;0.121;-0.006108652334660292;-0.010995574295520782;0.0036651913542300463
01:00:0A:00:00:00:00;1722816613;05/08/24;00:10:13;1.012;-0.036;0.122;-0.006108652334660292;-0.010995574295520782;0.0036651913542300463
01:00:0A:00:00:00:00;1722816614;05/08/24;00:10:14;1.011;-0.036;0.122;-0.006108652334660292;-0.010995574295520782;0.0036651913542300463
01:00:0A:00:00:00:00;1722816615;05/08/24;00:10:15;1.011;-0.036;0.121;-0.0073303827084600925;-0.010995574295520782;0.0036651913542300463
01:00:0A:00:00:00:00;1722816616;05/08/24;00:10:16;1.011;-0.036;0.122;-0.0073303827084600925;-0.010995574295520782;0.0036651913542300463
01:00:0A:00:00:00:00;1722816617;05/08/24;00:10:17;1.011;-0.036;0.122;-0.0073303827084600925;-0.010995574295520782;0.0036651913542300463
01:00:0A:00:00:00:00;1722816618;05/08/24;00:10:18;1.012;-0.036;0.121;-0.0073303827084600925;-0.010995574295520782;0.0036651913542300463
01:00:0A:00:00:00:00;1722816619;05/08/24;00:10:19;1.011;-0.037;0.122;-0.0073303827084600925;-0.010995574295520782;0.0024434609804302454
01:00:0A:00:00:00:00;1722816620;05/08/24;00:10:20;1.012;-0.037;0.121;-0.0073303827084600925;-0.010995574295520782;0.0024434609804302454
01:00:0A:00:00:00:00;1722816621;05/08/24;00:10:21;1.012;-0.036;0.12;-0.0073303827084600925;-0.010995574295520782;0.0024434609804302454
01:00:0A:00:00:00:00;1722816622;05/08/24;00:10:22;1.012;-0.036;0.122;-0.0073303827084600925;-0.010995574295520782;0.0024434609804302454
01:00:0A:00:00:00:00;1722816623;05/08/24;00:10:23;1.012;-0.037;0.122;-0.0073303827084600925;-0.010995574295520782;0.0036651913542300463
01:00:0A:00:00:00:00;1722816624;05/08/24;00:10:24;1.012;-0.037;0.121;-0.0073303827084600925;-0.010995574295520782;0.0036651913542300463
01:00:0A:00:00:00:00;1722816625;05/08/24;00:10:25;1.011;-0.037;0.122;-0.0073303827084600925;-0.010995574295520782;0.0024434609804302454
01:00:0A:00:00:00:00;1722816626;05/08/24;00:10:26;1.012;-0.038;0.121;-0.0073303827084600925;-0.010995574295520782;0.0036651913542300463
01:00:0A:00:00:00:00;1722816627;05/08/24;00:10:27;1.011;-0.038;0.122;-0.0073303827084600925;-0.010995574295520782;0.0024434609804302454
01:00:0A:00:00:00:00;1722816628;05/08/24;00:10:28;1.011;-0.037;0.121;-0.0073303827084600925;-0.010995574295520782;0.0036651913542300463
01:00:0A:00:00:00:00;1722816629;05/08/24;00:10:29;1.012;-0.036;0.122;-0.0073303827084600925;-0.010995574295520782;0.0024434609804302454
01:00:0A:00:00:00:00;1722816629;05/08/24;00:10:29;1.012;-0.036;0.121;-0.0073303827084600925;-0.010995574295520782;0.0036651913542300463
01:00:0A:00:00:00:00;1722816630;05/08/24;00:10:30;1.011;-0.037;0.122;-0.0073303827084600925;-0.010995574295520782;0.0024434609804302454
01:00:0A:00:00:00:00;1722816631;05/08/24;00:10:31;1.012;-0.037;0.121;-0.0073303827084600925;-0.010995574295520782;0.0036651913542300463
01:00:0A:00:00:00:00;1722816632;05/08/24;00:10:32;1.011;-0.037;0.121;-0.0073303827084600925;-0.010995574295520782;0.0024434609804302454
01:00:0A:00:00:00:00;1722816633;05/08/24;00:10:33;1.01;-0.036;0.12;-0.0073303827084600925;-0.010995574295520782;0.0036651913542300463
01:00:0A:00:00:00:00;1722816634;05/08/24;00:10:34;1.011;-0.036;0.121;-0.0073303827084600925;-0.010995574295520782;0.0024434609804302454
01:00:0A:00:00:00:00;1722816635;05/08/24;00:10:35;1.012;-0.037;0.121;-0.0073303827084600925;-0.012217304669320583;0.0024434609804302454
01:00:0A:00:00:00:00;1722816636;05/08/24;00:10:36;1.012;-0.037;0.122;-0.0073303827084600925;-0.010995574295520782;0.0024434609804302454
01:00:0A:00:00:00:00;1722816637;05/08/24;00:10:37;1.011;-0.037;0.12;-0.0073303827084600925;-0.010995574295520782;0.0024434609804302454
01:00:0A:00:00:00:00;1722816638;05/08/24;00:10:38;1.011;-0.037;0.121;-0.0073303827084600925;-0.010995574295520782;0.0024434609804302454
01:00:0A:00:00:00:00;1722816639;05/08/24;00:10:39;1.012;-0.037;0.121;-0.0073303827084600925;-0.010995574295520782;0.0024434609804302454
01:00:0A:00:00:00:00;1722816640;05/08/24;00:10:40;1.013;-0.037;0.122;-0.0073303827084600925;-0.010995574295520782;0.0024434609804302454
01:00:0A:00:00:00:00;1722816641;05/08/24;00:10:41;1.01;-0.037;0.121;-0.0073303827084600925;-0.010995574295520782;0.0036651913542300463
01:00:0A:00:00:00:00;1722816642;05/08/24;00:10:42;1.012;-0.036;0.121;-0.0073303827084600925;-0.010995574295520782;0.0036651913542300463
01:00:0A:00:00:00:00;1722816643;05/08/24;00:10:43;1.011;-0.036;0.122;-0.0073303827084600925;-0.010995574295520782;0.0036651913542300463
01:00:0A:00:00:00:00;1722816644;05/08/24;00:10:44;1.011;-0.037;0.121;-0.006108652334660292;-0.010995574295520782;0.0036651913542300463
01:00:0A:00:00:00:00;1722816645;05/08/24;00:10:45;1.011;-0.037;0.121;-0.006108652334660292;-0.010995574295520782;0.0036651913542300463
01:00:0A:00:00:00:00;1722816646;05/08/24;00:10:46;1.012;-0.039;0.122;-0.006108652334660292;-0.010995574295520782;0.0024434609804302454
01:00:0A:00:00:00:00;1722816647;05/08/24;00:10:47;1.01;-0.037;0.122;-0.006108652334660292;-0.010995574295520782;0.0036651913542300463
01:00:0A:00:00:00:00;1722816648;05/08/24;00:10:48;1.011;-0.036;0.121;-0.006108652334660292;-0.010995574295520782;0.0036651913542300463
01:00:0A:00:00:00:00;1722816649;05/08/24;00:10:49;1.011;-0.037;0.121;-0.006108652334660292;-0.010995574295520782;0.0036651913542300463
01:00:0A:00:00:00:00;1722816650;05/08/24;00:10:50;1.012;-0.038;0.121;-0.006108652334660292;-0.010995574295520782;0.0036651913542300463
01:00:0A:00:00:00:00;1722816651;05/08/24;00:10:51;1.012;-0.037;0.121;-0.006108652334660292;-0.010995574295520782;0.0024434609804302454
01:00:0A:00:00:00:00;1722816652;05/08/24;00:10:52;1.012;-0.037;0.121;-0.006108652334660292;-0.010995574295520782;0.0036651913542300463
01:00:0A:00:00:00:00;1722816653;05/08/24;00:10:53;1.011;-0.037;0.12;-0.006108652334660292;-0.010995574295520782;0.0036651913542300463
01:00:0A:00:00:00:00;1722816654;05/08/24;00:10:54;1.012;-0.038;0.122;-0.006108652334660292;-0.010995574295520782;0.0024434609804302454
01:00:0A:00:00:00:00;1722816655;05/08/24;00:10:55;1.01;-0.037;0.121;-0.006108652334660292;-0.010995574295520782;0.0024434609804302454
01:00:0A:00:00:00:00;1722816656;05/08/24;00:10:56;1.011;-0.037;0.121;-0.006108652334660292;-0.010995574295520782;0.0036651913542300463
01:00:0A:00:00:00:00;1722816657;05/08/24;00:10:57;1.012;-0.037;0.122;-0.006108652334660292;-0.010995574295520782;0.0036651913542300463
01:00:0A:00:00:00:00;1722816658;05/08/24;00:10:58;1.012;-0.039;0.12;-0.006108652334660292;-0.010995574295520782;0.0036651913542300463
01:00:0A:00:00:00:00;1722816659;05/08/24;00:10:59;1.011;-0.037;0.121;-0.006108652334660292;-0.010995574295520782;0.0024434609804302454
01:00:0A:00:00:00:00;1722816660;05/08/24;00:11:00;1.012;-0.038;0.121;-0.006108652334660292;-0.010995574295520782;0.0036651913542300463
01:00:0A:00:00:00:00;1722816661;05/08/24;00:11:01;1.011;-0.038;0.12;-0.006108652334660292;-0.010995574295520782;0.0024434609804302454
01:00:0A:00:00:00:00;1722816662;05/08/24;00:11:02;1.012;-0.038;0.115;0.0;-0.02687807008624077;0.012217304669320583
01:00:0A:00:00:00:00;1722816663;05/08/24;00:11:03;1.012;-0.057;0.107;0.06963863223791122;-0.012217304669320583;0.019547687843441963
01:00:0A:00:00:00:00;1722816664;05/08/24;00:11:04;1.012;-0.048;0.115;0.1368338167667389;-0.006108652334660292;-0.006108652334660292
01:00:0A:00:00:00:00;1722816665;05/08/24;00:11:05;1.011;-0.031;0.123;0.14294245839118958;-0.009773843921720982;0.006108652334660292
01:00:0A:00:00:00:00;1722816666;05/08/24;00:11:06;1.012;-0.036;0.119;0.11850785464048386;-0.018325956538319588;0.030543262138962746
01:00:0A:00:00:00:00;1722816667;05/08/24;00:11:07;1.011;-0.044;0.12;0.12339477241039276;-0.010995574295520782;0.012217304669320583
01:00:0A:00:00:00:00;1722816668;05/08/24;00:11:08;1.011;-0.031;0.122;0.11972958594560623;-0.013439035043120384;0.004886921960860491
01:00:0A:00:00:00:00;1722816669;05/08/24;00:11:09;1.011;-0.036;0.12;0.10506881773471832;-0.013439035043120384;0.02687807008624077
01:00:0A:00:00:00:00;1722816670;05/08/24;00:11:10;1.011;-0.043;0.122;0.10995574295520782;-0.012217304669320583;0.00855211354792118
01:00:0A:00:00:00:00;1722816671;05/08/24;00:11:11;1.012;-0.032;0.121;0.1062905490398407;-0.015882495790719986;0.004886921960860491
01:00:0A:00:00:00:00;1722816672;05/08/24;00:11:12;1.012;-0.036;0.121;0.09651670604944229;-0.010995574295520782;0.02321287989616394
01:00:0A:00:00:00:00;1722816673;05/08/24;00:11:13;1.011;-0.04;0.122;0.09896016865968704;-0.012217304669320583;0.009773843921720982
01:00:0A:00:00:00:00;1722816674;05/08/24;00:11:14;1.013;-0.033;0.12;0.09651670604944229;-0.01710422709584236;0.006108652334660292
01:00:0A:00:00:00:00;1722816675;05/08/24;00:11:15;1.012;-0.037;0.121;0.08918632566928864;-0.009773843921720982;0.02076941914856434
01:00:0A:00:00:00:00;1722816676;05/08/24;00:11:16;1.011;-0.04;0.122;0.09162978082895279;-0.012217304669320583;0.009773843921720982
01:00:0A:00:00:00:00;1722816677;05/08/24;00:11:17;1.012;-0.035;0.119;0.08796459436416626;-0.018325956538319588;0.0073303827084600925
01:00:0A:00:00:00:00;1722816678;05/08/24;00:11:18;1.011;-0.036;0.12;0.08429940044879913;-0.00855211354792118;0.018325956538319588
01:00:0A:00:00:00:00;1722816679;05/08/24;00:11:19;1.01;-0.039;0.122;0.08552113175392151;-0.012217304669320583;0.009773843921720982
01:00:0A:00:00:00:00;1722816680;05/08/24;00:11:20;1.012;-0.035;0.12;0.08185594528913498;-0.018325956538319588;0.00855211354792118
01:00:0A:00:00:00:00;1722816681;05/08/24;00:11:21;1.011;-0.037;0.12;0.080634206533432;-0.00855211354792118;0.015882495790719986
01:00:0A:00:00:00:00;1722816682;05/08/24;00:11:22;1.011;-0.04;0.123;0.07941248267889023;-0.012217304669320583;0.009773843921720982
01:00:0A:00:00:00:00;1722816683;05/08/24;00:11:23;1.012;-0.035;0.12;0.07696902006864548;-0.01710422709584236;0.00855211354792118
01:00:0A:00:00:00:00;1722816684;05/08/24;00:11:24;1.01;-0.037;0.12;0.07696902006864548;-0.00855211354792118;0.014660765416920185
01:00:0A:00:00:00:00;1722816685;05/08/24;00:11:25;1.011;-0.038;0.123;0.0757472887635231;-0.010995574295520782;0.009773843921720982
01:00:0A:00:00:00:00;1722816686;05/08/24;00:11:26;1.011;-0.036;0.119;0.07330382615327835;-0.01710422709584236;0.009773843921720982
01:00:0A:00:00:00:00;1722816687;05/08/24;00:11:27;1.011;-0.037;0.12;0.07330382615327835;-0.00855211354792118;0.012217304669320583
01:00:0A:00:00:00:00;1722816688;05/08/24;00:11:28;1.013;-0.038;0.122;0.07208210229873657;-0.012217304669320583;0.009773843921720982
01:00:0A:00:00:00:00;1722816689;05/08/24;00:11:29;1.011;-0.037;0.121;0.06963863223791122;-0.01710422709584236;0.009773843921720982
01:00:0A:00:00:00:00;1722816690;05/08/24;00:11:30;1.012;-0.037;0.12;0.06963863223791122;-0.009773843921720982;0.010995574295520782
01:00:0A:00:00:00:00;1722816691;05/08/24;00:11:31;1.012;-0.037;0.122;0.06841690838336945;-0.012217304669320583;0.009773843921720982
01:00:0A:00:00:00:00;1722816692;05/08/24;00:11:32;1.01;-0.037;0.121;0.0659734457731247;-0.015882495790719986;0.009773843921720982
01:00:0A:00:00:00:00;1722816693;05/08/24;00:11:33;1.01;-0.038;0.121;0.06719517707824707;-0.009773843921720982;0.009773843921720982
01:00:0A:00:00:00:00;1722816694;05/08/24;00:11:34;1.012;-0.037;0.122;0.06475171446800232;-0.012217304669320583;0.009773843921720982
01:00:0A:00:00:00:00;1722816695;05/08/24;00:11:35;1.011;-0.037;0.121;0.06230825558304787;-0.015882495790719986;0.009773843921720982
01:00:0A:00:00:00:00;1722816696;05/08/24;00:11:36;1.011;-0.037;0.12;0.06352998316287994;-0.010995574295520782;0.009773843921720982
01:00:0A:00:00:00:00;1722816697;05/08/24;00:11:37;1.01;-0.037;0.122;0.06230825558304787;-0.012217304669320583;0.009773843921720982
01:00:0A:00:00:00:00;1722816698;05/08/24;00:11:38;1.011;-0.038;0.121;0.059864792972803116;-0.014660765416920185;0.009773843921720982
01:00:0A:00:00:00:00;1722816699;05/08/24;00:11:39;1.012;-0.038;0.121;0.06108652427792549;-0.010995574295520782;0.009773843921720982
01:00:0A:00:00:00:00;1722816700;05/08/24;00:11:40;1.011;-0.037;0.122;0.05864306166768074;-0.012217304669320583;0.009773843921720982
01:00:0A:00:00:00:00;1722816701;05/08/24;00:11:41;1.012;-0.037;0.121;0.05619959905743599;-0.014660765416920185;0.009773843921720982
01:00:0A:00:00:00:00;1722816702;05/08/24;00:11:42;1.011;-0.038;0.121;0.05742133408784866;-0.010995574295520782;0.00855211354792118
01:00:0A:00:00:00:00;1722816703;05/08/24;00:11:43;1.011;-0.037;0.122;0.05619959905743599;-0.012217304669320583;0.00855211354792118
01:00:0A:00:00:00:00;1722816704;05/08/24;00:11:44;1.011;-0.038;0.122;0.05375614017248154;-0.014660765416920185;0.009773843921720982
01:00:0A:00:00:00:00;1722816705;05/08/24;00:11:45;1.011;-0.037;0.12;0.05497787147760391;-0.010995574295520782;0.00855211354792118
01:00:0A:00:00:00:00;1722816706;05/08/24;00:11:46;1.012;-0.036;0.122;0.05375614017248154;-0.012217304669320583;0.00855211354792118
01:00:0A:00:00:00:00;1722816707;05/08/24;00:11:47;1.011;-0.037;0.121;0.051312677562236786;-0.013439035043120384;0.009773843921720982
01:00:0A:00:00:00:00;1722816708;05/08/24;00:11:48;1.011;-0.037;0.121;0.05253440886735916;-0.010995574295520782;0.00855211354792118
01:00:0A:00:00:00:00;1722816709;05/08/24;00:11:49;1.011;-0.036;0.121;0.051312677562236786;-0.012217304669320583;0.00855211354792118
01:00:0A:00:00:00:00;1722816710;05/08/24;00:11:50;1.012;-0.037;0.122;0.04886921867728233;-0.013439035043120384;0.00855211354792118
01:00:0A:00:00:00:00;1722816711;05/08/24;00:11:51;1.01;-0.035;0.113;0.05497787147760391;-0.025656338781118393;-0.004886921960860491
01:00:0A:00:00:00:00;1722816712;05/08/24;00:11:52;1.022;-0.049;0.085;0.0659734457731247;-0.004886921960860491;-0.019547687843441963
01:00:0A:00:00:00:00;1722816713;05/08/24;00:11:53;1.009;-0.043;0.174;-0.015882495790719986;0.27977627515792847;0.28099802136421204
01:00:0A:00:00:00:00;1722816714;05/08/24;00:11:54;0.922;-0.437;0.06;0.35552355647087097;-0.09896016865968704;0.19792033731937408
01:00:0A:00:00:00:00;1722816715;05/08/24;00:11:55;0.977;-0.183;0.266;0.7110471129417419;-0.036651913076639175;0.09162978082895279
01:00:0A:00:00:00:00;1722816716;05/08/24;00:11:56;0.963;0.117;0.34;0.34697145223617554;-0.05009094998240471;-0.21135938167572021
01:00:0A:00:00:00:00;1722816717;05/08/24;00:11:57;0.966;-0.391;0.246;-0.07452555745840073;-0.12461651116609573;0.14782939851284027
01:00:0A:00:00:00:00;1722816718;05/08/24;00:11:58;1.079;-0.117;0.156;0.05742133408784866;0.18448130786418915;-0.2541199326515198
01:00:0A:00:00:00:00;1722816719;05/08/24;00:11:59;0.947;0.452;0.258;-0.313984751701355;0.3176499307155609;0.12095131725072861
01:00:0A:00:00:00:00;1722816720;05/08/24;00:12:00;0.993;-0.45;-0.126;-0.2834414541721344;-0.19303341209888458;0.015882495790719986
01:00:0A:00:00:00:00;1722816721;05/08/24;00:12:01;0.962;0.316;0.259;-0.06352998316287994;0.294437050819397;-0.3127630054950714
01:00:0A:00:00:00:00;1722816722;05/08/24;00:12:02;1.053;-0.138;-0.05;-0.5143485069274902;-0.5485569834709167;0.3152064383029938
01:00:0A:00:00:00:00;1722816723;05/08/24;00:12:03;0.936;-0.073;0.405;-0.1576032191514969;0.5962044596672058;-0.2871066629886627
01:00:0A:00:00:00:00;1722816724;05/08/24;00:12:04;0.997;0.156;-0.208;-0.5021312236785889;-1.1142181158065796;-0.31031954288482666
01:00:0A:00:00:00:00;1722816725;05/08/24;00:12:05;0.851;-0.593;-0.361;-0.26633724570274353;1.5173892974853516;1.556484580039978
01:00:0A:00:00:00:00;1722816726;05/08/24;00:12:06;0.786;0.049;0.758;-0.911410927772522;-0.436157763004303;-1.4966198205947876
01:00:0A:00:00:00:00;1722816727;05/08/24;00:12:07;0.89;0.488;0.096;-2.107485055923462;-1.127657175064087;0.24190263450145721
01:00:0A:00:00:00:00;1722816728;05/08/24;00:12:08;1.022;0.064;-0.086;-1.6468926668167114;0.2773328125476837;0.7660250067710876
01:00:0A:00:00:00:00;1722816729;05/08/24;00:12:09;0.968;-0.369;-0.125;-1.1154398918151855;0.6157521605491638;-0.20525071024894714
01:00:0A:00:00:00:00;1722816730;05/08/24;00:12:10;0.889;-0.155;0.461;-1.1142181158065796;0.9724974632263184;-0.4153883755207062
01:00:0A:00:00:00:00;1722816731;05/08/24;00:12:11;0.65;-0.429;0.672;-1.2486084699630737;0.4764748811721802;-1.4563027620315552
01:00:0A:00:00:00:00;1722816732;05/08/24;00:12:12;1.0;0.129;0.181;-1.263269305229187;-0.8454375267028809;-0.8246681094169617
01:00:0A:00:00:00:00;1722816733;05/08/24;00:12:13;0.951;-0.285;0.342;-0.988379955291748;0.33964109420776367;-0.9004153609275818
01:00:0A:00:00:00:00;1722816734;05/08/24;00:12:14;0.933;0.407;0.24;-1.5112806558609009;-1.027475357055664;-0.5546656250953674
01:00:0A:00:00:00:00;1722816735;05/08/24;00:12:15;0.901;0.401;-0.195;-1.9242254495620728;-0.8210028409957886;0.6243042349815369
01:00:0A:00:00:00:00;1722816736;05/08/24;00:12:16;1.008;-0.129;-0.115;-1.7592918872833252;0.02076941914856434;0.645073652267456
01:00:0A:00:00:00:00;1722816737;05/08/24;00:12:17;0.951;-0.513;-0.203;-0.7538076639175415;-0.2125810980796814;1.1203267574310303
01:00:0A:00:00:00:00;1722816738;05/08/24;00:12:18;1.042;0.219;0.219;-0.5485569834709167;-0.040317103266716;-0.5803219676017761
01:00:0A:00:00:00:00;1722816739;05/08/24;00:12:19;1.024;-0.034;0.082;-0.9505062699317932;-0.009773843921720982;0.4080579876899719
01:00:0A:00:00:00:00;1722816740;05/08/24;00:12:20;0.841;-0.497;0.096;-0.5265658497810364;0.5241223573684692;0.4752531349658966
01:00:0A:00:00:00:00;1722816741;05/08/24;00:12:21;0.977;-0.008;0.324;-0.19058994948863983;0.1062905490398407;-1.0323623418807983
01:00:0A:00:00:00:00;1722816742;05/08/24;00:12:22;1.02;0.121;0.076;-0.8491026759147644;-0.7770205736160278;0.12461651116609573
01:00:0A:00:00:00:00;1722816743;05/08/24;00:12:23;0.917;-0.412;0.271;-0.8002334833145142;0.513126790523529;-0.2822197377681732
01:00:0A:00:00:00:00;1722816744;05/08/24;00:12:24;0.957;0.01;0.125;-1.0409142971038818;-0.49724429845809937;-0.2076941877603531
01:00:0A:00:00:00:00;1722816745;05/08/24;00:12:25;0.851;-0.59;-0.065;0.7110471129417419;0.09529497474431992;1.3084733486175537
01:00:0A:00:00:00:00;1722816746;05/08/24;00:12:26;0.691;-0.606;0.505;-0.09529497474431992;1.1264355182647705;-1.1545352935791016
01:00:0A:00:00:00:00;1722816747;05/08/24;00:12:27;0.907;0.089;0.518;-1.8008307218551636;-0.9834930300712585;-1.3170254230499268
01:00:0A:00:00:00:00;1722816748;05/08/24;00:12:28;0.857;0.385;0.046;-2.4214696884155273;-0.5644394755363464;0.09896016865968704
01:00:0A:00:00:00:00;1722816749;05/08/24;00:12:29;0.961;-0.275;-0.059;-1.8057177066802979;0.7195992469787598;0.4801400899887085
01:00:0A:00:00:00:00;1722816750;05/08/24;00:12:30;0.943;-0.146;0.314;-2.735454559326172;0.5473352670669556;-0.7867944240570068
01:00:0A:00:00:00:00;1722816751;05/08/24;00:12:31;0.961;-0.022;0.215;-2.9333746433258057;-0.2480112910270691;-0.05375614017248154
01:00:0A:00:00:00:00;1722816752;05/08/24;00:12:32;0.979;-0.128;0.1;-2.576629638671875;0.05375614017248154;-0.37262779474258423
01:00:0A:00:00:00:00;1722816753;05/08/24;00:12:33;1.008;-0.069;0.154;-2.552194833755493;-0.5363396406173706;-0.15515977144241333
01:00:0A:00:00:00:00;1722816754;05/08/24;00:12:34;0.958;0.274;0.217;-2.5314254760742188;-0.9162978529930115;0.16371189057826996
01:00:0A:00:00:00:00;1722816755;05/08/24;00:12:35;0.991;-0.17;-0.027;-3.754377603530884;-0.09285151958465576;0.836885392665863
01:00:0A:00:00:00:00;1722816756;05/08/24;00:12:36;0.971;-0.284;-0.031;-2.4691171646118164;1.0824532508850098;-0.03176499158143997
01:00:0A:00:00:00:00;1722816757;05/08/24;00:12:37;0.902;-0.07;0.441;-2.3066272735595703;0.6365215182304382;-0.9859364628791809
01:00:0A:00:00:00:00;1722816758;05/08/24;00:12:38;0.807;0.255;0.464;-2.7623324394226074;-0.46303585171699524;-1.281595230102539
01:00:0A:00:00:00:00;1722816759;05/08/24;00:12:39;0.929;0.179;0.244;-3.004235029220581;-0.32009339332580566;-1.4196507930755615
01:00:0A:00:00:00:00;1722816760;05/08/24;00:12:40;1.014;-0.16;0.333;-3.017674207687378;-0.23945917189121246;-0.817337691783905
01:00:0A:00:00:00:00;1722816761;05/08/24;00:12:41;0.953;0.328;-0.24;-2.813645362854004;-1.205847978591919;-0.14905111491680145
01:00:0A:00:00:00:00;1722816762;05/08/24;00:12:42;0.824;0.634;0.132;-2.7708847522735596;-1.137431025505066;-0.03420845419168472
01:00:0A:00:00:00:00;1722816763;05/08/24;00:12:43;0.876;0.475;0.105;-2.9138271808624268;-0.9053022265434265;-0.27122414112091064
01:00:0A:00:00:00:00;1722816764;05/08/24;00:12:44;0.983;-0.199;0.31;-3.054326057434082;-0.3995058536529541;-0.33597588539123535
01:00:0A:00:00:00:00;1722816765;05/08/24;00:12:45;0.778;-0.459;-0.285;-2.8967227935791016;0.5510004162788391;0.7855727076530457
01:00:0A:00:00:00:00;1722816766;05/08/24;00:12:46;0.914;-0.039;-0.066;-1.55892813205719;0.8136724829673767;0.5681046843528748
01:00:0A:00:00:00:00;1722816767;05/08/24;00:12:47;0.803;0.132;0.46;-1.2131783962249756;0.7318165302276611;-1.1716395616531372
01:00:0A:00:00:00:00;1722816768;05/08/24;00:12:48;0.7;-0.305;0.705;-1.4489723443984985;0.2590068578720093;-0.8930849432945251
01:00:0A:00:00:00:00;1722816769;05/08/24;00:12:49;0.937;0.295;0.425;-1.3829989433288574;-0.27488934993743896;-1.0726792812347412
01:00:0A:00:00:00:00;1722816770;05/08/24;00:12:50;0.81;-0.005;0.52;0.22602014243602753;-0.6499606370925903;-0.22602014243602753
01:00:0A:00:00:00:00;1722816771;05/08/24;00:12:51;0.984;-0.041;0.02;0.35063666105270386;-0.17104226350784302;-0.2480112910270691
01:00:0A:00:00:00:00;1722816772;05/08/24;00:12:52;1.002;0.081;0.081;0.5180137157440186;0.4752531349658966;-0.3738495111465454
01:00:0A:00:00:00:00;1722816773;05/08/24;00:12:53;0.906;0.305;0.186;0.06475171446800232;-0.7049384713172913;0.7648032903671265
01:00:0A:00:00:00:00;1722816774;05/08/24;00:12:54;0.968;-0.274;0.109;-1.5015066862106323;0.5229006409645081;-0.2125810980796814
01:00:0A:00:00:00:00;1722816775;05/08/24;00:12:55;0.955;-0.064;0.363;-1.538158655166626;0.045204028487205505;-0.9480628371238708
01:00:0A:00:00:00:00;1722816776;05/08/24;00:12:56;0.93;0.421;-0.135;-1.7886134386062622;-0.7428121566772461;-0.21624629199504852
01:00:0A:00:00:00:00;1722816777;05/08/24;00:12:57;0.856;-0.322;-0.521;-1.567480206489563;-0.5265658497810364;0.7562511563301086
01:00:0A:00:00:00:00;1722816778;05/08/24;00:12:58;0.939;-0.488;-0.029;-0.7269296050071716;1.1093312501907349;0.6010913848876953
01:00:0A:00:00:00:00;1722816779;05/08/24;00:12:59;0.865;0.265;0.572;-0.8527678847312927;0.28466320037841797;-0.7819074988365173
01:00:0A:00:00:00:00;1722816780;05/08/24;00:13:00;0.932;-0.007;0.479;-1.6383405923843384;-0.22846359014511108;-0.46547931432724
01:00:0A:00:00:00:00;1722816781;05/08/24;00:13:01;0.881;0.088;0.471;-1.3512338399887085;1.0396926403045654;0.16371189057826996
01:00:0A:00:00:00:00;1722816782;05/08/24;00:13:02;1.009;-0.083;-0.002;-1.381777048110962;-0.6585127115249634;-0.43860122561454773
01:00:0A:00:00:00:00;1722816783;05/08/24;00:13:03;0.989;-0.252;0.228;-1.164309024810791;0.6511822938919067;0.4398229718208313
01:00:0A:00:00:00:00;1722816784;05/08/24;00:13:04;1.053;-0.147;0.009;-0.6939429044723511;-0.161268413066864;-0.49846604466438293
01:00:0A:00:00:00:00;1722816785;05/08/24;00:13:05;0.925;0.119;0.411;-0.8735373020172119;0.2223549485206604;0.05375614017248154
01:00:0A:00:00:00:00;1722816786;05/08/24;00:13:06;0.89;0.033;0.53;-2.1123721599578857;-0.9639453291893005;-1.0971139669418335
01:00:0A:00:00:00:00;1722816787;05/08/24;00:13:07;0.934;0.029;0.431;-2.344500780105591;-0.21135938167572021;-0.32131510972976685
01:00:0A:00:00:00:00;1722816788;05/08/24;00:13:08;1.025;0.0;0.17;-1.9266690015792847;-0.3933972120285034;-0.6194173693656921
01:00:0A:00:00:00:00;1722816789;05/08/24;00:13:09;0.868;0.213;0.448;-2.0977110862731934;0.0354301817715168;0.2174680233001709
01:00:0A:00:00:00:00;1722816790;05/08/24;00:13:10;0.993;0.164;-0.011;-1.8826866149902344;-0.10751228034496307;-0.4105014204978943
01:00:0A:00:00:00:00;1722816791;05/08/24;00:13:11;1.014;0.153;0.172;-2.322509527206421;-0.6316346526145935;-0.14905111491680145
01:00:0A:00:00:00:00;1722816792;05/08/24;00:13:12;0.835;0.34;0.627;-2.8771753311157227;0.06108652427792549;-0.4593706727027893
01:00:0A:00:00:00:00;1722816793;05/08/24;00:13:13;0.951;0.406;0.035;-2.863736391067505;-0.2528982162475586;-0.2431243658065796
01:00:0A:00:00:00:00;1722816794;05/08/24;00:13:14;1.058;0.028;0.234;-0.19792033731937408;-0.3579670488834381;0.6585127115249634
01:00:0A:00:00:00:00;1722816795;05/08/24;00:13:15;0.937;-0.505;0.086;-0.27488934993743896;0.6047565937042236;-0.04764748737215996
01:00:0A:00:00:00:00;1722816796;05/08/24;00:13:16;1.057;0.051;-0.022;-0.09407324343919754;-0.251676470041275;0.15882496535778046
01:00:0A:00:00:00:00;1722816797;05/08/24;00:13:17;0.996;-0.242;0.229;-0.010995574295520782;0.3298672139644623;-0.19547687470912933
01:00:0A:00:00:00:00;1722816798;05/08/24;00:13:18;0.952;0.074;0.14;-0.1111774742603302;0.0708603635430336;-0.018325956538319588
01:00:0A:00:00:00:00;1722816799;05/08/24;00:13:19;0.866;0.222;-0.142;-0.35185837745666504;-0.9321803450584412;-0.43737950921058655
01:00:0A:00:00:00:00;1722816800;05/08/24;00:13:20;0.952;0.033;-0.001;-0.6731734871864319;0.8600982427597046;0.7770205736160278
01:00:0A:00:00:00:00;1722816801;05/08/24;00:13:21;0.956;0.105;0.197;-1.0885618925094604;-0.12461651116609573;-0.6426302194595337
01:00:0A:00:00:00:00;1722816802;05/08/24;00:13:22;0.921;0.262;0.378;-1.3939944505691528;0.1820378452539444;-0.010995574295520782
01:00:0A:00:00:00:00;1722816803;05/08/24;00:13:23;1.023;-0.092;-0.076;-1.3426817655563354;-0.19058994948863983;-0.11728612333536148
01:00:0A:00:00:00:00;1722816804;05/08/24;00:13:24;1.024;-0.067;0.014;-1.0225883722305298;0.2125810980796814;0.059864792972803116
01:00:0A:00:00:00:00;1722816805;05/08/24;00:13:25;0.97;-0.136;0.244;-0.8894197940826416;0.10995574295520782;-0.13439035415649414
01:00:0A:00:00:00:00;1722816806;05/08/24;00:13:26;0.837;-0.221;0.39;-0.9553932547569275;-0.21502456068992615;-1.7238616943359375
01:00:0A:00:00:00:00;1722816807;05/08/24;00:13:27;0.971;0.187;0.011;-1.3634511232376099;-0.7428121566772461;0.14782939851284027
01:00:0A:00:00:00:00;1722816808;05/08/24;00:13:28;1.019;0.021;0.143;-1.5943583250045776;0.040317103266716;0.7440338730812073
01:00:0A:00:00:00:00;1722816809;05/08/24;00:13:29;0.89;-0.468;-0.172;-0.7232644557952881;0.6609562039375305;0.051312677562236786
01:00:0A:00:00:00:00;1722816810;05/08/24;00:13:30;0.913;0.157;0.429;-0.5644394755363464;-0.4105014204978943;-0.5265658497810364
01:00:0A:00:00:00:00;1722816811;05/08/24;00:13:31;1.017;0.085;0.136;-1.2400563955307007;-0.5913175940513611;0.3335324227809906
01:00:0A:00:00:00:00;1722816812;05/08/24;00:13:32;0.924;-0.068;-0.208;-0.9419541358947754;0.3090977966785431;0.2724458873271942
01:00:0A:00:00:00:00;1722816813;05/08/24;00:13:33;0.769;-0.374;0.456;-0.9822713136672974;0.3836233615875244;-0.37751471996307373
01:00:0A:00:00:00:00;1722816814;05/08/24;00:13:34;0.797;0.023;0.633;-0.5192354917526245;-0.34086278080940247;-0.607200026512146
01:00:0A:00:00:00:00;1722816815;05/08/24;00:13:35;1.045;0.203;-0.145;-0.46181410551071167;-0.29688048362731934;0.7305948734283447
01:00:0A:00:00:00:00;1722816816;05/08/24;00:13:36;0.954;-0.208;0.561;-0.6426302194595337;0.6572909951210022;-0.6780604124069214
01:00:0A:00:00:00:00;1722816817;05/08/24;00:13:37;1.077;-0.029;-0.143;-0.9517280459403992;-0.21991148591041565;0.31031954288482666
01:00:0A:00:00:00:00;1722816818;05/08/24;00:13:38;0.993;-0.051;0.302;-1.027475357055664;0.626747727394104;0.028099799528717995
01:00:0A:00:00:00:00;1722816819;05/08/24;00:13:39;0.894;0.337;-0.048;-1.1410963535308838;-1.086118459701538;1.056796908378601
01:00:0A:00:00:00:00;1722816820;05/08/24;00:13:40;0.89;0.321;0.005;-1.2803735733032227;0.009773843921720982;0.7049384713172913
01:00:0A:00:00:00:00;1722816821;05/08/24;00:13:41;0.803;0.465;0.51;-1.0482447147369385;0.6120869517326355;-0.5644394755363464
01:00:0A:00:00:00:00;1722816822;05/08/24;00:13:42;0.666;0.276;0.746;0.375071257352829;-0.44715335965156555;0.26022857427597046
01:00:0A:00:00:00:00;1722816823;05/08/24;00:13:43;0.853;0.38;0.376;-0.9065240025520325;-0.919963002204895;-0.3579670488834381
01:00:0A:00:00:00:00;1722816824;05/08/24;00:13:44;0.951;0.203;-0.131;-1.7311919927597046;-0.4789183437824249;0.6035348773002625
01:00:0A:00:00:00:00;1722816825;05/08/24;00:13:45;0.952;0.112;0.367;-2.1233675479888916;-0.5998696088790894;0.37751471996307373
01:00:0A:00:00:00:00;1722816826;05/08/24;00:13:46;0.97;-0.044;-0.085;-1.653001308441162;0.7635815143585205;-0.0659734457731247
01:00:0A:00:00:00:00;1722816827;05/08/24;00:13:47;0.886;0.354;0.253;-2.320066213607788;-1.0995573997497559;-0.598647952079773
01:00:0A:00:00:00:00;1722816828;05/08/24;00:13:48;0.942;0.067;0.1;-2.6511549949645996;-0.7073819637298584;-0.598647952079773
01:00:0A:00:00:00:00;1722816829;05/08/24;00:13:49;0.976;0.105;0.217;-2.5754077434539795;-0.161268413066864;-0.9676105380058289
01:00:0A:00:00:00:00;1722816830;05/08/24;00:13:50;0.957;-0.25;0.311;-2.5692989826202393;-0.4801400899887085;0.1270599663257599
01:00:0A:00:00:00:00;1722816831;05/08/24;00:13:51;0.974;0.292;0.146;-2.102598190307617;-0.12828169763088226;-0.21013763546943665
01:00:0A:00:00:00:00;1722816832;05/08/24;00:13:52;0.998;-0.122;0.259;-1.9792033433914185;-0.4190535545349121;-0.5192354917526245
01:00:0A:00:00:00:00;1722816833;05/08/24;00:13:53;0.916;-0.084;0.451;-1.8179349899291992;0.03787364438176155;-0.07819075137376785
01:00:0A:00:00:00:00;1722816834;05/08/24;00:13:54;0.963;-0.366;0.014;-1.0018190145492554;-0.08552113175392151;-0.5949827432632446
01:00:0A:00:00:00:00;1722816835;05/08/24;00:13:55;1.033;-0.008;0.081;-0.7513642311096191;0.08918632566928864;0.2015855312347412
01:00:0A:00:00:00:00;1722816836;05/08/24;00:13:56;1.002;-0.141;0.177;-0.5607742667198181;-0.21991148591041565;-0.1966986060142517
01:00:0A:00:00:00:00;1722816837;05/08/24;00:13:57;0.994;0.093;0.238;-0.5326744914054871;0.13316862285137177;-0.2028072476387024
01:00:0A:00:00:00:00;1722816838;05/08/24;00:13:58;1.004;-0.037;0.231;-0.7696901559829712;-0.05619959905743599;0.1673770695924759
01:00:0A:00:00:00:00;1722816839;05/08/24;00:13:59;1.018;0.052;0.033;-0.6035348773002625;-0.07330382615327835;-0.13561207056045532
01:00:0A:00:00:00:00;1722816840;05/08/24;00:14:00;0.984;-0.044;0.253;-0.5510004162788391;0.26633724570274353;0.05742133408784866
01:00:0A:00:00:00:00;1722816841;05/08/24;00:14:01;1.001;-0.125;0.091;-0.31154125928878784;-0.0708603635430336;-0.21135938167572021
01:00:0A:00:00:00:00;1722816842;05/08/24;00:14:02;1.0;0.047;-0.015;-0.24556782841682434;-0.07208210229873657;-0.08674286305904388
01:00:0A:00:00:00:00;1722816843;05/08/24;00:14:03;0.991;-0.055;0.12;-0.2590068578720093;0.02932153083384037;0.1869247555732727
01:00:0A:00:00:00:00;1722816844;05/08/24;00:14:04;0.979;-0.07;0.129;-0.004886921960860491;-0.08429940044879913;-0.25534167885780334
01:00:0A:00:00:00:00;1722816845;05/08/24;00:14:05;1.006;0.066;0.112;-0.10751228034496307;-0.12461651116609573;-0.05619959905743599
01:00:0A:00:00:00:00;1722816846;05/08/24;00:14:06;1.025;-0.044;0.129;-0.18570303916931152;-0.045204028487205505;0.1111774742603302
01:00:0A:00:00:00:00;1722816847;05/08/24;00:14:07;1.022;-0.062;0.098;-0.09529497474431992;0.0;-0.05375614017248154
01:00:0A:00:00:00:00;1722816848;05/08/24;00:14:08;1.03;0.063;0.155;-0.14049901068210602;-0.08307767659425735;-0.04886921867728233
01:00:0A:00:00:00:00;1722816849;05/08/24;00:14:09;1.056;-0.028;0.121;-0.16493360698223114;-0.15027284622192383;-0.07208210229873657
01:00:0A:00:00:00:00;1722816850;05/08/24;00:14:10;1.047;-0.076;0.163;-0.09285151958465576;0.10506881773471832;-0.05253440886735916
01:00:0A:00:00:00:00;1722816851;05/08/24;00:14:11;1.017;0.012;0.157;-0.12950342893600464;0.09896016865968704;-0.0036651913542300463
01:00:0A:00:00:00:00;1722816852;05/08/24;00:14:12;0.945;-0.007;0.08;-0.17348572611808777;0.04642575979232788;0.13439035415649414
01:00:0A:00:00:00:00;1722816853;05/08/24;00:14:13;0.944;0.063;0.103;-0.06719517707824707;0.02321287989616394;-0.2528982162475586
01:00:0A:00:00:00:00;1722816854;05/08/24;00:14:14;1.019;0.05;0.143;-0.3237585723400116;-0.13439035415649414;0.23457224667072296
01:00:0A:00:00:00:00;1722816855;05/08/24;00:14:15;1.046;-0.228;0.065;0.15882496535778046;0.28588491678237915;-0.14538592100143433
01:00:0A:00:00:00:00;1722816856;05/08/24;00:14:16;1.039;0.024;0.037;0.5485569834709167;-0.08552113175392151;-0.1160643920302391
01:00:0A:00:00:00:00;1722816857;05/08/24;00:14:17;0.953;0.032;0.16;0.4092797040939331;0.2871066629886627;0.06108652427792549
01:00:0A:00:00:00:00;1722816858;05/08/24;00:14:18;0.961;-0.053;0.114;0.1771509200334549;-0.38240164518356323;0.2834414541721344
01:00:0A:00:00:00:00;1722816859;05/08/24;00:14:19;1.016;-0.117;0.077;0.4801400899887085;0.18814648687839508;-0.2993239760398865
01:00:0A:00:00:00:00;1722816860;05/08/24;00:14:20;0.998;0.23;0.214;0.12828169763088226;-0.0012217304902151227;0.15271630883216858
01:00:0A:00:00:00:00;1722816861;05/08/24;00:14:21;1.008;-0.161;0.127;0.009773843921720982;-0.010995574295520782;0.30054569244384766
01:00:0A:00:00:00:00;1722816862;05/08/24;00:14:22;0.99;-0.001;0.097;0.32498031854629517;-0.02076941914856434;-0.35063666105270386
01:00:0A:00:00:00:00;1722816863;05/08/24;00:14:23;0.994;0.052;0.084;0.07941248267889023;-0.004886921960860491;0.14538592100143433
01:00:0A:00:00:00:00;1722816864;05/08/24;00:14:24;1.019;-0.128;0.186;0.08796459436416626;-0.009773843921720982;0.03420845419168472
01:00:0A:00:00:00:00;1722816865;05/08/24;00:14:25;1.031;0.0;0.142;0.10262535512447357;-0.0036651913542300463;-0.05375614017248154
01:00:0A:00:00:00:00;1722816866;05/08/24;00:14:26;0.994;-0.029;0.073;0.051312677562236786;0.024434609338641167;0.09285151958465576
01:00:0A:00:00:00:00;1722816867;05/08/24;00:14:27;0.966;-0.059;0.116;0.09407324343919754;0.0036651913542300463;0.021991148591041565
01:00:0A:00:00:00:00;1722816868;05/08/24;00:14:28;0.999;-0.034;0.144;0.08918632566928864;-0.16859880089759827;-0.04764748737215996
01:00:0A:00:00:00:00;1722816869;05/08/24;00:14:29;1.036;-0.001;0.097;0.0757472887635231;0.06230825558304787;0.025656338781118393
01:00:0A:00:00:00:00;1722816870;05/08/24;00:14:30;1.04;-0.036;0.213;0.05009094998240471;0.059864792972803116;0.0024434609804302454
01:00:0A:00:00:00:00;1722816871;05/08/24;00:14:31;1.038;-0.005;0.079;0.013439035043120384;-0.0757472887635231;-0.042760565876960754
01:00:0A:00:00:00:00;1722816872;05/08/24;00:14:32;1.014;-0.044;0.001;0.09529497474431992;-0.08307767659425735;-0.03298672288656235
01:00:0A:00:00:00:00;1722816873;05/08/24;00:14:33;1.011;-0.023;0.108;-0.14294245839118958;0.10384709388017654;-0.0036651913542300463
01:00:0A:00:00:00:00;1722816874;05/08/24;00:14:34;0.998;-0.028;0.192;-0.17104226350784302;0.0073303827084600925;0.006108652334660292
01:00:0A:00:00:00:00;1722816875;05/08/24;00:14:35;0.981;-0.032;0.089;-0.16493360698223114;-0.14538592100143433;-0.009773843921720982
01:00:0A:00:00:00:00;1722816876;05/08/24;00:14:36;0.973;-0.001;0.086;-0.09407324343919754;0.12339477241039276;-0.02076941914856434
01:00:0A:00:00:00:00;1722816877;05/08/24;00:14:37;0.992;-0.016;0.168;-0.14905111491680145;-0.07330382615327835;0.04398229718208313
01:00:0A:00:00:00:00;1722816878;05/08/24;00:14:38;1.014;-0.033;0.099;-0.1062905490398407;-0.07452555745840073;-0.07452555745840073
01:00:0A:00:00:00:00;1722816879;05/08/24;00:14:39;1.029;0.015;0.114;-0.12950342893600464;-0.00855211354792118;0.012217304669320583
01:00:0A:00:00:00:00;1722816880;05/08/24;00:14:40;1.029;-0.074;0.176;-0.1258382350206375;0.02687807008624077;0.03298672288656235
01:00:0A:00:00:00:00;1722816881;05/08/24;00:14:41;1.038;-0.004;0.13;-0.09040805697441101;0.030543262138962746;-0.01710422709584236
01:00:0A:00:00:00:00;1722816882;05/08/24;00:14:42;1.029;-0.014;0.106;-0.10018189996480942;0.04886921867728233;0.0659734457731247
01:00:0A:00:00:00:00;1722816883;05/08/24;00:14:43;1.005;-0.024;0.144;-0.07696902006864548;0.05742133408784866;0.024434609338641167
01:00:0A:00:00:00:00;1722816884;05/08/24;00:14:44;0.975;-0.012;0.092;-0.06963863223791122;-0.06841690838336945;-0.009773843921720982
01:00:0A:00:00:00:00;1722816885;05/08/24;00:14:45;0.979;-0.015;0.104;-0.04764748737215996;0.03787364438176155;0.004886921960860491
01:00:0A:00:00:00:00;1722816886;05/08/24;00:14:46;1.012;-0.017;0.149;-0.06230825558304787;-0.12828169763088226;-0.039095375686883926
01:00:0A:00:00:00:00;1722816887;05/08/24;00:14:47;1.037;-0.023;0.092;-0.04153883829712868;-0.03298672288656235;-0.06230825558304787
01:00:0A:00:00:00:00;1722816888;05/08/24;00:14:48;1.037;-0.023;0.194;-0.06963863223791122;0.05253440886735916;-0.0024434609804302454
01:00:0A:00:00:00:00;1722816889;05/08/24;00:14:49;1.012;-0.057;0.105;-0.10018189996480942;-0.030543262138962746;0.06352998316287994
01:00:0A:00:00:00:00;1722816890;05/08/24;00:14:50;0.991;0.0;0.121;-0.0708603635430336;0.02687807008624077;-0.019547687843441963
01:00:0A:00:00:00:00;1722816891;05/08/24;00:14:51;0.976;0.002;0.136;-0.12217304855585098;-0.1014036238193512;-0.013439035043120384
01:00:0A:00:00:00:00;1722816892;05/08/24;00:14:52;0.987;-0.035;0.124;-0.09896016865968704;-0.040317103266716;-0.0659734457731247
01:00:0A:00:00:00:00;1722816893;05/08/24;00:14:53;1.024;-0.047;0.168;-0.11362093687057495;-0.04153883829712868;0.006108652334660292
01:00:0A:00:00:00:00;1722816894;05/08/24;00:14:54;1.036;-0.036;0.14;-0.13439035415649414;0.009773843921720982;0.07208210229873657
01:00:0A:00:00:00:00;1722816895;05/08/24;00:14:55;1.033;-0.018;0.147;-0.11239919811487198;0.024434609338641167;0.04153883829712868
01:00:0A:00:00:00:00;1722816896;05/08/24;00:14:56;1.016;-0.01;0.13;-0.09040805697441101;0.0036651913542300463;-0.030543262138962746
01:00:0A:00:00:00:00;1722816897;05/08/24;00:14:57;0.991;-0.028;0.121;-0.09285151958465576;-0.009773843921720982;-0.0073303827084600925
01:00:0A:00:00:00:00;1722816898;05/08/24;00:14:58;0.999;-0.038;0.128;-0.08552113175392151;-0.059864792972803116;-0.00855211354792118
01:00:0A:00:00:00:00;1722816899;05/08/24;00:14:59;1.012;-0.011;0.135;-0.07208210229873657;-0.0012217304902151227;-0.009773843921720982
01:00:0A:00:00:00:00;1722816900;05/08/24;00:15:00;1.01;-0.016;0.139;-0.08552113175392151;-0.0036651913542300463;0.018325956538319588
01:00:0A:00:00:00:00;1722816901;05/08/24;00:15:01;0.984;-0.014;0.122;-0.080634206533432;-0.006108652334660292;-0.0024434609804302454
01:00:0A:00:00:00:00;1722816902;05/08/24;00:15:02;0.986;-0.023;0.12;-0.08185594528913498;-0.039095375686883926;0.006108652334660292
01:00:0A:00:00:00:00;1722816903;05/08/24;00:15:03;1.021;-0.021;0.13;-0.06841690838336945;-0.05009094998240471;-0.021991148591041565
01:00:0A:00:00:00:00;1722816904;05/08/24;00:15:04;1.05;-0.026;0.136;-0.0708603635430336;0.0;0.006108652334660292
01:00:0A:00:00:00:00;1722816905;05/08/24;00:15:05;1.034;-0.028;0.14;-0.07208210229873657;0.02321287989616394;0.0073303827084600925
01:00:0A:00:00:00:00;1722816906;05/08/24;00:15:06;1.003;-0.019;0.132;-0.0708603635430336;-0.0073303827084600925;-0.00855211354792118
01:00:0A:00:00:00:00;1722816907;05/08/24;00:15:07;1.003;-0.02;0.137;-0.05864306166768074;0.028099799528717995;-0.0354301817715168
01:00:0A:00:00:00:00;1722816908;05/08/24;00:15:08;1.017;-0.04;0.121;-0.06352998316287994;0.024434609338641167;-0.004886921960860491
01:00:0A:00:00:00:00;1722816909;05/08/24;00:15:09;1.01;-0.043;0.106;-0.06719517707824707;-0.013439035043120384;0.03298672288656235
01:00:0A:00:00:00:00;1722816910;05/08/24;00:15:10;0.991;-0.017;0.123;-0.06963863223791122;-0.07696902006864548;0.021991148591041565
01:00:0A:00:00:00:00;1722816911;05/08/24;00:15:11;0.983;-0.011;0.159;-0.07452555745840073;-0.028099799528717995;0.021991148591041565
01:00:0A:00:00:00:00;1722816912;05/08/24;00:15:12;1.002;-0.009;0.158;-0.05864306166768074;-0.028099799528717995;-0.042760565876960754
01:00:0A:00:00:00:00;1722816913;05/08/24;00:15:13;1.031;-0.006;0.129;-0.0757472887635231;0.042760565876960754;-0.004886921960860491
