Source;Epoch timestamp (UTC);Date;Time (UTC);Accel X (G);Accel Y (G);Accel Z (G);Gyro X (rad/s);Gyro Y (rad/s);Gyro Z (rad/s)
01:00:0A:00:00:00:00;1725494407;05/09/24;00:00:07;1.016;-0.011;0.063;-0.045204028487205505;-0.012217304669320583;0.0036651913542300463
01:00:0A:00:00:00:00;1725494408;05/09/24;00:00:08;1.016;-0.012;0.06;-0.04398229718208313;-0.010995574295520782;0.004886921960860491
01:00:0A:00:00:00:00;1725494409;05/09/24;00:00:09;1.017;-0.009;0.061;-0.042760565876960754;-0.00855211354792118;0.0036651913542300463
01:00:0A:00:00:00:00;1725494410;05/09/24;00:00:10;1.013;-0.011;0.061;-0.042760565876960754;-0.012217304669320583;0.0036651913542300463
01:00:0A:00:00:00:00;1725494411;05/09/24;00:00:11;1.015;-0.011;0.06;-0.04153883829712868;-0.012217304669320583;-0.0012217304902151227
01:00:0A:00:00:00:00;1725494412;05/09/24;00:00:12;1.016;-0.011;0.061;-0.040317103266716;-0.009773843921720982;-0.0012217304902151227
01:00:0A:00:00:00:00;1725494413;05/09/24;00:00:13;1.016;-0.013;0.062;-0.04153883829712868;-0.012217304669320583;0.0036651913542300463
01:00:0A:00:00:00:00;1725494414;05/09/24;00:00:14;1.017;-0.012;0.061;-0.040317103266716;-0.010995574295520782;0.0012217304902151227
01:00:0A:00:00:00:00;1725494415;05/09/24;00:00:15;1.017;-0.01;0.061;-0.039095375686883926;-0.00855211354792118;0.0024434609804302454
01:00:0A:00:00:00:00;1725494416;05/09/24;00:00:16;1.016;-0.012;0.062;-0.039095375686883926;-0.012217304669320583;0.0036651913542300463
01:00:0A:00:00:00:00;1725494417;05/09/24;00:00:17;1.013;-0.011;0.061;-0.03787364438176155;-0.010995574295520782;0.0
01:00:0A:00:00:00:00;1725494418;05/09/24;00:00:18;1.015;-0.011;0.06;-0.03787364438176155;-0.009773843921720982;0.0024434609804302454
01:00:0A:00:00:00:00;1725494419;05/09/24;00:00:19;1.015;-0.011;0.062;-0.03787364438176155;-0.012217304669320583;0.0024434609804302454
01:00:0A:00:00:00:00;1725494420;05/09/24;00:00:20;1.015;-0.011;0.061;-0.036651913076639175;-0.010995574295520782;-0.0012217304902151227
01:00:0A:00:00:00:00;1725494421;05/09/24;00:00:21;1.016;-0.009;0.063;-0.036651913076639175;-0.010995574295520782;0.0024434609804302454
01:00:0A:00:00:00:00;1725494422;05/09/24;00:00:22;1.016;-0.012;0.062;-0.0354301817715168;-0.009773843921720982;0.0024434609804302454
01:00:0A:00:00:00:00;1725494423;05/09/24;00:00:23;1.016;-0.011;0.062;-0.0354301817715168;-0.009773843921720982;0.0012217304902151227
01:00:0A:00:00:00:00;1725494424;05/09/24;00:00:24;1.019;-0.009;0.062;-0.0354301817715168;-0.0073303827084600925;0.0024434609804302454
01:00:0A:00:00:00:00;1725494425;05/09/24;00:00:25;1.017;-0.012;0.062;-0.03420845419168472;-0.00855211354792118;0.0024434609804302454
01:00:0A:00:00:00:00;1725494426;05/09/24;00:00:26;1.016;-0.01;0.061;-0.03298672288656235;-0.00855211354792118;0.0
01:00:0A:00:00:00:00;1725494427;05/09/24;00:00:27;1.014;-0.012;0.061;-0.03298672288656235;-0.010995574295520782;0.004886921960860491
01:00:0A:00:00:00:00;1725494428;05/09/24;00:00:28;1.013;-0.011;0.06;-0.03176499158143997;-0.014660765416920185;0.0024434609804302454
01:00:0A:00:00:00:00;1725494429;05/09/24;00:00:29;1.014;-0.009;0.061;-0.030543262138962746;-0.012217304669320583;0.0024434609804302454
01:00:0A:00:00:00:00;1725494430;05/09/24;00:00:30;1.015;-0.011;0.063;-0.03176499158143997;-0.012217304669320583;0.004886921960860491
01:00:0A:00:00:00:00;1725494431;05/09/24;00:00:31;1.016;-0.013;0.062;-0.02932153083384037;-0.010995574295520782;0.0024434609804302454
01:00:0A:00:00:00:00;1725494432;05/09/24;00:00:32;1.016;-0.01;0.061;-0.02932153083384037;-0.009773843921720982;0.0024434609804302454
01:00:0A:00:00:00:00;1725494433;05/09/24;00:00:33;1.015;-0.013;0.06;-0.02932153083384037;-0.012217304669320583;0.0073303827084600925
01:00:0A:00:00:00:00;1725494434;05/09/24;00:00:34;1.016;-0.013;0.061;-0.028099799528717995;-0.012217304669320583;0.004886921960860491
01:00:0A:00:00:00:00;1725494435;05/09/24;00:00:35;1.017;-0.009;0.06;-0.028099799528717995;-0.012217304669320583;0.0036651913542300463
01:00:0A:00:00:00:00;1725494436;05/09/24;00:00:36;1.016;-0.012;0.063;-0.028099799528717995;-0.013439035043120384;0.006108652334660292
01:00:0A:00:00:00:00;1725494437;05/09/24;00:00:37;1.015;-0.012;0.061;-0.02687807008624077;-0.010995574295520782;0.0024434609804302454
01:00:0A:00:00:00:00;1725494438;05/09/24;00:00:38;1.015;-0.011;0.061;-0.02687807008624077;-0.009773843921720982;0.0036651913542300463
01:00:0A:00:00:00:00;1725494439;05/09/24;00:00:39;1.015;-0.01;0.06;-0.02687807008624077;-0.009773843921720982;0.0073303827084600925
01:00:0A:00:00:00:00;1725494440;05/09/24;00:00:40;1.016;-0.011;0.06;-0.025656338781118393;-0.013439035043120384;0.0012217304902151227
01:00:0A:00:00:00:00;1725494441;05/09/24;00:00:41;1.016;-0.009;0.061;-0.025656338781118393;-0.013439035043120384;0.0024434609804302454
01:00:0A:00:00:00:00;1725494442;05/09/24;00:00:42;1.016;-0.012;0.06;-0.025656338781118393;-0.012217304669320583;0.004886921960860491
01:00:0A:00:00:00:00;1725494443;05/09/24;00:00:43;1.016;-0.013;0.062;-0.024434609338641167;-0.010995574295520782;0.0024434609804302454
01:00:0A:00:00:00:00;1725494444;05/09/24;00:00:44;1.016;-0.009;0.061;-0.024434609338641167;-0.009773843921720982;0.0024434609804302454
01:00:0A:00:00:00:00;1725494445;05/09/24;00:00:45;1.016;-0.011;0.061;-0.025656338781118393;-0.010995574295520782;0.004886921960860491
01:00:0A:00:00:00:00;1725494446;05/09/24;00:00:46;1.015;-0.012;0.061;-0.02321287989616394;-0.010995574295520782;0.0012217304902151227
01:00:0A:00:00:00:00;1725494447;05/09/24;00:00:47;1.015;-0.011;0.061;-0.02321287989616394;-0.012217304669320583;0.0012217304902151227
01:00:0A:00:00:00:00;1725494448;05/09/24;00:00:48;1.016;-0.012;0.062;-0.024434609338641167;-0.012217304669320583;0.006108652334660292
01:00:0A:00:00:00:00;1725494449;05/09/24;00:00:49;1.016;-0.013;0.061;-0.021991148591041565;-0.009773843921720982;0.0012217304902151227
01:00:0A:00:00:00:00;1725494450;05/09/24;00:00:50;1.016;-0.009;0.061;-0.021991148591041565;-0.009773843921720982;0.0024434609804302454
01:00:0A:00:00:00:00;1725494451;05/09/24;00:00:51;1.015;-0.009;0.061;-0.021991148591041565;-0.010995574295520782;0.004886921960860491
01:00:0A:00:00:00:00;1725494452;05/09/24;00:00:52;1.014;-0.013;0.06;-0.019547687843441963;-0.010995574295520782;-0.004886921960860491
01:00:0A:00:00:00:00;1725494453;05/09/24;00:00:53;1.016;-0.011;0.062;-0.019547687843441963;-0.013439035043120384;-0.0012217304902151227
01:00:0A:00:00:00:00;1725494454;05/09/24;00:00:54;1.017;-0.013;0.061;-0.02076941914856434;-0.013439035043120384;0.0073303827084600925
01:00:0A:00:00:00:00;1725494455;05/09/24;00:00:55;1.017;-0.013;0.061;-0.018325956538319588;-0.010995574295520782;0.0024434609804302454
01:00:0A:00:00:00:00;1725494456;05/09/24;00:00:56;1.017;-0.009;0.062;-0.01710422709584236;-0.009773843921720982;0.0
01:00:0A:00:00:00:00;1725494457;05/09/24;00:00:57;1.016;-0.011;0.061;-0.018325956538319588;-0.010995574295520782;0.006108652334660292
01:00:0A:00:00:00:00;1725494458;05/09/24;00:00:58;1.015;-0.013;0.062;-0.015882495790719986;-0.009773843921720982;0.0
01:00:0A:00:00:00:00;1725494459;05/09/24;00:00:59;1.013;-0.01;0.061;-0.014660765416920185;-0.010995574295520782;-0.0012217304902151227
01:00:0A:00:00:00:00;1725494460;05/09/24;00:01:00;1.016;-0.011;0.061;-0.01710422709584236;-0.014660765416920185;0.009773843921720982
01:00:0A:00:00:00:00;1725494461;05/09/24;00:01:01;1.017;-0.014;0.06;-0.013439035043120384;-0.010995574295520782;0.0
01:00:0A:00:00:00:00;1725494462;05/09/24;00:01:02;1.017;-0.009;0.062;-0.013439035043120384;-0.010995574295520782;0.0
01:00:0A:00:00:00:00;1725494463;05/09/24;00:01:03;1.017;-0.012;0.062;-0.015882495790719986;-0.013439035043120384;0.009773843921720982
01:00:0A:00:00:00:00;1725494464;05/09/24;00:01:04;1.016;-0.014;0.059;-0.012217304669320583;-0.009773843921720982;0.0012217304902151227
01:00:0A:00:00:00:00;1725494465;05/09/24;00:01:05;1.014;-0.009;0.061;-0.012217304669320583;-0.010995574295520782;0.0
01:00:0A:00:00:00:00;1725494466;05/09/24;00:01:06;1.016;-0.011;0.06;-0.014660765416920185;-0.014660765416920185;0.009773843921720982
01:00:0A:00:00:00:00;1725494467;05/09/24;00:01:07;1.016;-0.014;0.06;-0.012217304669320583;-0.010995574295520782;0.0012217304902151227
01:00:0A:00:00:00:00;1725494468;05/09/24;00:01:08;1.017;-0.008;0.063;-0.010995574295520782;-0.00855211354792118;-0.0036651913542300463
01:00:0A:00:00:00:00;1725494469;05/09/24;00:01:09;1.017;-0.012;0.061;-0.014660765416920185;-0.013439035043120384;0.009773843921720982
01:00:0A:00:00:00:00;1725494470;05/09/24;00:01:10;1.016;-0.015;0.059;-0.012217304669320583;-0.010995574295520782;0.004886921960860491
01:00:0A:00:00:00:00;1725494471;05/09/24;00:01:11;1.015;-0.008;0.063;-0.009773843921720982;-0.00855211354792118;-0.0012217304902151227
01:00:0A:00:00:00:00;1725494472;05/09/24;00:01:12;1.014;-0.01;0.062;-0.015882495790719986;-0.015882495790719986;0.010995574295520782
01:00:0A:00:00:00:00;1725494473;05/09/24;00:01:13;1.016;-0.015;0.059;-0.012217304669320583;-0.010995574295520782;0.0024434609804302454
01:00:0A:00:00:00:00;1725494474;05/09/24;00:01:14;1.016;-0.01;0.063;-0.010995574295520782;-0.009773843921720982;-0.0012217304902151227
01:00:0A:00:00:00:00;1725494475;05/09/24;00:01:15;1.016;-0.01;0.061;-0.015882495790719986;-0.014660765416920185;0.009773843921720982
01:00:0A:00:00:00:00;1725494476;05/09/24;00:01:16;1.015;-0.015;0.058;-0.014660765416920185;-0.010995574295520782;0.0036651913542300463
01:00:0A:00:00:00:00;1725494477;05/09/24;00:01:17;1.015;-0.009;0.063;-0.012217304669320583;-0.00855211354792118;-0.0036651913542300463
01:00:0A:00:00:00:00;1725494478;05/09/24;00:01:18;1.016;-0.01;0.062;-0.01710422709584236;-0.014660765416920185;0.00855211354792118
01:00:0A:00:00:00:00;1725494479;05/09/24;00:01:19;1.017;-0.016;0.059;-0.015882495790719986;-0.012217304669320583;0.004886921960860491
01:00:0A:00:00:00:00;1725494480;05/09/24;00:01:20;1.016;-0.01;0.062;-0.012217304669320583;-0.0073303827084600925;-0.0036651913542300463
01:00:0A:00:00:00:00;1725494481;05/09/24;00:01:21;1.016;-0.01;0.062;-0.018325956538319588;-0.015882495790719986;0.010995574295520782
01:00:0A:00:00:00:00;1725494482;05/09/24;00:01:22;1.015;-0.016;0.059;-0.015882495790719986;-0.013439035043120384;0.004886921960860491
01:00:0A:00:00:00:00;1725494483;05/09/24;00:01:23;1.015;-0.01;0.061;-0.012217304669320583;-0.0073303827084600925;-0.004886921960860491
01:00:0A:00:00:00:00;1725494483;05/09/24;00:01:23;1.016;-0.008;0.063;-0.018325956538319588;-0.01710422709584236;0.009773843921720982
01:00:0A:00:00:00:00;1725494484;05/09/24;00:01:24;1.018;-0.016;0.058;-0.015882495790719986;-0.012217304669320583;0.004886921960860491
01:00:0A:00:00:00:00;1725494485;05/09/24;00:01:25;1.017;-0.009;0.062;-0.010995574295520782;-0.006108652334660292;-0.004886921960860491
01:00:0A:00:00:00:00;1725494486;05/09/24;00:01:26;1.015;-0.009;0.064;-0.01710422709584236;-0.015882495790719986;0.009773843921720982
01:00:0A:00:00:00:00;1725494487;05/09/24;00:01:27;1.016;-0.015;0.058;-0.014660765416920185;-0.012217304669320583;0.004886921960860491
01:00:0A:00:00:00:00;1725494488;05/09/24;00:01:28;1.016;-0.009;0.063;-0.009773843921720982;-0.004886921960860491;-0.004886921960860491
01:00:0A:00:00:00:00;1725494489;05/09/24;00:01:29;1.015;-0.009;0.063;-0.015882495790719986;-0.01710422709584236;0.009773843921720982
01:00:0A:00:00:00:00;1725494490;05/09/24;00:01:30;1.015;-0.016;0.056;-0.013439035043120384;-0.013439035043120384;0.004886921960860491
01:00:0A:00:00:00:00;1725494491;05/09/24;00:01:31;1.015;-0.01;0.061;-0.00855211354792118;-0.004886921960860491;-0.006108652334660292
01:00:0A:00:00:00:00;1725494492;05/09/24;00:01:32;1.016;-0.008;0.064;-0.014660765416920185;-0.019547687843441963;0.009773843921720982
01:00:0A:00:00:00:00;1725494493;05/09/24;00:01:33;1.016;-0.016;0.057;-0.012217304669320583;-0.014660765416920185;0.004886921960860491
01:00:0A:00:00:00:00;1725494494;05/09/24;00:01:34;1.017;-0.01;0.063;-0.00855211354792118;-0.0036651913542300463;-0.004886921960860491
01:00:0A:00:00:00:00;1725494495;05/09/24;00:01:35;1.017;-0.008;0.064;-0.014660765416920185;-0.015882495790719986;0.009773843921720982
01:00:0A:00:00:00:00;1725494496;05/09/24;00:01:36;1.016;-0.016;0.057;-0.012217304669320583;-0.012217304669320583;0.004886921960860491
01:00:0A:00:00:00:00;1725494497;05/09/24;00:01:37;1.013;-0.01;0.062;-0.00855211354792118;-0.0024434609804302454;-0.006108652334660292
01:00:0A:00:00:00:00;1725494498;05/09/24;00:01:38;1.013;-0.009;0.064;-0.015882495790719986;-0.02076941914856434;0.010995574295520782
01:00:0A:00:00:00:00;1725494499;05/09/24;00:01:39;1.016;-0.016;0.057;-0.013439035043120384;-0.014660765416920185;0.0036651913542300463
01:00:0A:00:00:00:00;1725494500;05/09/24;00:01:40;1.016;-0.009;0.065;-0.009773843921720982;-0.0024434609804302454;-0.006108652334660292
01:00:0A:00:00:00:00;1725494501;05/09/24;00:01:41;1.016;-0.008;0.064;-0.01710422709584236;-0.01710422709584236;0.009773843921720982
01:00:0A:00:00:00:00;1725494502;05/09/24;00:01:42;1.015;-0.016;0.054;-0.013439035043120384;-0.012217304669320583;0.0024434609804302454
01:00:0A:00:00:00:00;1725494503;05/09/24;00:01:43;1.016;-0.009;0.062;-0.009773843921720982;-0.0024434609804302454;-0.004886921960860491
01:00:0A:00:00:00:00;1725494504;05/09/24;00:01:44;1.016;-0.009;0.066;-0.01710422709584236;-0.018325956538319588;0.00855211354792118
01:00:0A:00:00:00:00;1725494505;05/09/24;00:01:45;1.016;-0.016;0.055;-0.013439035043120384;-0.012217304669320583;0.0024434609804302454
01:00:0A:00:00:00:00;1725494506;05/09/24;00:01:46;1.016;-0.009;0.062;-0.009773843921720982;0.0012217304902151227;-0.004886921960860491
01:00:0A:00:00:00:00;1725494507;05/09/24;00:01:47;1.015;-0.01;0.064;-0.01710422709584236;-0.018325956538319588;0.009773843921720982
01:00:0A:00:00:00:00;1725494508;05/09/24;00:01:48;1.015;-0.015;0.055;-0.014660765416920185;-0.014660765416920185;0.0036651913542300463
01:00:0A:00:00:00:00;1725494509;05/09/24;00:01:49;1.015;-0.009;0.063;-0.010995574295520782;-0.0012217304902151227;-0.0036651913542300463
01:00:0A:00:00:00:00;1725494510;05/09/24;00:01:50;1.016;-0.01;0.064;-0.01710422709584236;-0.021991148591041565;0.00855211354792118
01:00:0A:00:00:00:00;1725494511;05/09/24;00:01:51;1.017;-0.017;0.055;-0.014660765416920185;-0.013439035043120384;0.0012217304902151227
01:00:0A:00:00:00:00;1725494512;05/09/24;00:01:52;1.016;-0.009;0.063;-0.010995574295520782;0.0012217304902151227;-0.0024434609804302454
01:00:0A:00:00:00:00;1725494513;05/09/24;00:01:53;1.016;-0.01;0.065;-0.018325956538319588;-0.018325956538319588;0.00855211354792118
01:00:0A:00:00:00:00;1725494514;05/09/24;00:01:54;1.016;-0.015;0.055;-0.014660765416920185;-0.014660765416920185;0.0012217304902151227
01:00:0A:00:00:00:00;1725494515;05/09/24;00:01:55;1.016;-0.009;0.063;-0.012217304669320583;0.0;-0.0012217304902151227
01:00:0A:00:00:00:00;1725494516;05/09/24;00:01:56;1.016;-0.012;0.065;-0.019547687843441963;-0.018325956538319588;0.00855211354792118
01:00:0A:00:00:00:00;1725494517;05/09/24;00:01:57;1.015;-0.014;0.054;-0.01710422709584236;-0.014660765416920185;0.0012217304902151227
01:00:0A:00:00:00:00;1725494518;05/09/24;00:01:58;1.015;-0.01;0.063;-0.014660765416920185;0.0;0.0
01:00:0A:00:00:00:00;1725494519;05/09/24;00:01:59;1.015;-0.011;0.066;-0.02076941914856434;-0.021991148591041565;0.006108652334660292
01:00:0A:00:00:00:00;1725494520;05/09/24;00:02:00;1.015;-0.013;0.056;-0.018325956538319588;-0.015882495790719986;-0.0012217304902151227
01:00:0A:00:00:00:00;1725494521;05/09/24;00:02:01;1.016;-0.009;0.062;-0.015882495790719986;0.0;-0.0012217304902151227
01:00:0A:00:00:00:00;1725494522;05/09/24;00:02:02;1.016;-0.011;0.066;-0.021991148591041565;-0.019547687843441963;0.006108652334660292
01:00:0A:00:00:00:00;1725494523;05/09/24;00:02:03;1.016;-0.013;0.055;-0.019547687843441963;-0.015882495790719986;0.0
01:00:0A:00:00:00:00;1725494524;05/09/24;00:02:04;1.016;-0.009;0.062;-0.018325956538319588;0.0012217304902151227;0.0012217304902151227
01:00:0A:00:00:00:00;1725494525;05/09/24;00:02:05;1.016;-0.011;0.065;-0.021991148591041565;-0.019547687843441963;0.006108652334660292
01:00:0A:00:00:00:00;1725494526;05/09/24;00:02:06;1.014;-0.012;0.055;-0.019547687843441963;-0.01710422709584236;-0.0012217304902151227
01:00:0A:00:00:00:00;1725494527;05/09/24;00:02:07;1.015;-0.01;0.062;-0.019547687843441963;0.0012217304902151227;0.0024434609804302454
01:00:0A:00:00:00:00;1725494528;05/09/24;00:02:08;1.016;-0.012;0.065;-0.02321287989616394;-0.018325956538319588;0.004886921960860491
01:00:0A:00:00:00:00;1725494529;05/09/24;00:02:09;1.016;-0.011;0.055;-0.02076941914856434;-0.01710422709584236;0.0
01:00:0A:00:00:00:00;1725494530;05/09/24;00:02:10;1.016;-0.01;0.062;-0.019547687843441963;-0.0012217304902151227;0.0036651913542300463
01:00:0A:00:00:00:00;1725494531;05/09/24;00:02:11;1.016;-0.013;0.066;-0.02321287989616394;-0.018325956538319588;0.004886921960860491
01:00:0A:00:00:00:00;1725494532;05/09/24;00:02:12;1.016;-0.011;0.054;-0.02076941914856434;-0.015882495790719986;-0.0012217304902151227
01:00:0A:00:00:00:00;1725494533;05/09/24;00:02:13;1.016;-0.01;0.061;-0.02076941914856434;0.0012217304902151227;0.0036651913542300463
01:00:0A:00:00:00:00;1725494534;05/09/24;00:02:14;1.016;-0.013;0.065;-0.02321287989616394;-0.018325956538319588;0.0036651913542300463
01:00:0A:00:00:00:00;1725494535;05/09/24;00:02:15;1.016;-0.012;0.056;-0.021991148591041565;-0.018325956538319588;-0.0012217304902151227
01:00:0A:00:00:00:00;1725494536;05/09/24;00:02:16;1.014;-0.01;0.062;-0.02076941914856434;0.0;0.006108652334660292
01:00:0A:00:00:00:00;1725494537;05/09/24;00:02:17;1.015;-0.013;0.066;-0.02321287989616394;-0.01710422709584236;0.0036651913542300463
01:00:0A:00:00:00:00;1725494538;05/09/24;00:02:18;1.015;-0.011;0.054;-0.021991148591041565;-0.01710422709584236;-0.0024434609804302454
01:00:0A:00:00:00:00;1725494539;05/09/24;00:02:19;1.016;-0.01;0.062;-0.021991148591041565;-0.0012217304902151227;0.004886921960860491
01:00:0A:00:00:00:00;1725494540;05/09/24;00:02:20;1.016;-0.014;0.067;-0.02321287989616394;-0.01710422709584236;0.0036651913542300463
01:00:0A:00:00:00:00;1725494541;05/09/24;00:02:21;1.016;-0.011;0.056;-0.021991148591041565;-0.018325956538319588;-0.0024434609804302454
01:00:0A:00:00:00:00;1725494542;05/09/24;00:02:22;1.016;-0.01;0.061;-0.021991148591041565;-0.0012217304902151227;0.0073303827084600925
01:00:0A:00:00:00:00;1725494543;05/09/24;00:02:23;1.015;-0.014;0.066;-0.02321287989616394;-0.01710422709584236;0.0024434609804302454
01:00:0A:00:00:00:00;1725494544;05/09/24;00:02:24;1.016;-0.01;0.056;-0.021991148591041565;-0.01710422709584236;-0.0036651913542300463
01:00:0A:00:00:00:00;1725494545;05/09/24;00:02:25;1.015;-0.01;0.061;-0.02321287989616394;-0.0012217304902151227;0.0073303827084600925
01:00:0A:00:00:00:00;1725494546;05/09/24;00:02:26;1.016;-0.015;0.066;-0.02321287989616394;-0.01710422709584236;0.0024434609804302454
01:00:0A:00:00:00:00;1725494547;05/09/24;00:02:27;1.016;-0.009;0.056;-0.021991148591041565;-0.018325956538319588;-0.0036651913542300463
01:00:0A:00:00:00:00;1725494548;05/09/24;00:02:28;1.016;-0.01;0.06;-0.024434609338641167;-0.0012217304902151227;0.009773843921720982
01:00:0A:00:00:00:00;1725494549;05/09/24;00:02:29;1.016;-0.016;0.066;-0.024434609338641167;-0.014660765416920185;0.0024434609804302454
01:00:0A:00:00:00:00;1725494550;05/09/24;00:02:30;1.015;-0.009;0.056;-0.02321287989616394;-0.018325956538319588;-0.006108652334660292
01:00:0A:00:00:00:00;1725494551;05/09/24;00:02:31;1.015;-0.01;0.06;-0.024434609338641167;-0.0024434609804302454;0.009773843921720982
01:00:0A:00:00:00:00;1725494552;05/09/24;00:02:32;1.016;-0.016;0.064;-0.024434609338641167;-0.014660765416920185;0.0012217304902151227
01:00:0A:00:00:00:00;1725494553;05/09/24;00:02:33;1.016;-0.009;0.058;-0.02321287989616394;-0.01710422709584236;-0.004886921960860491
01:00:0A:00:00:00:00;1725494554;05/09/24;00:02:34;1.016;-0.01;0.06;-0.024434609338641167;-0.0024434609804302454;0.009773843921720982
01:00:0A:00:00:00:00;1725494555;05/09/24;00:02:35;1.015;-0.016;0.066;-0.02321287989616394;-0.013439035043120384;0.0012217304902151227
01:00:0A:00:00:00:00;1725494556;05/09/24;00:02:36;1.015;-0.009;0.058;-0.021991148591041565;-0.01710422709584236;-0.006108652334660292
01:00:0A:00:00:00:00;1725494557;05/09/24;00:02:37;1.016;-0.01;0.06;-0.024434609338641167;-0.004886921960860491;0.010995574295520782
01:00:0A:00:00:00:00;1725494558;05/09/24;00:02:38;1.015;-0.016;0.066;-0.024434609338641167;-0.013439035043120384;0.0024434609804302454
01:00:0A:00:00:00:00;1725494559;05/09/24;00:02:39;1.016;-0.009;0.06;-0.021991148591041565;-0.01710422709584236;-0.006108652334660292
01:00:0A:00:00:00:00;1725494560;05/09/24;00:02:40;1.016;-0.008;0.06;-0.024434609338641167;-0.004886921960860491;0.010995574295520782
01:00:0A:00:00:00:00;1725494561;05/09/24;00:02:41;1.015;-0.015;0.064;-0.02321287989616394;-0.013439035043120384;0.0012217304902151227
01:00:0A:00:00:00:00;1725494562;05/09/24;00:02:42;1.016;-0.008;0.059;-0.02076941914856434;-0.015882495790719986;-0.0073303827084600925
01:00:0A:00:00:00:00;1725494563;05/09/24;00:02:43;1.015;-0.009;0.061;-0.02321287989616394;-0.004886921960860491;0.012217304669320583
01:00:0A:00:00:00:00;1725494564;05/09/24;00:02:44;1.016;-0.016;0.064;-0.021991148591041565;-0.012217304669320583;0.0036651913542300463
01:00:0A:00:00:00:00;1725494565;05/09/24;00:02:45;1.016;-0.009;0.06;-0.019547687843441963;-0.013439035043120384;-0.006108652334660292
01:00:0A:00:00:00:00;1725494566;05/09/24;00:02:46;1.016;-0.01;0.061;-0.02321287989616394;-0.006108652334660292;0.010995574295520782
01:00:0A:00:00:00:00;1725494567;05/09/24;00:02:47;1.016;-0.018;0.064;-0.021991148591041565;-0.012217304669320583;0.0036651913542300463
01:00:0A:00:00:00:00;1725494568;05/09/24;00:02:48;1.016;-0.009;0.059;-0.018325956538319588;-0.014660765416920185;-0.006108652334660292
01:00:0A:00:00:00:00;1725494569;05/09/24;00:02:49;1.015;-0.009;0.06;-0.02321287989616394;-0.0073303827084600925;0.010995574295520782
01:00:0A:00:00:00:00;1725494570;05/09/24;00:02:50;1.015;-0.017;0.063;-0.02076941914856434;-0.012217304669320583;0.0024434609804302454
01:00:0A:00:00:00:00;1725494571;05/09/24;00:02:51;1.016;-0.009;0.061;-0.01710422709584236;-0.014660765416920185;-0.00855211354792118
01:00:0A:00:00:00:00;1725494572;05/09/24;00:02:52;1.016;-0.01;0.061;-0.021991148591041565;-0.0073303827084600925;0.012217304669320583
01:00:0A:00:00:00:00;1725494573;05/09/24;00:02:53;1.015;-0.016;0.063;-0.019547687843441963;-0.010995574295520782;0.0036651913542300463
01:00:0A:00:00:00:00;1725494574;05/09/24;00:02:54;1.016;-0.01;0.06;-0.015882495790719986;-0.013439035043120384;-0.006108652334660292
01:00:0A:00:00:00:00;1725494575;05/09/24;00:02:55;1.016;-0.009;0.06;-0.02076941914856434;-0.00855211354792118;0.012217304669320583
01:00:0A:00:00:00:00;1725494576;05/09/24;00:02:56;1.016;-0.017;0.062;-0.018325956538319588;-0.012217304669320583;0.004886921960860491
01:00:0A:00:00:00:00;1725494577;05/09/24;00:02:57;1.015;-0.009;0.06;-0.015882495790719986;-0.013439035043120384;-0.006108652334660292
01:00:0A:00:00:00:00;1725494578;05/09/24;00:02:58;1.016;-0.008;0.061;-0.019547687843441963;-0.009773843921720982;0.010995574295520782
01:00:0A:00:00:00:00;1725494579;05/09/24;00:02:59;1.016;-0.017;0.062;-0.01710422709584236;-0.012217304669320583;0.0036651913542300463
01:00:0A:00:00:00:00;1725494580;05/09/24;00:03:00;1.016;-0.009;0.059;-0.013439035043120384;-0.012217304669320583;-0.006108652334660292
01:00:0A:00:00:00:00;1725494581;05/09/24;00:03:01;1.016;-0.009;0.06;-0.018325956538319588;-0.009773843921720982;0.009773843921720982
01:00:0A:00:00:00:00;1725494582;05/09/24;00:03:02;1.015;-0.018;0.061;-0.015882495790719986;-0.012217304669320583;0.004886921960860491
01:00:0A:00:00:00:00;1725494583;05/09/24;00:03:03;1.016;-0.01;0.061;-0.012217304669320583;-0.010995574295520782;-0.0073303827084600925
01:00:0A:00:00:00:00;1725494584;05/09/24;00:03:04;1.015;-0.009;0.061;-0.01710422709584236;-0.009773843921720982;0.010995574295520782
01:00:0A:00:00:00:00;1725494585;05/09/24;00:03:05;1.016;-0.017;0.062;-0.014660765416920185;-0.012217304669320583;0.006108652334660292
01:00:0A:00:00:00:00;1725494586;05/09/24;00:03:06;1.016;-0.011;0.061;-0.010995574295520782;-0.010995574295520782;-0.0073303827084600925
01:00:0A:00:00:00:00;1725494587;05/09/24;00:03:07;1.015;-0.008;0.061;-0.015882495790719986;-0.010995574295520782;0.009773843921720982
01:00:0A:00:00:00:00;1725494588;05/09/24;00:03:08;1.016;-0.018;0.062;-0.013439035043120384;-0.012217304669320583;0.004886921960860491
01:00:0A:00:00:00:00;1725494589;05/09/24;00:03:09;1.015;-0.01;0.06;-0.009773843921720982;-0.009773843921720982;-0.0073303827084600925
01:00:0A:00:00:00:00;1725494590;05/09/24;00:03:10;1.016;-0.009;0.062;-0.014660765416920185;-0.010995574295520782;0.009773843921720982
01:00:0A:00:00:00:00;1725494591;05/09/24;00:03:11;1.016;-0.017;0.061;-0.012217304669320583;-0.012217304669320583;0.0073303827084600925
01:00:0A:00:00:00:00;1725494592;05/09/24;00:03:12;1.016;-0.011;0.061;-0.00855211354792118;-0.009773843921720982;-0.006108652334660292
01:00:0A:00:00:00:00;1725494593;05/09/24;00:03:13;1.016;-0.008;0.063;-0.012217304669320583;-0.010995574295520782;0.00855211354792118
01:00:0A:00:00:00:00;1725494594;05/09/24;00:03:14;1.015;-0.016;0.062;-0.012217304669320583;-0.013439035043120384;0.006108652334660292
01:00:0A:00:00:00:00;1725494595;05/09/24;00:03:15;1.016;-0.011;0.062;-0.00855211354792118;-0.009773843921720982;-0.006108652334660292
01:00:0A:00:00:00:00;1725494596;05/09/24;00:03:16;1.015;-0.008;0.062;-0.012217304669320583;-0.010995574295520782;0.00855211354792118
01:00:0A:00:00:00:00;1725494597;05/09/24;00:03:17;1.016;-0.015;0.062;-0.012217304669320583;-0.013439035043120384;0.006108652334660292
01:00:0A:00:00:00:00;1725494598;05/09/24;00:03:18;1.016;-0.012;0.061;-0.00855211354792118;-0.00855211354792118;-0.0073303827084600925
01:00:0A:00:00:00:00;1725494599;05/09/24;00:03:19;1.015;-0.009;0.063;-0.013439035043120384;-0.012217304669320583;0.009773843921720982
01:00:0A:00:00:00:00;1725494600;05/09/24;00:03:20;1.016;-0.016;0.061;-0.013439035043120384;-0.013439035043120384;0.00855211354792118
01:00:0A:00:00:00:00;1725494601;05/09/24;00:03:21;1.016;-0.012;0.06;-0.009773843921720982;-0.00855211354792118;-0.006108652334660292
01:00:0A:00:00:00:00;1725494602;05/09/24;00:03:22;1.015;-0.008;0.063;-0.013439035043120384;-0.010995574295520782;0.0073303827084600925
01:00:0A:00:00:00:00;1725494603;05/09/24;00:03:23;1.016;-0.016;0.061;-0.014660765416920185;-0.014660765416920185;0.0073303827084600925
01:00:0A:00:00:00:00;1725494604;05/09/24;00:03:24;1.016;-0.011;0.06;-0.009773843921720982;-0.00855211354792118;-0.004886921960860491
01:00:0A:00:00:00:00;1725494605;05/09/24;00:03:25;1.016;-0.007;0.063;-0.014660765416920185;-0.010995574295520782;0.006108652334660292
01:00:0A:00:00:00:00;1725494606;05/09/24;00:03:26;1.016;-0.015;0.06;-0.014660765416920185;-0.014660765416920185;0.0073303827084600925
01:00:0A:00:00:00:00;1725494607;05/09/24;00:03:27;1.016;-0.011;0.06;-0.009773843921720982;-0.00855211354792118;-0.004886921960860491
01:00:0A:00:00:00:00;1725494608;05/09/24;00:03:28;1.015;-0.007;0.063;-0.014660765416920185;-0.010995574295520782;0.006108652334660292
01:00:0A:00:00:00:00;1725494609;05/09/24;00:03:29;1.016;-0.014;0.059;-0.014660765416920185;-0.015882495790719986;0.0073303827084600925
01:00:0A:00:00:00:00;1725494610;05/09/24;00:03:30;1.015;-0.012;0.061;-0.009773843921720982;-0.0073303827084600925;-0.004886921960860491
01:00:0A:00:00:00:00;1725494611;05/09/24;00:03:31;1.015;-0.008;0.063;-0.014660765416920185;-0.012217304669320583;0.0073303827084600925
01:00:0A:00:00:00:00;1725494612;05/09/24;00:03:32;1.015;-0.015;0.06;-0.015882495790719986;-0.015882495790719986;0.00855211354792118
01:00:0A:00:00:00:00;1725494613;05/09/24;00:03:33;1.016;-0.012;0.06;-0.009773843921720982;-0.006108652334660292;-0.006108652334660292
01:00:0A:00:00:00:00;1725494614;05/09/24;00:03:34;1.016;-0.007;0.064;-0.013439035043120384;-0.010995574295520782;0.004886921960860491
01:00:0A:00:00:00:00;1725494615;05/09/24;00:03:35;1.015;-0.015;0.059;-0.014660765416920185;-0.015882495790719986;0.0073303827084600925
01:00:0A:00:00:00:00;1725494616;05/09/24;00:03:36;1.016;-0.012;0.06;-0.009773843921720982;-0.0073303827084600925;-0.0036651913542300463
01:00:0A:00:00:00:00;1725494617;05/09/24;00:03:37;1.015;-0.009;0.063;-0.013439035043120384;-0.010995574295520782;0.006108652334660292
01:00:0A:00:00:00:00;1725494618;05/09/24;00:03:38;1.016;-0.014;0.06;-0.014660765416920185;-0.015882495790719986;0.0073303827084600925
01:00:0A:00:00:00:00;1725494619;05/09/24;00:03:39;1.016;-0.012;0.059;-0.009773843921720982;-0.006108652334660292;-0.0036651913542300463
01:00:0A:00:00:00:00;1725494620;05/09/24;00:03:40;1.016;-0.009;0.064;-0.013439035043120384;-0.010995574295520782;0.004886921960860491
01:00:0A:00:00:00:00;1725494621;05/09/24;00:03:41;1.015;-0.014;0.06;-0.014660765416920185;-0.01710422709584236;0.00855211354792118
01:00:0A:00:00:00:00;1725494622;05/09/24;00:03:42;1.016;-0.011;0.06;-0.009773843921720982;-0.0073303827084600925;-0.0036651913542300463
01:00:0A:00:00:00:00;1725494623;05/09/24;00:03:43;1.015;-0.008;0.065;-0.013439035043120384;-0.009773843921720982;0.0036651913542300463
01:00:0A:00:00:00:00;1725494624;05/09/24;00:03:44;1.016;-0.014;0.06;-0.014660765416920185;-0.01710422709584236;0.0073303827084600925
01:00:0A:00:00:00:00;1725494625;05/09/24;00:03:45;1.016;-0.012;0.059;-0.010995574295520782;-0.006108652334660292;-0.0036651913542300463
01:00:0A:00:00:00:00;1725494626;05/09/24;00:03:46;1.016;-0.008;0.064;-0.014660765416920185;-0.010995574295520782;0.0036651913542300463
01:00:0A:00:00:00:00;1725494627;05/09/24;00:03:47;1.015;-0.013;0.06;-0.015882495790719986;-0.018325956538319588;0.0073303827084600925
01:00:0A:00:00:00:00;1725494628;05/09/24;00:03:48;1.016;-0.012;0.059;-0.010995574295520782;-0.006108652334660292;-0.0036651913542300463
01:00:0A:00:00:00:00;1725494629;05/09/24;00:03:49;1.016;-0.009;0.065;-0.014660765416920185;-0.00855211354792118;0.0036651913542300463
01:00:0A:00:00:00:00;1725494630;05/09/24;00:03:50;1.016;-0.014;0.06;-0.01710422709584236;-0.018325956538319588;0.0073303827084600925
01:00:0A:00:00:00:00;1725494631;05/09/24;00:03:51;1.016;-0.013;0.058;-0.012217304669320583;-0.0073303827084600925;-0.0024434609804302454
01:00:0A:00:00:00:00;1725494632;05/09/24;00:03:52;1.016;-0.008;0.066;-0.014660765416920185;-0.00855211354792118;0.0024434609804302454
01:00:0A:00:00:00:00;1725494633;05/09/24;00:03:53;1.016;-0.013;0.061;-0.01710422709584236;-0.018325956538319588;0.006108652334660292
01:00:0A:00:00:00:00;1725494634;05/09/24;00:03:54;1.015;-0.013;0.059;-0.013439035043120384;-0.006108652334660292;-0.0024434609804302454
01:00:0A:00:00:00:00;1725494635;05/09/24;00:03:55;1.016;-0.009;0.066;-0.015882495790719986;-0.00855211354792118;0.0036651913542300463
01:00:0A:00:00:00:00;1725494636;05/09/24;00:03:56;1.016;-0.013;0.062;-0.018325956538319588;-0.018325956538319588;0.006108652334660292
01:00:0A:00:00:00:00;1725494637;05/09/24;00:03:57;1.017;-0.012;0.059;-0.014660765416920185;-0.006108652334660292;-0.0024434609804302454
01:00:0A:00:00:00:00;1725494638;05/09/24;00:03:58;1.015;-0.009;0.065;-0.01710422709584236;-0.00855211354792118;0.0024434609804302454
01:00:0A:00:00:00:00;1725494639;05/09/24;00:03:59;1.016;-0.012;0.061;-0.019547687843441963;-0.019547687843441963;0.006108652334660292
01:00:0A:00:00:00:00;1725494640;05/09/24;00:04:00;1.016;-0.012;0.059;-0.015882495790719986;-0.006108652334660292;-0.0024434609804302454
01:00:0A:00:00:00:00;1725494641;05/09/24;00:04:01;1.015;-0.008;0.065;-0.018325956538319588;-0.0073303827084600925;0.0024434609804302454
01:00:0A:00:00:00:00;1725494642;05/09/24;00:04:02;1.016;-0.014;0.06;-0.02076941914856434;-0.019547687843441963;0.004886921960860491
01:00:0A:00:00:00:00;1725494643;05/09/24;00:04:03;1.016;-0.012;0.057;-0.01710422709584236;-0.0073303827084600925;-0.0012217304902151227
01:00:0A:00:00:00:00;1725494644;05/09/24;00:04:04;1.016;-0.009;0.066;-0.018325956538319588;-0.0073303827084600925;0.0036651913542300463
01:00:0A:00:00:00:00;1725494645;05/09/24;00:04:05;1.016;-0.013;0.06;-0.02076941914856434;-0.018325956538319588;0.004886921960860491
01:00:0A:00:00:00:00;1725494646;05/09/24;00:04:06;1.016;-0.011;0.058;-0.01710422709584236;-0.006108652334660292;0.0
01:00:0A:00:00:00:00;1725494647;05/09/24;00:04:07;1.016;-0.01;0.066;-0.018325956538319588;-0.0073303827084600925;0.004886921960860491
01:00:0A:00:00:00:00;1725494648;05/09/24;00:04:08;1.016;-0.013;0.061;-0.02076941914856434;-0.019547687843441963;0.004886921960860491
01:00:0A:00:00:00:00;1725494649;05/09/24;00:04:09;1.015;-0.012;0.059;-0.01710422709584236;-0.006108652334660292;0.0
01:00:0A:00:00:00:00;1725494650;05/09/24;00:04:10;1.016;-0.01;0.065;-0.018325956538319588;-0.006108652334660292;0.0036651913542300463
01:00:0A:00:00:00:00;1725494651;05/09/24;00:04:11;1.015;-0.012;0.061;-0.019547687843441963;-0.02076941914856434;0.0036651913542300463
01:00:0A:00:00:00:00;1725494652;05/09/24;00:04:12;1.016;-0.012;0.057;-0.01710422709584236;-0.0073303827084600925;0.0012217304902151227
01:00:0A:00:00:00:00;1725494653;05/09/24;00:04:13;1.015;-0.011;0.065;-0.01710422709584236;-0.006108652334660292;0.004886921960860491
01:00:0A:00:00:00:00;1725494654;05/09/24;00:04:14;1.016;-0.012;0.061;-0.019547687843441963;-0.019547687843441963;0.0036651913542300463
01:00:0A:00:00:00:00;1725494655;05/09/24;00:04:15;1.016;-0.011;0.058;-0.015882495790719986;-0.006108652334660292;0.0012217304902151227
01:00:0A:00:00:00:00;1725494656;05/09/24;00:04:16;1.016;-0.011;0.065;-0.01710422709584236;-0.006108652334660292;0.004886921960860491
01:00:0A:00:00:00:00;1725494657;05/09/24;00:04:17;1.016;-0.013;0.062;-0.018325956538319588;-0.019547687843441963;0.0024434609804302454
01:00:0A:00:00:00:00;1725494658;05/09/24;00:04:18;1.016;-0.01;0.057;-0.015882495790719986;-0.00855211354792118;0.0012217304902151227
01:00:0A:00:00:00:00;1725494659;05/09/24;00:04:19;1.016;-0.011;0.065;-0.015882495790719986;-0.004886921960860491;0.004886921960860491
01:00:0A:00:00:00:00;1725494660;05/09/24;00:04:20;1.015;-0.013;0.061;-0.018325956538319588;-0.019547687843441963;0.0024434609804302454
01:00:0A:00:00:00:00;1725494661;05/09/24;00:04:21;1.016;-0.011;0.057;-0.015882495790719986;-0.0073303827084600925;0.0012217304902151227
01:00:0A:00:00:00:00;1725494662;05/09/24;00:04:22;1.016;-0.011;0.064;-0.01710422709584236;-0.006108652334660292;0.004886921960860491
01:00:0A:00:00:00:00;1725494663;05/09/24;00:04:23;1.014;-0.013;0.062;-0.01710422709584236;-0.02076941914856434;0.0012217304902151227
01:00:0A:00:00:00:00;1725494664;05/09/24;00:04:24;1.016;-0.01;0.057;-0.015882495790719986;-0.0073303827084600925;0.0024434609804302454
01:00:0A:00:00:00:00;1725494665;05/09/24;00:04:25;1.016;-0.012;0.064;-0.015882495790719986;-0.004886921960860491;0.004886921960860491
01:00:0A:00:00:00:00;1725494666;05/09/24;00:04:26;1.016;-0.012;0.062;-0.01710422709584236;-0.019547687843441963;0.0012217304902151227
01:00:0A:00:00:00:00;1725494667;05/09/24;00:04:27;1.016;-0.011;0.057;-0.015882495790719986;-0.00855211354792118;0.0012217304902151227
01:00:0A:00:00:00:00;1725494668;05/09/24;00:04:28;1.016;-0.012;0.064;-0.015882495790719986;-0.004886921960860491;0.006108652334660292
01:00:0A:00:00:00:00;1725494669;05/09/24;00:04:29;1.016;-0.013;0.062;-0.01710422709584236;-0.019547687843441963;0.0012217304902151227
01:00:0A:00:00:00:00;1725494670;05/09/24;00:04:30;1.016;-0.01;0.056;-0.015882495790719986;-0.009773843921720982;0.0024434609804302454
01:00:0A:00:00:00:00;1725494671;05/09/24;00:04:31;1.015;-0.011;0.065;-0.01710422709584236;-0.004886921960860491;0.006108652334660292
01:00:0A:00:00:00:00;1725494672;05/09/24;00:04:32;1.016;-0.013;0.061;-0.01710422709584236;-0.018325956538319588;0.0
01:00:0A:00:00:00:00;1725494673;05/09/24;00:04:33;1.016;-0.01;0.057;-0.015882495790719986;-0.010995574295520782;0.0024434609804302454
01:00:0A:00:00:00:00;1725494674;05/09/24;00:04:34;1.016;-0.012;0.065;-0.01710422709584236;-0.004886921960860491;0.006108652334660292
01:00:0A:00:00:00:00;1725494675;05/09/24;00:04:35;1.016;-0.012;0.063;-0.01710422709584236;-0.018325956538319588;0.0
01:00:0A:00:00:00:00;1725494676;05/09/24;00:04:36;1.016;-0.01;0.056;-0.015882495790719986;-0.009773843921720982;0.0024434609804302454
01:00:0A:00:00:00:00;1725494677;05/09/24;00:04:37;1.016;-0.012;0.063;-0.01710422709584236;-0.004886921960860491;0.0073303827084600925
01:00:0A:00:00:00:00;1725494678;05/09/24;00:04:38;1.015;-0.013;0.063;-0.015882495790719986;-0.018325956538319588;-0.0012217304902151227
01:00:0A:00:00:00:00;1725494679;05/09/24;00:04:39;1.016;-0.01;0.058;-0.015882495790719986;-0.010995574295520782;0.0012217304902151227
01:00:0A:00:00:00:00;1725494680;05/09/24;00:04:40;1.016;-0.012;0.064;-0.015882495790719986;-0.004886921960860491;0.0073303827084600925
01:00:0A:00:00:00:00;1725494681;05/09/24;00:04:41;1.016;-0.013;0.063;-0.014660765416920185;-0.01710422709584236;-0.0012217304902151227
01:00:0A:00:00:00:00;1725494682;05/09/24;00:04:42;1.016;-0.008;0.057;-0.014660765416920185;-0.012217304669320583;0.0012217304902151227
01:00:0A:00:00:00:00;1725494683;05/09/24;00:04:43;1.016;-0.013;0.063;-0.014660765416920185;-0.006108652334660292;0.0073303827084600925
01:00:0A:00:00:00:00;1725494684;05/09/24;00:04:44;1.016;-0.013;0.063;-0.013439035043120384;-0.01710422709584236;-0.0012217304902151227
01:00:0A:00:00:00:00;1725494685;05/09/24;00:04:45;1.016;-0.008;0.057;-0.012217304669320583;-0.010995574295520782;0.0012217304902151227
01:00:0A:00:00:00:00;1725494686;05/09/24;00:04:46;1.016;-0.012;0.063;-0.012217304669320583;-0.006108652334660292;0.00855211354792118
01:00:0A:00:00:00:00;1725494687;05/09/24;00:04:47;1.016;-0.014;0.062;-0.010995574295520782;-0.01710422709584236;-0.0012217304902151227
01:00:0A:00:00:00:00;1725494688;05/09/24;00:04:48;1.016;-0.009;0.058;-0.010995574295520782;-0.012217304669320583;0.0012217304902151227
01:00:0A:00:00:00:00;1725494689;05/09/24;00:04:49;1.016;-0.013;0.063;-0.012217304669320583;-0.006108652334660292;0.00855211354792118
01:00:0A:00:00:00:00;1725494690;05/09/24;00:04:50;1.016;-0.013;0.062;-0.009773843921720982;-0.01710422709584236;-0.0012217304902151227
01:00:0A:00:00:00:00;1725494691;05/09/24;00:04:51;1.016;-0.009;0.059;-0.009773843921720982;-0.012217304669320583;0.0
01:00:0A:00:00:00:00;1725494692;05/09/24;00:04:52;1.016;-0.014;0.063;-0.010995574295520782;-0.006108652334660292;0.00855211354792118
01:00:0A:00:00:00:00;1725494693;05/09/24;00:04:53;1.016;-0.014;0.063;-0.00855211354792118;-0.015882495790719986;-0.0012217304902151227
01:00:0A:00:00:00:00;1725494694;05/09/24;00:04:54;1.016;-0.008;0.059;-0.00855211354792118;-0.012217304669320583;0.0
01:00:0A:00:00:00:00;1725494695;05/09/24;00:04:55;1.015;-0.013;0.061;-0.009773843921720982;-0.006108652334660292;0.00855211354792118
01:00:0A:00:00:00:00;1725494696;05/09/24;00:04:56;1.015;-0.013;0.062;-0.0073303827084600925;-0.015882495790719986;-0.0012217304902151227
01:00:0A:00:00:00:00;1725494697;05/09/24;00:04:57;1.016;-0.008;0.058;-0.0073303827084600925;-0.012217304669320583;0.0
01:00:0A:00:00:00:00;1725494698;05/09/24;00:04:58;1.016;-0.012;0.062;-0.00855211354792118;-0.0073303827084600925;0.00855211354792118
01:00:0A:00:00:00:00;1725494699;05/09/24;00:04:59;1.016;-0.014;0.063;-0.006108652334660292;-0.014660765416920185;-0.0012217304902151227
01:00:0A:00:00:00:00;1725494700;05/09/24;00:05:00;1.016;-0.009;0.059;-0.006108652334660292;-0.012217304669320583;0.0
01:00:0A:00:00:00:00;1725494701;05/09/24;00:05:01;1.016;-0.012;0.062;-0.0073303827084600925;-0.0073303827084600925;0.00855211354792118
01:00:0A:00:00:00:00;1725494702;05/09/24;00:05:02;1.015;-0.014;0.063;-0.006108652334660292;-0.014660765416920185;-0.0012217304902151227
01:00:0A:00:00:00:00;1725494703;05/09/24;00:05:03;1.016;-0.008;0.059;-0.004886921960860491;-0.013439035043120384;0.0
01:00:0A:00:00:00:00;1725494704;05/09/24;00:05:04;1.016;-0.012;0.062;-0.006108652334660292;-0.0073303827084600925;0.00855211354792118
01:00:0A:00:00:00:00;1725494705;05/09/24;00:05:05;1.016;-0.014;0.064;-0.004886921960860491;-0.014660765416920185;0.0
01:00:0A:00:00:00:00;1725494706;05/09/24;00:05:06;1.016;-0.008;0.059;-0.004886921960860491;-0.013439035043120384;0.0
01:00:0A:00:00:00:00;1725494707;05/09/24;00:05:07;1.016;-0.011;0.061;-0.006108652334660292;-0.0073303827084600925;0.009773843921720982
01:00:0A:00:00:00:00;1725494708;05/09/24;00:05:08;1.016;-0.014;0.063;-0.004886921960860491;-0.013439035043120384;0.0
01:00:0A:00:00:00:00;1725494709;05/09/24;00:05:09;1.015;-0.009;0.06;-0.004886921960860491;-0.013439035043120384;0.0
01:00:0A:00:00:00:00;1725494710;05/09/24;00:05:10;1.015;-0.012;0.062;-0.006108652334660292;-0.00855211354792118;0.00855211354792118
01:00:0A:00:00:00:00;1725494711;05/09/24;00:05:11;1.016;-0.015;0.063;-0.0036651913542300463;-0.012217304669320583;0.0012217304902151227
01:00:0A:00:00:00:00;1725494712;05/09/24;00:05:12;1.016;-0.01;0.059;-0.0036651913542300463;-0.013439035043120384;0.0
01:00:0A:00:00:00:00;1725494713;05/09/24;00:05:13;1.015;-0.012;0.061;-0.006108652334660292;-0.00855211354792118;0.00855211354792118
01:00:0A:00:00:00:00;1725494714;05/09/24;00:05:14;1.015;-0.015;0.063;-0.0036651913542300463;-0.013439035043120384;0.0
01:00:0A:00:00:00:00;1725494715;05/09/24;00:05:15;1.016;-0.008;0.06;-0.0036651913542300463;-0.013439035043120384;-0.0012217304902151227
01:00:0A:00:00:00:00;1725494716;05/09/24;00:05:16;1.016;-0.012;0.061;-0.006108652334660292;-0.00855211354792118;0.00855211354792118
01:00:0A:00:00:00:00;1725494717;05/09/24;00:05:17;1.015;-0.014;0.063;-0.0036651913542300463;-0.012217304669320583;0.0
01:00:0A:00:00:00:00;1725494718;05/09/24;00:05:18;1.015;-0.009;0.06;-0.0036651913542300463;-0.013439035043120384;-0.0012217304902151227
01:00:0A:00:00:00:00;1725494719;05/09/24;00:05:19;1.016;-0.011;0.06;-0.004886921960860491;-0.00855211354792118;0.00855211354792118
01:00:0A:00:00:00:00;1725494720;05/09/24;00:05:20;1.016;-0.014;0.062;-0.0036651913542300463;-0.012217304669320583;0.0024434609804302454
01:00:0A:00:00:00:00;1725494721;05/09/24;00:05:21;1.016;-0.009;0.061;-0.0036651913542300463;-0.013439035043120384;0.0
01:00:0A:00:00:00:00;1725494722;05/09/24;00:05:22;1.016;-0.011;0.061;-0.006108652334660292;-0.00855211354792118;0.00855211354792118
01:00:0A:00:00:00:00;1725494723;05/09/24;00:05:23;1.016;-0.014;0.062;-0.004886921960860491;-0.012217304669320583;0.0012217304902151227
01:00:0A:00:00:00:00;1725494724;05/09/24;00:05:24;1.015;-0.008;0.06;-0.0036651913542300463;-0.013439035043120384;-0.0012217304902151227
01:00:0A:00:00:00:00;1725494725;05/09/24;00:05:25;1.016;-0.01;0.061;-0.0073303827084600925;-0.00855211354792118;0.00855211354792118
01:00:0A:00:00:00:00;1725494726;05/09/24;00:05:26;1.015;-0.014;0.063;-0.004886921960860491;-0.012217304669320583;0.0024434609804302454
01:00:0A:00:00:00:00;1725494727;05/09/24;00:05:27;1.015;-0.009;0.062;-0.004886921960860491;-0.013439035043120384;-0.0012217304902151227
01:00:0A:00:00:00:00;1725494728;05/09/24;00:05:28;1.016;-0.011;0.06;-0.0073303827084600925;-0.00855211354792118;0.00855211354792118
01:00:0A:00:00:00:00;1725494729;05/09/24;00:05:29;1.016;-0.014;0.062;-0.006108652334660292;-0.012217304669320583;0.0024434609804302454
01:00:0A:00:00:00:00;1725494730;05/09/24;00:05:30;1.016;-0.009;0.061;-0.004886921960860491;-0.013439035043120384;-0.0024434609804302454
01:00:0A:00:00:00:00;1725494731;05/09/24;00:05:31;1.016;-0.011;0.06;-0.0073303827084600925;-0.009773843921720982;0.00855211354792118
01:00:0A:00:00:00:00;1725494732;05/09/24;00:05:32;1.017;-0.015;0.063;-0.006108652334660292;-0.010995574295520782;0.0024434609804302454
01:00:0A:00:00:00:00;1725494733;05/09/24;00:05:33;1.016;-0.009;0.06;-0.004886921960860491;-0.012217304669320583;-0.0024434609804302454
01:00:0A:00:00:00:00;1725494734;05/09/24;00:05:34;1.016;-0.01;0.061;-0.0073303827084600925;-0.009773843921720982;0.0073303827084600925
01:00:0A:00:00:00:00;1725494735;05/09/24;00:05:35;1.015;-0.015;0.062;-0.006108652334660292;-0.010995574295520782;0.0024434609804302454
01:00:0A:00:00:00:00;1725494736;05/09/24;00:05:36;1.016;-0.011;0.061;-0.004886921960860491;-0.013439035043120384;-0.0012217304902151227
01:00:0A:00:00:00:00;1725494737;05/09/24;00:05:37;1.016;-0.009;0.061;-0.00855211354792118;-0.009773843921720982;0.00855211354792118
01:00:0A:00:00:00:00;1725494738;05/09/24;00:05:38;1.016;-0.014;0.062;-0.0073303827084600925;-0.010995574295520782;0.0036651913542300463
01:00:0A:00:00:00:00;1725494739;05/09/24;00:05:39;1.015;-0.01;0.061;-0.006108652334660292;-0.012217304669320583;-0.0024434609804302454
01:00:0A:00:00:00:00;1725494740;05/09/24;00:05:40;1.016;-0.011;0.062;-0.00855211354792118;-0.009773843921720982;0.00855211354792118
01:00:0A:00:00:00:00;1725494741;05/09/24;00:05:41;1.016;-0.015;0.062;-0.0073303827084600925;-0.010995574295520782;0.0024434609804302454
01:00:0A:00:00:00:00;1725494742;05/09/24;00:05:42;1.015;-0.01;0.061;-0.006108652334660292;-0.012217304669320583;-0.0024434609804302454
01:00:0A:00:00:00:00;1725494743;05/09/24;00:05:43;1.015;-0.01;0.061;-0.00855211354792118;-0.009773843921720982;0.00855211354792118
01:00:0A:00:00:00:00;1725494744;05/09/24;00:05:44;1.016;-0.013;0.063;-0.0073303827084600925;-0.010995574295520782;0.0036651913542300463
01:00:0A:00:00:00:00;1725494745;05/09/24;00:05:45;1.016;-0.011;0.061;-0.006108652334660292;-0.012217304669320583;-0.0024434609804302454
01:00:0A:00:00:00:00;1725494746;05/09/24;00:05:46;1.016;-0.009;0.06;-0.00855211354792118;-0.009773843921720982;0.0073303827084600925
01:00:0A:00:00:00:00;1725494747;05/09/24;00:05:47;1.016;-0.014;0.063;-0.0073303827084600925;-0.010995574295520782;0.004886921960860491
01:00:0A:00:00:00:00;1725494748;05/09/24;00:05:48;1.016;-0.01;0.06;-0.006108652334660292;-0.012217304669320583;-0.0024434609804302454
01:00:0A:00:00:00:00;1725494749;05/09/24;00:05:49;1.015;-0.01;0.061;-0.00855211354792118;-0.010995574295520782;0.0073303827084600925
01:00:0A:00:00:00:00;1725494750;05/09/24;00:05:50;1.016;-0.013;0.062;-0.0073303827084600925;-0.010995574295520782;0.0036651913542300463
01:00:0A:00:00:00:00;1725494751;05/09/24;00:05:51;1.016;-0.01;0.06;-0.004886921960860491;-0.012217304669320583;-0.0024434609804302454
01:00:0A:00:00:00:00;1725494752;05/09/24;00:05:52;1.016;-0.01;0.061;-0.00855211354792118;-0.010995574295520782;0.0073303827084600925
01:00:0A:00:00:00:00;1725494753;05/09/24;00:05:53;1.015;-0.013;0.062;-0.0073303827084600925;-0.010995574295520782;0.004886921960860491
01:00:0A:00:00:00:00;1725494754;05/09/24;00:05:54;1.016;-0.011;0.06;-0.004886921960860491;-0.010995574295520782;-0.0024434609804302454
01:00:0A:00:00:00:00;1725494755;05/09/24;00:05:55;1.016;-0.009;0.061;-0.00855211354792118;-0.010995574295520782;0.0073303827084600925
01:00:0A:00:00:00:00;1725494756;05/09/24;00:05:56;1.016;-0.013;0.061;-0.0073303827084600925;-0.010995574295520782;0.006108652334660292
01:00:0A:00:00:00:00;1725494757;05/09/24;00:05:57;1.016;-0.011;0.06;-0.004886921960860491;-0.010995574295520782;-0.0024434609804302454
01:00:0A:00:00:00:00;1725494758;05/09/24;00:05:58;1.015;-0.009;0.063;-0.0073303827084600925;-0.010995574295520782;0.0073303827084600925
01:00:0A:00:00:00:00;1725494759;05/09/24;00:05:59;1.016;-0.015;0.06;-0.0073303827084600925;-0.010995574295520782;0.004886921960860491
01:00:0A:00:00:00:00;1725494760;05/09/24;00:06:00;1.016;-0.011;0.061;-0.004886921960860491;-0.010995574295520782;-0.0024434609804302454
01:00:0A:00:00:00:00;1725494761;05/09/24;00:06:01;1.016;-0.008;0.061;-0.0073303827084600925;-0.010995574295520782;0.006108652334660292
01:00:0A:00:00:00:00;1725494762;05/09/24;00:06:02;1.016;-0.014;0.062;-0.006108652334660292;-0.012217304669320583;0.006108652334660292
01:00:0A:00:00:00:00;1725494763;05/09/24;00:06:03;1.016;-0.01;0.061;-0.0036651913542300463;-0.010995574295520782;-0.0012217304902151227
01:00:0A:00:00:00:00;1725494764;05/09/24;00:06:04;1.016;-0.008;0.061;-0.006108652334660292;-0.010995574295520782;0.006108652334660292
01:00:0A:00:00:00:00;1725494765;05/09/24;00:06:05;1.016;-0.014;0.06;-0.006108652334660292;-0.012217304669320583;0.006108652334660292
01:00:0A:00:00:00:00;1725494766;05/09/24;00:06:06;1.016;-0.01;0.061;-0.0036651913542300463;-0.010995574295520782;-0.0024434609804302454
01:00:0A:00:00:00:00;1725494767;05/09/24;00:06:07;1.016;-0.009;0.061;-0.006108652334660292;-0.012217304669320583;0.006108652334660292
01:00:0A:00:00:00:00;1725494768;05/09/24;00:06:08;1.016;-0.013;0.06;-0.004886921960860491;-0.012217304669320583;0.006108652334660292
01:00:0A:00:00:00:00;1725494769;05/09/24;00:06:09;1.016;-0.01;0.061;-0.0024434609804302454;-0.009773843921720982;-0.0024434609804302454
01:00:0A:00:00:00:00;1725494770;05/09/24;00:06:10;1.016;-0.009;0.062;-0.004886921960860491;-0.012217304669320583;0.006108652334660292
01:00:0A:00:00:00:00;1725494771;05/09/24;00:06:11;1.016;-0.013;0.062;-0.004886921960860491;-0.012217304669320583;0.006108652334660292
01:00:0A:00:00:00:00;1725494772;05/09/24;00:06:12;1.016;-0.012;0.062;-0.0024434609804302454;-0.009773843921720982;-0.0024434609804302454
01:00:0A:00:00:00:00;1725494773;05/09/24;00:06:13;1.015;-0.008;0.061;-0.004886921960860491;-0.012217304669320583;0.004886921960860491
01:00:0A:00:00:00:00;1725494774;05/09/24;00:06:14;1.016;-0.013;0.061;-0.004886921960860491;-0.012217304669320583;0.006108652334660292
01:00:0A:00:00:00:00;1725494775;05/09/24;00:06:15;1.015;-0.011;0.062;-0.0012217304902151227;-0.009773843921720982;-0.0012217304902151227
01:00:0A:00:00:00:00;1725494776;05/09/24;00:06:16;1.015;-0.009;0.062;-0.0036651913542300463;-0.012217304669320583;0.004886921960860491
01:00:0A:00:00:00:00;1725494777;05/09/24;00:06:17;1.016;-0.014;0.061;-0.0036651913542300463;-0.012217304669320583;0.006108652334660292
01:00:0A:00:00:00:00;1725494778;05/09/24;00:06:18;1.016;-0.012;0.062;-0.0012217304902151227;-0.009773843921720982;-0.0012217304902151227
01:00:0A:00:00:00:00;1725494779;05/09/24;00:06:19;1.015;-0.01;0.062;-0.0036651913542300463;-0.012217304669320583;0.004886921960860491
01:00:0A:00:00:00:00;1725494780;05/09/24;00:06:20;1.015;-0.013;0.061;-0.0036651913542300463;-0.012217304669320583;0.0073303827084600925
01:00:0A:00:00:00:00;1725494781;05/09/24;00:06:21;1.016;-0.012;0.06;-0.0012217304902151227;-0.009773843921720982;-0.0012217304902151227
01:00:0A:00:00:00:00;1725494782;05/09/24;00:06:22;1.015;-0.008;0.062;-0.0024434609804302454;-0.010995574295520782;0.004886921960860491
01:00:0A:00:00:00:00;1725494783;05/09/24;00:06:23;1.016;-0.013;0.061;-0.0036651913542300463;-0.013439035043120384;0.006108652334660292
01:00:0A:00:00:00:00;1725494784;05/09/24;00:06:24;1.016;-0.012;0.061;0.0;-0.009773843921720982;-0.0012217304902151227
01:00:0A:00:00:00:00;1725494785;05/09/24;00:06:25;1.016;-0.009;0.063;-0.0024434609804302454;-0.012217304669320583;0.0036651913542300463
01:00:0A:00:00:00:00;1725494786;05/09/24;00:06:26;1.016;-0.013;0.06;-0.0024434609804302454;-0.012217304669320583;0.006108652334660292
01:00:0A:00:00:00:00;1725494787;05/09/24;00:06:27;1.015;-0.014;0.062;0.0;-0.00855211354792118;-0.0012217304902151227
01:00:0A:00:00:00:00;1725494788;05/09/24;00:06:28;1.013;-0.01;0.063;-0.0024434609804302454;-0.009773843921720982;0.010995574295520782
01:00:0A:00:00:00:00;1725494789;05/09/24;00:06:29;1.016;-0.015;0.059;-0.0012217304902151227;-0.00855211354792118;0.009773843921720982
01:00:0A:00:00:00:00;1725494790;05/09/24;00:06:30;1.021;-0.008;0.06;-0.0012217304902151227;-0.014660765416920185;0.012217304669320583
01:00:0A:00:00:00:00;1725494791;05/09/24;00:06:31;1.017;0.0;0.063;-0.0036651913542300463;-0.01710422709584236;0.004886921960860491
01:00:0A:00:00:00:00;1725494792;05/09/24;00:06:32;1.005;-0.008;0.064;-0.0012217304902151227;-0.0073303827084600925;-0.013439035043120384
01:00:0A:00:00:00:00;1725494793;05/09/24;00:06:33;1.002;-0.016;0.063;0.0012217304902151227;-0.004886921960860491;-0.021991148591041565
01:00:0A:00:00:00:00;1725494794;05/09/24;00:06:34;1.002;-0.031;0.07;-0.0036651913542300463;-0.0024434609804302454;0.013439035043120384
01:00:0A:00:00:00:00;1725494795;05/09/24;00:06:35;1.013;-0.04;0.088;-0.0024434609804302454;-0.0073303827084600925;-0.012217304669320583
01:00:0A:00:00:00:00;1725494796;05/09/24;00:06:36;1.04;0.018;0.031;-0.02076941914856434;-0.12095131725072861;-0.02076941914856434
01:00:0A:00:00:00:00;1725494797;05/09/24;00:06:37;1.048;0.055;0.003;-0.04886921867728233;0.05253440886735916;0.06230825558304787
01:00:0A:00:00:00:00;1725494798;05/09/24;00:06:38;1.019;-0.068;0.136;-0.05009094998240471;0.05497787147760391;0.10018189996480942
01:00:0A:00:00:00:00;1725494799;05/09/24;00:06:39;0.978;0.019;0.028;-0.015882495790719986;-0.17959438264369965;-0.19547687470912933
01:00:0A:00:00:00:00;1725494800;05/09/24;00:06:40;0.962;-0.017;0.073;-0.05253440886735916;0.17104226350784302;0.19303341209888458
01:00:0A:00:00:00:00;1725494801;05/09/24;00:06:41;0.992;-0.056;0.096;-0.010995574295520782;-0.16859880089759827;-0.1722639948129654
01:00:0A:00:00:00:00;1725494802;05/09/24;00:06:42;1.03;0.046;-0.004;-0.042760565876960754;0.15393804013729095;0.10995574295520782
01:00:0A:00:00:00:00;1725494803;05/09/24;00:06:43;1.061;-0.063;0.127;-0.05742133408784866;-0.045204028487205505;-0.025656338781118393
01:00:0A:00:00:00:00;1725494804;05/09/24;00:06:44;1.054;0.069;-0.047;-0.06963863223791122;-0.08674286305904388;-0.03787364438176155
01:00:0A:00:00:00:00;1725494805;05/09/24;00:06:45;1.011;-0.082;0.13;-0.07330382615327835;0.11850785464048386;0.15515977144241333
01:00:0A:00:00:00:00;1725494806;05/09/24;00:06:46;0.986;0.04;0.011;-0.028099799528717995;-0.18081611394882202;-0.21868975460529327
01:00:0A:00:00:00:00;1725494807;05/09/24;00:06:47;0.976;-0.031;0.063;-0.09162978082895279;0.14049901068210602;0.3090977966785431
01:00:0A:00:00:00:00;1725494808;05/09/24;00:06:48;1.005;-0.036;0.078;-0.00855211354792118;-0.10262535512447357;-0.2919935882091522
01:00:0A:00:00:00:00;1725494809;05/09/24;00:06:49;1.015;0.106;0.024;-0.09896016865968704;0.07941248267889023;0.28466320037841797
01:00:0A:00:00:00:00;1725494810;05/09/24;00:06:50;1.034;-0.142;0.095;-0.028099799528717995;-0.0012217304902151227;-0.10384709388017654
01:00:0A:00:00:00:00;1725494811;05/09/24;00:06:51;1.026;0.183;0.049;-0.05619959905743599;-0.028099799528717995;-0.05253440886735916
01:00:0A:00:00:00:00;1725494812;05/09/24;00:06:52;1.026;-0.096;0.084;-0.13072516024112701;-0.006108652334660292;0.26511549949645996
01:00:0A:00:00:00:00;1725494813;05/09/24;00:06:53;1.01;0.012;0.093;-0.03787364438176155;0.04764748737215996;-0.17592918872833252
01:00:0A:00:00:00:00;1725494814;05/09/24;00:06:54;0.99;-0.003;0.084;-0.09162978082895279;-0.06475171446800232;0.10995574295520782
01:00:0A:00:00:00:00;1725494815;05/09/24;00:06:55;1.0;-0.097;0.047;-0.012217304669320583;0.051312677562236786;-0.010995574295520782
01:00:0A:00:00:00:00;1725494816;05/09/24;00:06:56;1.023;-0.006;0.106;0.014660765416920185;-0.01710422709584236;-0.12217304855585098
01:00:0A:00:00:00:00;1725494817;05/09/24;00:06:57;1.016;0.081;0.043;-0.05375614017248154;-0.030543262138962746;0.05253440886735916
01:00:0A:00:00:00:00;1725494818;05/09/24;00:06:58;1.008;-0.027;0.066;-0.051312677562236786;-0.010995574295520782;0.080634206533432
01:00:0A:00:00:00:00;1725494819;05/09/24;00:06:59;0.993;0.024;0.045;0.0012217304902151227;-0.04642575979232788;-0.16493360698223114
01:00:0A:00:00:00:00;1725494820;05/09/24;00:07:00;0.994;0.108;0.096;-0.04153883829712868;0.11972958594560623;0.09285151958465576
01:00:0A:00:00:00:00;1725494821;05/09/24;00:07:01;1.0;-0.179;0.228;-0.039095375686883926;-0.16982054710388184;0.3799581527709961
01:00:0A:00:00:00:00;1725494822;05/09/24;00:07:02;0.996;-0.255;-0.141;0.2895500957965851;-0.36651912331581116;-0.2565633952617645
01:00:0A:00:00:00:00;1725494823;05/09/24;00:07:03;0.934;0.146;-0.354;0.5375614166259766;-0.040317103266716;-0.5839871764183044
01:00:0A:00:00:00:00;1725494824;05/09/24;00:07:04;0.962;0.164;-0.208;0.50335294008255;0.5070181488990784;0.0012217304902151227
01:00:0A:00:00:00:00;1725494825;05/09/24;00:07:05;1.008;0.01;0.16;0.39828410744667053;0.17837265133857727;0.3323107063770294
01:00:0A:00:00:00:00;1725494826;05/09/24;00:07:06;1.043;-0.143;0.1;0.46181410551071167;-0.2028072476387024;-0.0073303827084600925
01:00:0A:00:00:00:00;1725494827;05/09/24;00:07:07;1.028;0.162;-0.1;0.5791001915931702;-0.012217304669320583;-0.004886921960860491
01:00:0A:00:00:00:00;1725494828;05/09/24;00:07:08;0.989;-0.204;0.189;0.626747727394104;0.3017674386501312;0.5192354917526245
01:00:0A:00:00:00:00;1725494829;05/09/24;00:07:09;0.945;0.039;0.284;0.6035348773002625;-0.34574973583221436;-0.1111774742603302
01:00:0A:00:00:00:00;1725494830;05/09/24;00:07:10;0.965;0.012;-0.153;0.4691444933414459;-0.5864306092262268;0.16859880089759827
01:00:0A:00:00:00:00;1725494831;05/09/24;00:07:11;0.981;-0.12;-0.028;0.8210028409957886;0.5167919993400574;-0.7037167549133301
01:00:0A:00:00:00:00;1725494832;05/09/24;00:07:12;0.965;0.256;0.119;0.4483751058578491;-0.24556782841682434;0.5216788649559021
01:00:0A:00:00:00:00;1725494833;05/09/24;00:07:13;1.007;-0.3;-0.021;0.6035348773002625;0.036651913076639175;-0.22113320231437683
01:00:0A:00:00:00:00;1725494834;05/09/24;00:07:14;1.022;0.207;0.002;0.6120869517326355;-0.00855211354792118;-0.22113320231437683
01:00:0A:00:00:00:00;1725494835;05/09/24;00:07:15;1.014;-0.102;-0.024;0.5290092825889587;0.24678954482078552;0.2773328125476837
01:00:0A:00:00:00:00;1725494836;05/09/24;00:07:16;0.972;-0.014;0.187;0.5949827432632446;-0.01710422709584236;-0.2028072476387024
01:00:0A:00:00:00:00;1725494837;05/09/24;00:07:17;1.006;0.056;0.011;0.4483751058578491;-0.16249015927314758;0.20647244155406952
01:00:0A:00:00:00:00;1725494838;05/09/24;00:07:18;1.041;-0.065;0.09;0.5571090579032898;0.3347541391849518;-0.34208452701568604
01:00:0A:00:00:00:00;1725494839;05/09/24;00:07:19;0.979;0.441;0.126;0.22113320231437683;0.19058994948863983;0.19058994948863983
01:00:0A:00:00:00:00;1725494840;05/09/24;00:07:20;0.993;-0.4;0.269;0.20525071024894714;-0.07208210229873657;0.38240164518356323
01:00:0A:00:00:00:00;1725494841;05/09/24;00:07:21;0.992;-0.125;0.266;0.3701843321323395;-0.27000245451927185;0.13072516024112701
01:00:0A:00:00:00:00;1725494842;05/09/24;00:07:22;0.943;-0.045;-0.164;0.5351179242134094;-0.720820963382721;-0.27977627515792847
01:00:0A:00:00:00:00;1725494843;05/09/24;00:07:23;0.944;0.117;-0.109;0.8283332586288452;0.5656611919403076;-0.5375614166259766
01:00:0A:00:00:00:00;1725494844;05/09/24;00:07:24;0.985;0.193;0.059;0.6756169199943542;0.18448130786418915;0.5009095072746277
01:00:0A:00:00:00:00;1725494845;05/09/24;00:07:25;1.034;-0.238;0.065;0.8478808999061584;-0.4300491213798523;-0.12339477241039276
01:00:0A:00:00:00:00;1725494846;05/09/24;00:07:26;1.016;0.281;-0.246;0.9663888216018677;0.21013763546943665;0.0012217304902151227
01:00:0A:00:00:00:00;1725494847;05/09/24;00:07:27;0.952;-0.128;0.415;0.9150761365890503;-0.5045746564865112;0.46792274713516235
01:00:0A:00:00:00:00;1725494848;05/09/24;00:07:28;0.974;0.016;-0.058;2.30051851272583;0.1673770695924759;-1.067792534828186
01:00:0A:00:00:00:00;1725494849;05/09/24;00:07:29;0.963;-0.062;0.008;2.309070587158203;0.3995058536529541;0.29077184200286865
01:00:0A:00:00:00:00;1725494850;05/09/24;00:07:30;0.993;0.021;0.099;2.0842721462249756;-0.3017674386501312;0.08429940044879913
01:00:0A:00:00:00:00;1725494851;05/09/24;00:07:31;1.038;-0.132;0.04;2.0842721462249756;-0.11728612333536148;-0.5326744914054871
01:00:0A:00:00:00:00;1725494852;05/09/24;00:07:32;1.041;-0.215;-0.108;2.0036380290985107;0.021991148591041565;-0.06841690838336945
01:00:0A:00:00:00:00;1725494853;05/09/24;00:07:33;1.031;0.071;0.127;1.9144517183303833;-0.24434609711170197;-0.13805554807186127
01:00:0A:00:00:00:00;1725494854;05/09/24;00:07:34;0.998;-0.122;0.06;1.7373007535934448;0.0024434609804302454;0.17348572611808777
01:00:0A:00:00:00:00;1725494855;05/09/24;00:07:35;0.962;0.0;-0.05;1.605353832244873;-0.45692718029022217;0.021991148591041565
01:00:0A:00:00:00:00;1725494856;05/09/24;00:07:36;0.962;-0.049;0.162;1.5906931161880493;0.3274237811565399;-0.1111774742603302
01:00:0A:00:00:00:00;1725494857;05/09/24;00:07:37;1.001;0.011;0.016;1.2840386629104614;-0.4508185386657715;0.6023131012916565
01:00:0A:00:00:00:00;1725494858;05/09/24;00:07:38;0.954;-0.295;0.218;1.4074335098266602;0.036651913076639175;-0.14416420459747314
01:00:0A:00:00:00:00;1725494859;05/09/24;00:07:39;1.036;-0.043;0.055;1.1789698600769043;-0.33964109420776367;0.2638937830924988
01:00:0A:00:00:00:00;1725494860;05/09/24;00:07:40;0.995;-0.195;0.162;1.1435396671295166;0.17470745742321014;0.045204028487205505
01:00:0A:00:00:00:00;1725494861;05/09/24;00:07:41;0.993;0.044;-0.071;0.9773843884468079;-0.4483751058578491;0.07330382615327835
01:00:0A:00:00:00:00;1725494862;05/09/24;00:07:42;0.968;-0.039;0.128;1.026253581047058;0.5265658497810364;-0.10384709388017654
01:00:0A:00:00:00:00;1725494863;05/09/24;00:07:43;0.971;-0.134;0.153;0.8307767510414124;-0.35674530267715454;0.5729915499687195
01:00:0A:00:00:00:00;1725494864;05/09/24;00:07:44;0.941;-0.28;0.162;1.0299187898635864;-0.18814648687839508;-0.1661553531885147
01:00:0A:00:00:00:00;1725494865;05/09/24;00:07:45;1.019;-0.077;0.084;1.0433577299118042;-0.39584067463874817;-0.09040805697441101
01:00:0A:00:00:00:00;1725494866;05/09/24;00:07:46;1.014;-0.282;-0.122;1.2217304706573486;-0.09162978082895279;-0.23335053026676178
01:00:0A:00:00:00:00;1725494867;05/09/24;00:07:47;1.06;0.096;0.101;1.2095131874084473;-0.03787364438176155;-0.10995574295520782
01:00:0A:00:00:00:00;1725494868;05/09/24;00:07:48;1.043;-0.059;0.131;1.0885618925094604;0.030543262138962746;0.0659734457731247
01:00:0A:00:00:00:00;1725494869;05/09/24;00:07:49;0.974;-0.07;-0.037;1.1472049951553345;-0.3591887652873993;-0.28099802136421204
01:00:0A:00:00:00:00;1725494870;05/09/24;00:07:50;0.899;0.099;-0.225;1.3023645877838135;0.06841690838336945;-0.7745770812034607
01:00:0A:00:00:00:00;1725494871;05/09/24;00:07:51;0.962;0.125;-0.011;1.224173903465271;1.0616837739944458;-0.15882496535778046
01:00:0A:00:00:00:00;1725494872;05/09/24;00:07:52;0.973;0.047;0.18;0.8710938096046448;-0.44226640462875366;0.6878342032432556
01:00:0A:00:00:00:00;1725494873;05/09/24;00:07:53;0.999;-0.213;0.05;1.0873401165008545;-0.12950342893600464;-0.39706242084503174
01:00:0A:00:00:00:00;1725494874;05/09/24;00:07:54;0.999;0.196;-0.135;1.0067058801651;-0.08918632566928864;-0.12828169763088226
01:00:0A:00:00:00:00;1725494875;05/09/24;00:07:55;1.012;0.033;0.073;0.9150761365890503;0.5485569834709167;0.05253440886735916
01:00:0A:00:00:00:00;1725494876;05/09/24;00:07:56;0.972;0.067;0.028;0.6976081132888794;-0.3152064383029938;0.14538592100143433
01:00:0A:00:00:00:00;1725494877;05/09/24;00:07:57;0.967;-0.016;0.036;0.7342600226402283;0.36651912331581116;0.015882495790719986
01:00:0A:00:00:00:00;1725494878;05/09/24;00:07:58;0.971;0.216;0.257;0.5729915499687195;-0.015882495790719986;0.15027284622192383
01:00:0A:00:00:00:00;1725494879;05/09/24;00:07:59;1.022;-0.23;0.241;0.4483751058578491;-0.3591887652873993;0.2834414541721344
01:00:0A:00:00:00:00;1725494880;05/09/24;00:08:00;1.022;-0.402;0.114;0.6756169199943542;-0.3090977966785431;0.024434609338641167
01:00:0A:00:00:00:00;1725494881;05/09/24;00:08:01;1.048;-0.066;-0.178;0.8674286603927612;-0.20525071024894714;-0.16371189057826996
01:00:0A:00:00:00:00;1725494882;05/09/24;00:08:02;0.983;0.079;0.233;0.8442157506942749;0.39095374941825867;-0.2993239760398865
01:00:0A:00:00:00:00;1725494883;05/09/24;00:08:03;0.976;0.112;-0.003;0.46547931432724;-0.23945917189121246;0.22968533635139465
01:00:0A:00:00:00:00;1725494884;05/09/24;00:08:04;0.974;-0.192;-0.044;0.6291911602020264;0.24068090319633484;-0.27611109614372253
01:00:0A:00:00:00:00;1725494885;05/09/24;00:08:05;1.015;0.156;0.039;0.6145303845405579;-0.013439035043120384;-0.18570303916931152
01:00:0A:00:00:00:00;1725494886;05/09/24;00:08:06;1.012;0.256;0.057;0.375071257352829;0.5803219676017761;0.3689626157283783
01:00:0A:00:00:00:00;1725494887;05/09/24;00:08:07;0.93;-0.195;0.446;0.2687807083129883;0.02687807008624077;0.32131510972976685
01:00:0A:00:00:00:00;1725494888;05/09/24;00:08:08;1.015;-0.046;0.034;0.30054569244384766;-0.6475171446800232;-0.019547687843441963
01:00:0A:00:00:00:00;1725494889;05/09/24;00:08:09;0.995;-0.071;-0.075;0.45814892649650574;-0.040317103266716;-0.006108652334660292
01:00:0A:00:00:00:00;1725494890;05/09/24;00:08:10;0.98;0.017;-0.16;0.6096435189247131;-0.1319468915462494;-0.2883284091949463
01:00:0A:00:00:00:00;1725494891;05/09/24;00:08:11;0.979;0.115;-0.227;0.6572909951210022;0.21380282938480377;-0.17959438264369965
01:00:0A:00:00:00:00;1725494892;05/09/24;00:08:12;1.02;0.069;0.059;0.5852089524269104;0.322536826133728;0.12217304855585098
01:00:0A:00:00:00:00;1725494893;05/09/24;00:08:13;0.992;-0.078;0.189;0.44226640462875366;-0.02321287989616394;0.22968533635139465
01:00:0A:00:00:00:00;1725494894;05/09/24;00:08:14;0.992;0.0;-0.05;0.4715879559516907;-0.251676470041275;-0.18325956165790558
01:00:0A:00:00:00:00;1725494895;05/09/24;00:08:15;0.996;0.049;-0.034;0.50335294008255;0.4251621961593628;-0.04153883829712868
01:00:0A:00:00:00:00;1725494896;05/09/24;00:08:16;1.005;0.081;0.193;0.39095374941825867;-0.024434609338641167;-0.00855211354792118
01:00:0A:00:00:00:00;1725494897;05/09/24;00:08:17;1.016;0.122;0.119;0.1673770695924759;0.18081611394882202;0.3543018400669098
01:00:0A:00:00:00:00;1725494898;05/09/24;00:08:18;0.976;-0.233;0.275;0.161268413066864;-0.0757472887635231;0.5778785347938538
01:00:0A:00:00:00:00;1725494899;05/09/24;00:08:19;0.921;-0.42;-0.215;0.6389650106430054;-0.8991935849189758;-0.4239404499530792
01:00:0A:00:00:00:00;1725494900;05/09/24;00:08:20;0.971;0.051;-0.261;1.0714576244354248;0.22357667982578278;-0.7648032903671265
01:00:0A:00:00:00:00;1725494901;05/09/24;00:08:21;0.986;-0.083;-0.27;1.2192870378494263;-0.03787364438176155;-0.4899139106273651
01:00:0A:00:00:00:00;1725494902;05/09/24;00:08:22;0.824;0.521;-0.238;1.0739011764526367;1.4489723443984985;-0.7171557545661926
01:00:0A:00:00:00:00;1725494903;05/09/24;00:08:23;0.787;0.461;0.406;0.16371189057826996;0.8857545852661133;1.0775662660598755
01:00:0A:00:00:00:00;1725494904;05/09/24;00:08:24;0.974;-0.323;0.018;0.1661553531885147;-1.0812314748764038;0.36529743671417236
01:00:0A:00:00:00:00;1725494905;05/09/24;00:08:25;0.797;0.077;-0.701;0.6181955933570862;-0.9737191796302795;-2.1062633991241455
01:00:0A:00:00:00:00;1725494906;05/09/24;00:08:26;0.687;0.427;-0.622;1.2657127380371094;1.379333734512329;-0.8710938096046448
01:00:0A:00:00:00:00;1725494907;05/09/24;00:08:27;0.891;-0.055;0.568;1.0971139669418335;0.2028072476387024;1.3781119585037231
01:00:0A:00:00:00:00;1725494908;05/09/24;00:08:28;0.873;-0.347;0.214;1.3866640329360962;-1.7275269031524658;-0.27000245451927185
01:00:0A:00:00:00:00;1725494909;05/09/24;00:08:29;0.944;-0.063;-0.172;1.8643606901168823;-0.0073303827084600925;-1.137431025505066
01:00:0A:00:00:00:00;1725494910;05/09/24;00:08:30;0.962;-0.192;-0.084;2.3664920330047607;0.4190535545349121;-0.051312677562236786
01:00:0A:00:00:00:00;1725494911;05/09/24;00:08:31;0.957;0.234;0.022;2.0109684467315674;-0.2822197377681732;0.04764748737215996
01:00:0A:00:00:00:00;1725494912;05/09/24;00:08:32;1.002;-0.075;-0.05;1.8668042421340942;0.4447098970413208;-0.18936821818351746
01:00:0A:00:00:00:00;1725494913;05/09/24;00:08:33;1.003;0.189;0.112;1.5503759384155273;0.3640756905078888;0.16004669666290283
01:00:0A:00:00:00:00;1725494914;05/09/24;00:08:34;1.001;0.209;0.192;1.1264355182647705;0.28099802136421204;0.28099802136421204
01:00:0A:00:00:00:00;1725494915;05/09/24;00:08:35;1.023;-0.079;0.176;0.891863226890564;0.025656338781118393;0.21624629199504852
01:00:0A:00:00:00:00;1725494916;05/09/24;00:08:36;1.021;-0.02;0.086;0.1661553531885147;0.1014036238193512;-0.13805554807186127
01:00:0A:00:00:00:00;1725494917;05/09/24;00:08:37;0.996;0.124;0.151;0.33964109420776367;0.25534167885780334;0.19058994948863983
01:00:0A:00:00:00:00;1725494918;05/09/24;00:08:38;1.024;-0.143;0.06;0.2626720666885376;-0.2993239760398865;0.13927726447582245
01:00:0A:00:00:00:00;1725494919;05/09/24;00:08:39;1.028;0.054;-0.142;0.4398229718208313;0.11239919811487198;-0.251676470041275
01:00:0A:00:00:00:00;1725494920;05/09/24;00:08:40;1.01;0.083;0.209;0.3604104816913605;0.3530800938606262;0.21868975460529327
01:00:0A:00:00:00:00;1725494921;05/09/24;00:08:41;0.987;-0.246;0.11;0.3176499307155609;-0.2919935882091522;0.3237585723400116
01:00:0A:00:00:00:00;1725494922;05/09/24;00:08:42;0.989;-0.004;0.01;0.4911356568336487;-0.11850785464048386;-0.4190535545349121
01:00:0A:00:00:00:00;1725494923;05/09/24;00:08:43;0.98;0.039;0.084;0.3897320330142975;0.20036379992961884;0.28466320037841797
01:00:0A:00:00:00:00;1725494924;05/09/24;00:08:44;0.994;-0.063;0.17;0.31154125928878784;-0.2687807083129883;-0.11972958594560623
01:00:0A:00:00:00:00;1725494925;05/09/24;00:08:45;1.042;0.044;-0.029;0.30543261766433716;0.02076941914856434;-0.09040805697441101
01:00:0A:00:00:00:00;1725494926;05/09/24;00:08:46;1.042;-0.07;0.182;0.30054569244384766;0.17592918872833252;0.13805554807186127
01:00:0A:00:00:00:00;1725494927;05/09/24;00:08:47;1.011;-0.145;0.122;0.30054569244384766;-0.07208210229873657;0.1417207270860672
01:00:0A:00:00:00:00;1725494928;05/09/24;00:08:48;0.989;-0.006;-0.031;0.38117989897727966;-0.11728612333536148;-0.13439035415649414
01:00:0A:00:00:00:00;1725494929;05/09/24;00:08:49;0.98;0.017;0.08;0.39828410744667053;0.24923302233219147;0.11239919811487198
01:00:0A:00:00:00:00;1725494930;05/09/24;00:08:50;0.999;-0.021;0.117;0.3017674386501312;-0.3188716471195221;0.06352998316287994
01:00:0A:00:00:00:00;1725494931;05/09/24;00:08:51;1.035;-0.028;-0.093;0.3836233615875244;0.0036651913542300463;-0.06230825558304787
01:00:0A:00:00:00:00;1725494932;05/09/24;00:08:52;1.039;0.053;0.134;0.3885102868080139;0.10262535512447357;-0.012217304669320583
01:00:0A:00:00:00:00;1725494933;05/09/24;00:08:53;1.02;0.013;0.054;0.29565879702568054;-0.17837265133857727;0.10751228034496307
01:00:0A:00:00:00:00;1725494934;05/09/24;00:08:54;0.98;-0.097;-0.024;0.3897320330142975;0.004886921960860491;0.1111774742603302
01:00:0A:00:00:00:00;1725494935;05/09/24;00:08:55;0.98;-0.041;0.113;0.5094615817070007;0.06963863223791122;-0.2272418737411499
01:00:0A:00:00:00:00;1725494936;05/09/24;00:08:56;1.019;0.059;0.076;0.3628539443016052;-0.20402899384498596;0.1869247555732727
01:00:0A:00:00:00:00;1725494937;05/09/24;00:08:57;1.045;-0.128;0.024;0.4153883755207062;0.09651670604944229;-0.08552113175392151
01:00:0A:00:00:00:00;1725494938;05/09/24;00:08:58;1.02;0.176;0.172;0.3323107063770294;0.06963863223791122;-0.13439035415649414
01:00:0A:00:00:00:00;1725494939;05/09/24;00:08:59;1.023;-0.098;0.005;0.2272418737411499;-0.12095131725072861;0.24434609711170197
01:00:0A:00:00:00:00;1725494940;05/09/24;00:09:00;0.978;0.055;0.071;0.3298672139644623;0.1258382350206375;-0.3347541391849518
01:00:0A:00:00:00:00;1725494941;05/09/24;00:09:01;0.978;0.033;0.054;0.1820378452539444;-0.11362093687057495;0.2932153046131134
01:00:0A:00:00:00:00;1725494942;05/09/24;00:09:02;1.01;-0.112;0.011;0.313984751701355;0.03176499158143997;-0.16249015927314758
01:00:0A:00:00:00:00;1725494943;05/09/24;00:09:03;1.047;0.068;0.065;0.31642818450927734;0.004886921960860491;-0.014660765416920185
01:00:0A:00:00:00:00;1725494944;05/09/24;00:09:04;1.053;-0.085;0.05;0.3176499307155609;-0.015882495790719986;0.12217304855585098
01:00:0A:00:00:00:00;1725494945;05/09/24;00:09:05;1.017;-0.01;0.053;0.3640756905078888;-0.00855211354792118;-0.080634206533432
01:00:0A:00:00:00:00;1725494946;05/09/24;00:09:06;0.989;0.013;0.014;0.0757472887635231;-0.00855211354792118;-0.02687807008624077
01:00:0A:00:00:00:00;1725494947;05/09/24;00:09:07;0.979;0.007;0.043;0.1111774742603302;0.0757472887635231;0.013439035043120384
01:00:0A:00:00:00:00;1725494948;05/09/24;00:09:08;1.003;0.0;0.057;0.22113320231437683;-0.12217304855585098;0.042760565876960754
01:00:0A:00:00:00:00;1725494949;05/09/24;00:09:09;1.044;-0.022;0.039;0.26145032048225403;0.00855211354792118;-0.0012217304902151227
01:00:0A:00:00:00:00;1725494950;05/09/24;00:09:10;1.046;-0.057;0.091;0.23945917189121246;0.014660765416920185;0.02687807008624077
01:00:0A:00:00:00:00;1725494951;05/09/24;00:09:11;1.025;-0.031;0.075;0.26145032048225403;-0.00855211354792118;0.01710422709584236
01:00:0A:00:00:00:00;1725494952;05/09/24;00:09:12;1.002;-0.022;0.06;0.3029891550540924;0.009773843921720982;0.030543262138962746
01:00:0A:00:00:00:00;1725494953;05/09/24;00:09:13;1.0;-0.022;0.066;0.29077184200286865;0.00855211354792118;-0.0024434609804302454
01:00:0A:00:00:00:00;1725494954;05/09/24;00:09:14;1.005;-0.005;0.066;0.2541199326515198;-0.021991148591041565;0.009773843921720982
01:00:0A:00:00:00:00;1725494955;05/09/24;00:09:15;1.008;-0.007;0.064;0.21868975460529327;-0.01710422709584236;0.024434609338641167
01:00:0A:00:00:00:00;1725494956;05/09/24;00:09:16;1.012;-0.002;0.064;0.19914205372333527;-0.036651913076639175;0.0073303827084600925
01:00:0A:00:00:00:00;1725494957;05/09/24;00:09:17;1.016;0.003;0.06;0.1820378452539444;-0.0073303827084600925;0.0354301817715168
01:00:0A:00:00:00:00;1725494958;05/09/24;00:09:18;1.028;-0.017;0.079;0.17470745742321014;0.013439035043120384;0.025656338781118393
01:00:0A:00:00:00:00;1725494959;05/09/24;00:09:19;1.033;-0.01;0.059;0.17348572611808777;0.010995574295520782;0.0012217304902151227
01:00:0A:00:00:00:00;1725494960;05/09/24;00:09:20;1.029;-0.008;0.041;0.1722639948129654;0.006108652334660292;0.015882495790719986
01:00:0A:00:00:00:00;1725494961;05/09/24;00:09:21;1.011;-0.018;0.051;0.17348572611808777;-0.00855211354792118;0.01710422709584236
01:00:0A:00:00:00:00;1725494962;05/09/24;00:09:22;1.002;-0.008;0.065;0.16982054710388184;-0.03787364438176155;0.0024434609804302454
01:00:0A:00:00:00:00;1725494963;05/09/24;00:09:23;0.993;0.0;0.065;0.1576032191514969;-0.019547687843441963;0.019547687843441963
01:00:0A:00:00:00:00;1725494964;05/09/24;00:09:24;0.999;-0.004;0.07;0.15515977144241333;-0.025656338781118393;-0.015882495790719986
01:00:0A:00:00:00:00;1725494965;05/09/24;00:09:25;1.027;-0.004;0.072;0.15027284622192383;-0.014660765416920185;-0.036651913076639175
01:00:0A:00:00:00:00;1725494966;05/09/24;00:09:26;1.036;-0.02;0.06;0.1466076523065567;0.0012217304902151227;0.019547687843441963
01:00:0A:00:00:00:00;1725494967;05/09/24;00:09:27;1.029;-0.034;0.065;0.1514945775270462;0.00855211354792118;0.02076941914856434
01:00:0A:00:00:00:00;1725494968;05/09/24;00:09:28;1.017;-0.014;0.049;0.15271630883216858;-0.024434609338641167;0.013439035043120384
01:00:0A:00:00:00:00;1725494969;05/09/24;00:09:29;1.006;-0.018;0.048;0.16493360698223114;-0.0073303827084600925;0.02076941914856434
01:00:0A:00:00:00:00;1725494970;05/09/24;00:09:30;0.999;-0.029;0.054;0.18081611394882202;-0.012217304669320583;-0.013439035043120384
01:00:0A:00:00:00:00;1725494971;05/09/24;00:09:31;1.009;-0.029;0.053;0.1869247555732727;-0.019547687843441963;-0.0073303827084600925
01:00:0A:00:00:00:00;1725494972;05/09/24;00:09:32;1.023;-0.03;0.069;0.19058994948863983;0.036651913076639175;0.01710422709584236
01:00:0A:00:00:00:00;1725494973;05/09/24;00:09:33;1.02;-0.022;0.112;0.17104226350784302;0.019547687843441963;0.03420845419168472
01:00:0A:00:00:00:00;1725494974;05/09/24;00:09:34;1.015;-0.02;0.095;0.13072516024112701;-0.036651913076639175;0.04398229718208313
01:00:0A:00:00:00:00;1725494975;05/09/24;00:09:35;1.012;-0.009;0.073;0.11484266817569733;-0.018325956538319588;-0.00855211354792118
01:00:0A:00:00:00:00;1725494976;05/09/24;00:09:36;1.019;0.0;0.076;0.09285151958465576;-0.040317103266716;-0.013439035043120384
01:00:0A:00:00:00:00;1725494977;05/09/24;00:09:37;1.031;-0.021;0.061;0.07819075137376785;-0.018325956538319588;0.0024434609804302454
01:00:0A:00:00:00:00;1725494978;05/09/24;00:09:38;1.033;-0.017;0.059;0.06963863223791122;-0.0012217304902151227;0.0024434609804302454
01:00:0A:00:00:00:00;1725494979;05/09/24;00:09:39;1.01;0.004;0.07;0.04642575979232788;-0.014660765416920185;0.0036651913542300463
01:00:0A:00:00:00:00;1725494980;05/09/24;00:09:40;0.996;-0.021;0.049;0.030543262138962746;-0.06108652427792549;0.04642575979232788
01:00:0A:00:00:00:00;1725494981;05/09/24;00:09:41;0.99;-0.025;0.057;0.05864306166768074;0.019547687843441963;-0.02932153083384037
01:00:0A:00:00:00:00;1725494982;05/09/24;00:09:42;1.001;0.0;0.071;0.04764748737215996;-0.0354301817715168;0.0
01:00:0A:00:00:00:00;1725494983;05/09/24;00:09:43;1.026;-0.023;0.052;0.04642575979232788;-0.013439035043120384;0.013439035043120384
01:00:0A:00:00:00:00;1725494984;05/09/24;00:09:44;1.028;-0.02;0.063;0.05864306166768074;0.02321287989616394;-0.012217304669320583
01:00:0A:00:00:00:00;1725494985;05/09/24;00:09:45;1.028;0.001;0.072;0.042760565876960754;-0.012217304669320583;0.009773843921720982
01:00:0A:00:00:00:00;1725494986;05/09/24;00:09:46;1.031;-0.016;0.051;0.03420845419168472;-0.03176499158143997;0.02321287989616394
01:00:0A:00:00:00:00;1725494987;05/09/24;00:09:47;1.026;-0.014;0.058;0.04886921867728233;0.019547687843441963;-0.00855211354792118
01:00:0A:00:00:00:00;1725494988;05/09/24;00:09:48;1.011;-0.01;0.052;0.04642575979232788;0.010995574295520782;-0.0012217304902151227
01:00:0A:00:00:00:00;1725494989;05/09/24;00:09:49;1.008;-0.032;0.041;0.04398229718208313;-0.02321287989616394;0.02321287989616394
01:00:0A:00:00:00:00;1725494990;05/09/24;00:09:50;1.006;-0.025;0.047;0.05619959905743599;-0.02687807008624077;-0.013439035043120384
01:00:0A:00:00:00:00;1725494991;05/09/24;00:09:51;1.008;-0.008;0.064;0.04398229718208313;-0.04153883829712868;0.045204028487205505
01:00:0A:00:00:00:00;1725494992;05/09/24;00:09:52;1.014;-0.023;0.053;0.05497787147760391;-0.03176499158143997;0.012217304669320583
01:00:0A:00:00:00:00;1725494993;05/09/24;00:09:53;1.012;-0.003;0.068;0.07452555745840073;0.042760565876960754;-0.03298672288656235
01:00:0A:00:00:00:00;1725494994;05/09/24;00:09:54;1.003;0.002;0.069;0.04886921867728233;0.0;0.006108652334660292
01:00:0A:00:00:00:00;1725494995;05/09/24;00:09:55;1.001;-0.017;0.039;0.04642575979232788;-0.018325956538319588;-0.013439035043120384
01:00:0A:00:00:00:00;1725494996;05/09/24;00:09:56;1.027;-0.022;0.049;0.05375614017248154;-0.004886921960860491;-0.021991148591041565
01:00:0A:00:00:00:00;1725494997;05/09/24;00:09:57;1.044;-0.014;0.08;0.042760565876960754;-0.02321287989616394;0.025656338781118393
01:00:0A:00:00:00:00;1725494998;05/09/24;00:09:58;1.042;-0.033;0.058;0.045204028487205505;-0.021991148591041565;0.039095375686883926
01:00:0A:00:00:00:00;1725494999;05/09/24;00:09:59;1.008;-0.009;0.082;0.051312677562236786;0.04398229718208313;-0.0024434609804302454
01:00:0A:00:00:00:00;1725495000;05/09/24;00:10:00;0.987;-0.008;0.068;0.02321287989616394;-0.02321287989616394;0.015882495790719986
01:00:0A:00:00:00:00;1725495001;05/09/24;00:10:01;0.978;-0.017;0.055;0.018325956538319588;-0.0012217304902151227;0.004886921960860491
01:00:0A:00:00:00:00;1725495002;05/09/24;00:10:02;1.003;-0.016;0.066;0.010995574295520782;-0.05375614017248154;-0.0354301817715168
01:00:0A:00:00:00:00;1725495003;05/09/24;00:10:03;1.043;-0.006;0.061;-0.0024434609804302454;-0.030543262138962746;0.0
01:00:0A:00:00:00:00;1725495004;05/09/24;00:10:04;1.049;-0.026;0.074;-0.00855211354792118;-0.0036651913542300463;0.006108652334660292
01:00:0A:00:00:00:00;1725495005;05/09/24;00:10:05;1.034;-0.012;0.074;-0.013439035043120384;0.014660765416920185;-0.0012217304902151227
01:00:0A:00:00:00:00;1725495006;05/09/24;00:10:06;1.004;0.0;0.055;-0.021991148591041565;-0.014660765416920185;0.018325956538319588
01:00:0A:00:00:00:00;1725495007;05/09/24;00:10:07;0.989;-0.014;0.05;-0.015882495790719986;-0.012217304669320583;0.028099799528717995
01:00:0A:00:00:00:00;1725495008;05/09/24;00:10:08;0.995;-0.022;0.055;0.0;-0.025656338781118393;-0.02687807008624077
01:00:0A:00:00:00:00;1725495009;05/09/24;00:10:09;1.015;-0.026;-0.002;0.1160643920302391;-0.12217304855585098;0.021991148591041565
01:00:0A:00:00:00:00;1725495010;05/09/24;00:10:10;1.027;-0.03;0.022;0.07208210229873657;0.1160643920302391;0.0
01:00:0A:00:00:00:00;1725495011;05/09/24;00:10:11;1.024;-0.016;0.086;-0.11484266817569733;0.03787364438176155;0.006108652334660292
01:00:0A:00:00:00:00;1725495012;05/09/24;00:10:12;1.016;-0.004;0.064;-0.11728612333536148;-0.059864792972803116;-0.0073303827084600925
01:00:0A:00:00:00:00;1725495013;05/09/24;00:10:13;1.016;-0.008;0.031;-0.09529497474431992;0.004886921960860491;-0.0012217304902151227
01:00:0A:00:00:00:00;1725495014;05/09/24;00:10:14;1.016;-0.026;0.073;-0.07696902006864548;0.02932153083384037;-0.010995574295520782
01:00:0A:00:00:00:00;1725495015;05/09/24;00:10:15;1.023;-0.018;0.064;-0.07819075137376785;-0.06108652427792549;-0.018325956538319588
01:00:0A:00:00:00:00;1725495016;05/09/24;00:10:16;1.024;-0.01;0.032;-0.0659734457731247;-0.019547687843441963;0.02321287989616394
01:00:0A:00:00:00:00;1725495017;05/09/24;00:10:17;1.0;-0.027;0.067;-0.04764748737215996;0.039095375686883926;0.036651913076639175
01:00:0A:00:00:00:00;1725495018;05/09/24;00:10:18;0.991;-0.011;0.058;-0.039095375686883926;-0.051312677562236786;-0.04398229718208313
01:00:0A:00:00:00:00;1725495019;05/09/24;00:10:19;1.007;0.001;0.036;-0.0354301817715168;0.0073303827084600925;0.0024434609804302454
01:00:0A:00:00:00:00;1725495020;05/09/24;00:10:20;1.022;-0.034;0.06;-0.024434609338641167;0.004886921960860491;-0.012217304669320583
01:00:0A:00:00:00:00;1725495021;05/09/24;00:10:21;1.034;-0.019;0.062;-0.021991148591041565;-0.030543262138962746;-0.006108652334660292
01:00:0A:00:00:00:00;1725495022;05/09/24;00:10:22;1.031;-0.003;0.041;-0.021991148591041565;-0.02321287989616394;0.036651913076639175
01:00:0A:00:00:00:00;1725495023;05/09/24;00:10:23;1.012;-0.022;0.06;-0.012217304669320583;0.015882495790719986;0.040317103266716
01:00:0A:00:00:00:00;1725495024;05/09/24;00:10:24;1.005;-0.003;0.054;-0.0036651913542300463;-0.02687807008624077;-0.024434609338641167
01:00:0A:00:00:00:00;1725495025;05/09/24;00:10:25;1.007;-0.007;0.044;-0.0073303827084600925;-0.021991148591041565;0.021991148591041565
01:00:0A:00:00:00:00;1725495026;05/09/24;00:10:26;1.017;-0.033;0.061;0.0073303827084600925;0.004886921960860491;-0.0024434609804302454
01:00:0A:00:00:00:00;1725495027;05/09/24;00:10:27;1.016;-0.016;0.063;0.00855211354792118;-0.015882495790719986;-0.01710422709584236
01:00:0A:00:00:00:00;1725495028;05/09/24;00:10:28;1.012;-0.015;0.048;-0.0012217304902151227;-0.015882495790719986;0.042760565876960754
01:00:0A:00:00:00:00;1725495029;05/09/24;00:10:29;1.005;-0.025;0.052;0.010995574295520782;0.014660765416920185;0.012217304669320583
01:00:0A:00:00:00:00;1725495030;05/09/24;00:10:30;1.001;-0.006;0.054;0.010995574295520782;-0.025656338781118393;-0.012217304669320583
01:00:0A:00:00:00:00;1725495031;05/09/24;00:10:31;1.007;-0.01;0.046;0.0024434609804302454;-0.030543262138962746;0.021991148591041565
01:00:0A:00:00:00:00;1725495032;05/09/24;00:10:32;1.03;-0.036;0.059;0.013439035043120384;-0.014660765416920185;-0.01710422709584236
01:00:0A:00:00:00:00;1725495033;05/09/24;00:10:33;1.038;-0.004;0.072;0.0073303827084600925;-0.00855211354792118;-0.010995574295520782
01:00:0A:00:00:00:00;1725495034;05/09/24;00:10:34;1.031;-0.024;0.059;-0.006108652334660292;-0.0012217304902151227;0.04886921867728233
01:00:0A:00:00:00:00;1725495035;05/09/24;00:10:35;1.01;-0.019;0.061;0.0012217304902151227;0.012217304669320583;0.02076941914856434
01:00:0A:00:00:00:00;1725495036;05/09/24;00:10:36;1.003;0.002;0.064;0.0;-0.004886921960860491;-0.021991148591041565
01:00:0A:00:00:00:00;1725495037;05/09/24;00:10:37;1.0;-0.014;0.056;-0.009773843921720982;-0.021991148591041565;0.004886921960860491
01:00:0A:00:00:00:00;1725495038;05/09/24;00:10:38;1.001;-0.028;0.057;0.0036651913542300463;-0.019547687843441963;-0.042760565876960754
01:00:0A:00:00:00:00;1725495039;05/09/24;00:10:39;1.016;-0.017;0.068;-0.0012217304902151227;-0.02932153083384037;-0.015882495790719986
01:00:0A:00:00:00:00;1725495040;05/09/24;00:10:40;1.021;-0.021;0.058;-0.00855211354792118;-0.019547687843441963;0.030543262138962746
01:00:0A:00:00:00:00;1725495041;05/09/24;00:10:41;1.027;-0.028;0.06;0.0012217304902151227;0.004886921960860491;0.012217304669320583
01:00:0A:00:00:00:00;1725495042;05/09/24;00:10:42;1.025;0.0;0.059;-0.0012217304902151227;-0.0036651913542300463;0.0024434609804302454
01:00:0A:00:00:00:00;1725495043;05/09/24;00:10:43;1.018;-0.012;0.051;-0.00855211354792118;-0.019547687843441963;0.02321287989616394
01:00:0A:00:00:00:00;1725495044;05/09/24;00:10:44;1.008;-0.019;0.054;-0.0012217304902151227;-0.013439035043120384;0.0
01:00:0A:00:00:00:00;1725495045;05/09/24;00:10:45;1.002;-0.004;0.055;-0.004886921960860491;-0.024434609338641167;-0.0073303827084600925
01:00:0A:00:00:00:00;1725495046;05/09/24;00:10:46;1.004;-0.014;0.053;-0.010995574295520782;-0.030543262138962746;0.014660765416920185
01:00:0A:00:00:00:00;1725495047;05/09/24;00:10:47;1.008;-0.024;0.055;0.0;-0.018325956538319588;-0.018325956538319588
01:00:0A:00:00:00:00;1725495048;05/09/24;00:10:48;1.018;-0.012;0.062;-0.0036651913542300463;-0.019547687843441963;-0.0012217304902151227
01:00:0A:00:00:00:00;1725495049;05/09/24;00:10:49;1.023;-0.017;0.057;-0.0073303827084600925;-0.02076941914856434;0.0073303827084600925
01:00:0A:00:00:00:00;1725495050;05/09/24;00:10:50;1.03;-0.026;0.06;-0.0012217304902151227;0.0024434609804302454;0.0024434609804302454
01:00:0A:00:00:00:00;1725495051;05/09/24;00:10:51;1.03;-0.01;0.063;-0.0024434609804302454;-0.004886921960860491;0.006108652334660292
01:00:0A:00:00:00:00;1725495052;05/09/24;00:10:52;1.019;-0.018;0.06;-0.006108652334660292;-0.004886921960860491;0.019547687843441963
01:00:0A:00:00:00:00;1725495053;05/09/24;00:10:53;1.008;-0.018;0.059;0.0012217304902151227;0.0036651913542300463;-0.004886921960860491
01:00:0A:00:00:00:00;1725495054;05/09/24;00:10:54;1.003;-0.01;0.061;0.0;-0.0012217304902151227;-0.0024434609804302454
01:00:0A:00:00:00:00;1725495055;05/09/24;00:10:55;1.004;-0.012;0.052;-0.0036651913542300463;-0.019547687843441963;0.006108652334660292
01:00:0A:00:00:00:00;1725495056;05/09/24;00:10:56;1.009;-0.013;0.052;0.0012217304902151227;-0.024434609338641167;-0.02076941914856434
01:00:0A:00:00:00:00;1725495057;05/09/24;00:10:57;1.023;-0.012;0.061;-0.0012217304902151227;-0.021991148591041565;-0.006108652334660292
01:00:0A:00:00:00:00;1725495058;05/09/24;00:10:58;1.028;-0.021;0.061;-0.006108652334660292;-0.02687807008624077;0.0073303827084600925
01:00:0A:00:00:00:00;1725495059;05/09/24;00:10:59;1.024;-0.015;0.062;-0.0024434609804302454;-0.0024434609804302454;0.0024434609804302454
01:00:0A:00:00:00:00;1725495060;05/09/24;00:11:00;1.018;-0.007;0.062;-0.0036651913542300463;0.0024434609804302454;0.006108652334660292
01:00:0A:00:00:00:00;1725495061;05/09/24;00:11:01;1.014;-0.012;0.056;-0.0036651913542300463;-0.004886921960860491;0.0036651913542300463
01:00:0A:00:00:00:00;1725495062;05/09/24;00:11:02;1.014;-0.017;0.053;0.0;-0.018325956538319588;-0.014660765416920185
01:00:0A:00:00:00:00;1725495063;05/09/24;00:11:03;1.011;-0.017;0.064;-0.0012217304902151227;-0.014660765416920185;-0.0036651913542300463
01:00:0A:00:00:00:00;1725495064;05/09/24;00:11:04;1.01;-0.023;0.067;-0.0024434609804302454;0.0;0.012217304669320583
01:00:0A:00:00:00:00;1725495065;05/09/24;00:11:05;1.015;-0.021;0.06;0.0;0.00855211354792118;0.01710422709584236
01:00:0A:00:00:00:00;1725495066;05/09/24;00:11:06;1.02;-0.009;0.052;0.0012217304902151227;0.004886921960860491;0.019547687843441963
01:00:0A:00:00:00:00;1725495067;05/09/24;00:11:07;1.022;-0.008;0.051;-0.0012217304902151227;-0.014660765416920185;0.015882495790719986
01:00:0A:00:00:00:00;1725495068;05/09/24;00:11:08;1.015;-0.006;0.053;0.0012217304902151227;-0.03298672288656235;-0.00855211354792118
01:00:0A:00:00:00:00;1725495069;05/09/24;00:11:09;1.003;-0.01;0.065;0.0;-0.021991148591041565;-0.00855211354792118
01:00:0A:00:00:00:00;1725495070;05/09/24;00:11:10;1.001;-0.018;0.072;-0.0036651913542300463;-0.014660765416920185;-0.004886921960860491
01:00:0A:00:00:00:00;1725495071;05/09/24;00:11:11;1.016;-0.023;0.063;-0.0036651913542300463;-0.0012217304902151227;-0.0012217304902151227
01:00:0A:00:00:00:00;1725495072;05/09/24;00:11:12;1.03;-0.018;0.058;-0.0036651913542300463;0.0073303827084600925;0.012217304669320583
01:00:0A:00:00:00:00;1725495073;05/09/24;00:11:13;1.033;-0.016;0.058;-0.006108652334660292;-0.0024434609804302454;0.012217304669320583
01:00:0A:00:00:00:00;1725495074;05/09/24;00:11:14;1.023;-0.018;0.051;-0.0024434609804302454;-0.013439035043120384;0.0024434609804302454
01:00:0A:00:00:00:00;1725495075;05/09/24;00:11:15;1.006;-0.017;0.059;0.0012217304902151227;-0.009773843921720982;0.0024434609804302454
01:00:0A:00:00:00:00;1725495076;05/09/24;00:11:16;0.999;-0.019;0.065;-0.0024434609804302454;-0.021991148591041565;0.006108652334660292
01:00:0A:00:00:00:00;1725495077;05/09/24;00:11:17;1.009;-0.019;0.054;-0.0012217304902151227;-0.018325956538319588;0.0036651913542300463
01:00:0A:00:00:00:00;1725495078;05/09/24;00:11:18;1.02;-0.014;0.052;0.0036651913542300463;0.0;0.010995574295520782
01:00:0A:00:00:00:00;1725495079;05/09/24;00:11:19;1.029;-0.008;0.061;-0.0012217304902151227;-0.018325956538319588;0.012217304669320583
01:00:0A:00:00:00:00;1725495080;05/09/24;00:11:20;1.016;-0.011;0.053;0.0;-0.025656338781118393;-0.0036651913542300463
01:00:0A:00:00:00:00;1725495081;05/09/24;00:11:21;1.002;-0.011;0.058;0.006108652334660292;0.0036651913542300463;-0.009773843921720982
01:00:0A:00:00:00:00;1725495082;05/09/24;00:11:22;1.0;-0.015;0.069;-0.0012217304902151227;-0.019547687843441963;0.0036651913542300463
01:00:0A:00:00:00:00;1725495083;05/09/24;00:11:23;1.014;-0.019;0.061;0.0;-0.014660765416920185;-0.004886921960860491
01:00:0A:00:00:00:00;1725495084;05/09/24;00:11:24;1.033;-0.016;0.056;0.004886921960860491;0.006108652334660292;-0.004886921960860491
01:00:0A:00:00:00:00;1725495085;05/09/24;00:11:25;1.034;-0.012;0.061;-0.0024434609804302454;-0.004886921960860491;0.009773843921720982
01:00:0A:00:00:00:00;1725495086;05/09/24;00:11:26;1.017;-0.018;0.05;-0.0036651913542300463;-0.028099799528717995;0.012217304669320583
01:00:0A:00:00:00:00;1725495087;05/09/24;00:11:27;1.007;-0.015;0.058;0.004886921960860491;0.0;-0.0036651913542300463
01:00:0A:00:00:00:00;1725495088;05/09/24;00:11:28;1.002;-0.01;0.064;-0.0012217304902151227;-0.021991148591041565;0.012217304669320583
01:00:0A:00:00:00:00;1725495089;05/09/24;00:11:29;1.013;-0.011;0.056;0.0;-0.025656338781118393;0.0036651913542300463
01:00:0A:00:00:00:00;1725495090;05/09/24;00:11:30;1.017;-0.005;0.053;0.0073303827084600925;-0.0024434609804302454;-0.012217304669320583
01:00:0A:00:00:00:00;1725495091;05/09/24;00:11:31;1.016;-0.011;0.064;0.0036651913542300463;-0.01710422709584236;-0.0073303827084600925
01:00:0A:00:00:00:00;1725495092;05/09/24;00:11:32;1.014;-0.019;0.053;0.0024434609804302454;-0.02687807008624077;-0.0036651913542300463
01:00:0A:00:00:00:00;1725495093;05/09/24;00:11:33;1.013;-0.022;0.058;0.009773843921720982;0.0024434609804302454;-0.0036651913542300463
01:00:0A:00:00:00:00;1725495094;05/09/24;00:11:34;1.015;-0.018;0.066;0.0036651913542300463;-0.006108652334660292;0.014660765416920185
01:00:0A:00:00:00:00;1725495095;05/09/24;00:11:35;1.022;-0.017;0.05;0.0024434609804302454;-0.013439035043120384;0.01710422709584236
01:00:0A:00:00:00:00;1725495096;05/09/24;00:11:36;1.026;-0.01;0.051;0.009773843921720982;0.006108652334660292;0.004886921960860491
01:00:0A:00:00:00:00;1725495097;05/09/24;00:11:37;1.021;-0.007;0.066;0.006108652334660292;-0.014660765416920185;0.0
01:00:0A:00:00:00:00;1725495098;05/09/24;00:11:38;1.015;-0.015;0.055;0.0036651913542300463;-0.02321287989616394;0.0024434609804302454
01:00:0A:00:00:00:00;1725495099;05/09/24;00:11:39;1.013;-0.014;0.056;0.013439035043120384;0.014660765416920185;-0.004886921960860491
01:00:0A:00:00:00:00;1725495100;05/09/24;00:11:40;1.006;-0.013;0.065;0.0073303827084600925;-0.004886921960860491;0.009773843921720982
01:00:0A:00:00:00:00;1725495101;05/09/24;00:11:41;1.005;-0.017;0.051;0.004886921960860491;-0.025656338781118393;0.00855211354792118
01:00:0A:00:00:00:00;1725495102;05/09/24;00:11:42;1.01;-0.013;0.052;0.013439035043120384;0.0012217304902151227;-0.0073303827084600925
01:00:0A:00:00:00:00;1725495103;05/09/24;00:11:43;1.015;-0.011;0.066;0.0073303827084600925;-0.02687807008624077;-0.0036651913542300463
01:00:0A:00:00:00:00;1725495104;05/09/24;00:11:44;1.023;-0.022;0.055;0.006108652334660292;-0.025656338781118393;0.0073303827084600925
01:00:0A:00:00:00:00;1725495105;05/09/24;00:11:45;1.024;-0.015;0.058;0.013439035043120384;0.010995574295520782;0.006108652334660292
01:00:0A:00:00:00:00;1725495106;05/09/24;00:11:46;1.016;-0.011;0.068;0.00855211354792118;-0.0024434609804302454;0.00855211354792118
01:00:0A:00:00:00:00;1725495107;05/09/24;00:11:47;1.011;-0.016;0.049;0.0073303827084600925;-0.021991148591041565;0.0024434609804302454
01:00:0A:00:00:00:00;1725495108;05/09/24;00:11:48;1.014;-0.015;0.053;0.015882495790719986;0.010995574295520782;-0.0073303827084600925
01:00:0A:00:00:00:00;1725495109;05/09/24;00:11:49;1.021;-0.011;0.066;0.009773843921720982;-0.019547687843441963;0.006108652334660292
01:00:0A:00:00:00:00;1725495110;05/09/24;00:11:50;1.027;-0.019;0.051;0.00855211354792118;-0.02687807008624077;0.0073303827084600925
01:00:0A:00:00:00:00;1725495111;05/09/24;00:11:51;1.02;-0.014;0.054;0.01710422709584236;0.010995574295520782;0.0024434609804302454
01:00:0A:00:00:00:00;1725495112;05/09/24;00:11:52;1.012;-0.012;0.064;0.012217304669320583;-0.00855211354792118;0.006108652334660292
01:00:0A:00:00:00:00;1725495113;05/09/24;00:11:53;1.002;-0.021;0.051;0.010995574295520782;-0.030543262138962746;0.0024434609804302454
01:00:0A:00:00:00:00;1725495114;05/09/24;00:11:54;1.002;-0.02;0.053;0.02321287989616394;0.004886921960860491;-0.014660765416920185
01:00:0A:00:00:00:00;1725495115;05/09/24;00:11:55;1.014;-0.015;0.064;0.014660765416920185;-0.019547687843441963;0.009773843921720982
01:00:0A:00:00:00:00;1725495116;05/09/24;00:11:56;1.025;-0.022;0.055;0.013439035043120384;-0.028099799528717995;0.009773843921720982
01:00:0A:00:00:00:00;1725495117;05/09/24;00:11:57;1.028;-0.018;0.056;0.02321287989616394;0.0012217304902151227;-0.0036651913542300463
01:00:0A:00:00:00:00;1725495118;05/09/24;00:11:58;1.022;-0.01;0.065;0.018325956538319588;-0.0036651913542300463;0.004886921960860491
01:00:0A:00:00:00:00;1725495119;05/09/24;00:11:59;1.019;-0.02;0.052;0.014660765416920185;-0.024434609338641167;0.012217304669320583
01:00:0A:00:00:00:00;1725495120;05/09/24;00:12:00;1.016;-0.017;0.05;0.02321287989616394;-0.0012217304902151227;0.0012217304902151227
01:00:0A:00:00:00:00;1725495121;05/09/24;00:12:01;1.015;-0.008;0.064;0.01710422709584236;-0.009773843921720982;0.009773843921720982
01:00:0A:00:00:00:00;1725495122;05/09/24;00:12:02;1.013;-0.014;0.051;0.014660765416920185;-0.025656338781118393;0.006108652334660292
01:00:0A:00:00:00:00;1725495123;05/09/24;00:12:03;1.012;-0.017;0.053;0.024434609338641167;0.0;-0.01710422709584236
01:00:0A:00:00:00:00;1725495124;05/09/24;00:12:04;1.011;-0.015;0.065;0.018325956538319588;-0.013439035043120384;0.0012217304902151227
01:00:0A:00:00:00:00;1725495125;05/09/24;00:12:05;1.011;-0.02;0.055;0.013439035043120384;-0.02932153083384037;0.015882495790719986
01:00:0A:00:00:00:00;1725495126;05/09/24;00:12:06;1.01;-0.017;0.054;0.02321287989616394;0.004886921960860491;0.0
01:00:0A:00:00:00:00;1725495127;05/09/24;00:12:07;1.015;-0.008;0.065;0.01710422709584236;-0.00855211354792118;0.006108652334660292
01:00:0A:00:00:00:00;1725495128;05/09/24;00:12:08;1.019;-0.016;0.053;0.013439035043120384;-0.028099799528717995;0.00855211354792118
01:00:0A:00:00:00:00;1725495129;05/09/24;00:12:09;1.025;-0.018;0.053;0.021991148591041565;-0.006108652334660292;-0.013439035043120384
01:00:0A:00:00:00:00;1725495130;05/09/24;00:12:10;1.029;-0.011;0.07;0.015882495790719986;-0.009773843921720982;0.0012217304902151227
01:00:0A:00:00:00:00;1725495131;05/09/24;00:12:11;1.021;-0.021;0.057;0.010995574295520782;-0.019547687843441963;0.02076941914856434
01:00:0A:00:00:00:00;1725495132;05/09/24;00:12:12;1.014;-0.018;0.055;0.019547687843441963;0.004886921960860491;0.0036651913542300463
01:00:0A:00:00:00:00;1725495133;05/09/24;00:12:13;1.004;-0.008;0.064;0.015882495790719986;-0.0036651913542300463;0.0012217304902151227
01:00:0A:00:00:00:00;1725495134;05/09/24;00:12:14;1.005;-0.016;0.058;0.009773843921720982;-0.028099799528717995;0.00855211354792118
01:00:0A:00:00:00:00;1725495135;05/09/24;00:12:15;1.007;-0.019;0.053;0.019547687843441963;-0.004886921960860491;-0.012217304669320583
01:00:0A:00:00:00:00;1725495136;05/09/24;00:12:16;1.019;-0.009;0.068;0.01710422709584236;-0.012217304669320583;-0.004886921960860491
01:00:0A:00:00:00:00;1725495137;05/09/24;00:12:17;1.022;-0.016;0.058;0.012217304669320583;-0.018325956538319588;0.012217304669320583
01:00:0A:00:00:00:00;1725495138;05/09/24;00:12:18;1.02;-0.018;0.054;0.02076941914856434;0.0012217304902151227;-0.0024434609804302454
01:00:0A:00:00:00:00;1725495139;05/09/24;00:12:19;1.018;-0.009;0.062;0.018325956538319588;-0.009773843921720982;0.0
01:00:0A:00:00:00:00;1725495140;05/09/24;00:12:20;1.02;-0.015;0.058;0.010995574295520782;-0.028099799528717995;0.01710422709584236
01:00:0A:00:00:00:00;1725495141;05/09/24;00:12:21;1.017;-0.017;0.056;0.019547687843441963;-0.0024434609804302454;0.0012217304902151227
01:00:0A:00:00:00:00;1725495142;05/09/24;00:12:22;1.011;-0.008;0.066;0.018325956538319588;0.0;-0.004886921960860491
01:00:0A:00:00:00:00;1725495143;05/09/24;00:12:23;1.009;-0.014;0.057;0.010995574295520782;-0.019547687843441963;0.012217304669320583
01:00:0A:00:00:00:00;1725495144;05/09/24;00:12:24;1.01;-0.018;0.048;0.015882495790719986;-0.004886921960860491;-0.0036651913542300463
01:00:0A:00:00:00:00;1725495145;05/09/24;00:12:25;1.015;0.013;0.04;-0.08185594528913498;0.009773843921720982;0.025656338781118393
01:00:0A:00:00:00:00;1725495146;05/09/24;00:12:26;1.024;0.002;0.05;-0.09896016865968704;-0.021991148591041565;0.025656338781118393
01:00:0A:00:00:00:00;1725495147;05/09/24;00:12:27;1.03;-0.033;0.063;-0.08552113175392151;0.0036651913542300463;0.025656338781118393
01:00:0A:00:00:00:00;1725495148;05/09/24;00:12:28;1.022;-0.012;0.072;-0.0708603635430336;-0.006108652334660292;-0.02932153083384037
01:00:0A:00:00:00:00;1725495149;05/09/24;00:12:29;1.009;-0.001;0.054;-0.080634206533432;-0.02321287989616394;0.009773843921720982
01:00:0A:00:00:00:00;1725495150;05/09/24;00:12:30;1.005;-0.027;0.048;-0.07330382615327835;0.0;0.02932153083384037
01:00:0A:00:00:00:00;1725495151;05/09/24;00:12:31;1.002;-0.018;0.06;-0.05864306166768074;-0.015882495790719986;-0.03298672288656235
01:00:0A:00:00:00:00;1725495152;05/09/24;00:12:32;1.015;-0.002;0.059;-0.0708603635430336;-0.04642575979232788;0.004886921960860491
01:00:0A:00:00:00:00;1725495153;05/09/24;00:12:33;1.023;-0.024;0.05;-0.06352998316287994;-0.009773843921720982;0.010995574295520782
01:00:0A:00:00:00:00;1725495154;05/09/24;00:12:34;1.024;-0.019;0.066;-0.05253440886735916;0.010995574295520782;-0.013439035043120384
01:00:0A:00:00:00:00;1725495155;05/09/24;00:12:35;1.018;-0.004;0.058;-0.06352998316287994;-0.024434609338641167;0.006108652334660292
01:00:0A:00:00:00:00;1725495156;05/09/24;00:12:36;1.013;-0.019;0.046;-0.059864792972803116;-0.00855211354792118;0.018325956538319588
01:00:0A:00:00:00:00;1725495157;05/09/24;00:12:37;1.013;-0.014;0.064;-0.04886921867728233;0.0012217304902151227;-0.018325956538319588
01:00:0A:00:00:00:00;1725495158;05/09/24;00:12:38;1.016;-0.007;0.064;-0.05864306166768074;-0.03787364438176155;-0.0036651913542300463
01:00:0A:00:00:00:00;1725495159;05/09/24;00:12:39;1.022;-0.019;0.044;-0.05375614017248154;-0.014660765416920185;0.0073303827084600925
01:00:0A:00:00:00:00;1725495160;05/09/24;00:12:40;1.021;-0.018;0.067;-0.04642575979232788;0.009773843921720982;-0.0012217304902151227
01:00:0A:00:00:00:00;1725495161;05/09/24;00:12:41;1.011;-0.01;0.06;-0.05375614017248154;-0.02687807008624077;0.0
01:00:0A:00:00:00:00;1725495162;05/09/24;00:12:42;1.01;-0.015;0.048;-0.051312677562236786;-0.0073303827084600925;0.010995574295520782
01:00:0A:00:00:00:00;1725495163;05/09/24;00:12:43;1.011;-0.018;0.063;-0.042760565876960754;0.010995574295520782;-0.0036651913542300463
01:00:0A:00:00:00:00;1725495164;05/09/24;00:12:44;1.016;-0.012;0.062;-0.04886921867728233;-0.030543262138962746;-0.0036651913542300463
01:00:0A:00:00:00:00;1725495165;05/09/24;00:12:45;1.019;-0.014;0.046;-0.04642575979232788;-0.014660765416920185;0.0073303827084600925
01:00:0A:00:00:00:00;1725495166;05/09/24;00:12:46;1.019;-0.017;0.065;-0.040317103266716;0.004886921960860491;0.0036651913542300463
01:00:0A:00:00:00:00;1725495167;05/09/24;00:12:47;1.014;-0.012;0.062;-0.042760565876960754;-0.02321287989616394;-0.0024434609804302454
01:00:0A:00:00:00:00;1725495168;05/09/24;00:12:48;1.012;-0.009;0.047;-0.039095375686883926;-0.009773843921720982;0.004886921960860491
01:00:0A:00:00:00:00;1725495169;05/09/24;00:12:49;1.017;-0.018;0.062;-0.03420845419168472;0.0;0.0
01:00:0A:00:00:00:00;1725495170;05/09/24;00:12:50;1.02;-0.017;0.062;-0.036651913076639175;-0.02076941914856434;-0.0036651913542300463
01:00:0A:00:00:00:00;1725495171;05/09/24;00:12:51;1.016;-0.011;0.048;-0.0354301817715168;-0.013439035043120384;0.0073303827084600925
01:00:0A:00:00:00:00;1725495172;05/09/24;00:12:52;1.005;-0.017;0.06;-0.03176499158143997;0.004886921960860491;0.014660765416920185
01:00:0A:00:00:00:00;1725495173;05/09/24;00:12:53;1.001;-0.012;0.061;-0.03176499158143997;-0.030543262138962746;-0.0073303827084600925
01:00:0A:00:00:00:00;1725495174;05/09/24;00:12:54;1.015;-0.008;0.051;-0.030543262138962746;-0.012217304669320583;-0.0024434609804302454
01:00:0A:00:00:00:00;1725495175;05/09/24;00:12:55;1.027;-0.018;0.063;-0.028099799528717995;-0.006108652334660292;0.0
01:00:0A:00:00:00:00;1725495176;05/09/24;00:12:56;1.029;-0.02;0.064;-0.028099799528717995;-0.013439035043120384;0.0
01:00:0A:00:00:00:00;1725495177;05/09/24;00:12:57;1.022;-0.01;0.051;-0.02687807008624077;-0.00855211354792118;0.0073303827084600925
01:00:0A:00:00:00:00;1725495178;05/09/24;00:12:58;1.005;-0.015;0.061;-0.02687807008624077;0.0012217304902151227;0.01710422709584236
01:00:0A:00:00:00:00;1725495179;05/09/24;00:12:59;0.999;-0.016;0.062;-0.025656338781118393;-0.02687807008624077;-0.009773843921720982
01:00:0A:00:00:00:00;1725495180;05/09/24;00:13:00;1.01;-0.011;0.056;-0.024434609338641167;-0.012217304669320583;-0.0012217304902151227
01:00:0A:00:00:00:00;1725495181;05/09/24;00:13:01;1.029;-0.02;0.061;-0.024434609338641167;-0.0073303827084600925;0.0036651913542300463
01:00:0A:00:00:00:00;1725495182;05/09/24;00:13:02;1.031;-0.021;0.06;-0.02321287989616394;-0.010995574295520782;-0.0012217304902151227
01:00:0A:00:00:00:00;1725495183;05/09/24;00:13:03;1.019;-0.011;0.054;-0.024434609338641167;-0.00855211354792118;0.012217304669320583
01:00:0A:00:00:00:00;1725495184;05/09/24;00:13:04;1.01;-0.017;0.06;-0.025656338781118393;-0.004886921960860491;0.021991148591041565
01:00:0A:00:00:00:00;1725495185;05/09/24;00:13:05;0.999;-0.013;0.062;-0.021991148591041565;-0.02321287989616394;-0.009773843921720982
01:00:0A:00:00:00:00;1725495186;05/09/24;00:13:06;1.003;-0.012;0.058;-0.021991148591041565;-0.013439035043120384;-0.0024434609804302454
01:00:0A:00:00:00:00;1725495187;05/09/24;00:13:07;1.021;-0.017;0.06;-0.02321287989616394;-0.013439035043120384;0.0036651913542300463
01:00:0A:00:00:00:00;1725495188;05/09/24;00:13:08;1.029;-0.018;0.059;-0.02076941914856434;-0.014660765416920185;0.0
01:00:0A:00:00:00:00;1725495189;05/09/24;00:13:09;1.025;-0.011;0.056;-0.021991148591041565;-0.013439035043120384;0.006108652334660292
01:00:0A:00:00:00:00;1725495190;05/09/24;00:13:10;1.014;-0.017;0.06;-0.02321287989616394;-0.00855211354792118;0.01710422709584236
01:00:0A:00:00:00:00;1725495191;05/09/24;00:13:11;1.01;-0.018;0.061;-0.019547687843441963;-0.013439035043120384;-0.0012217304902151227
01:00:0A:00:00:00:00;1725495192;05/09/24;00:13:12;1.012;-0.014;0.058;-0.019547687843441963;-0.004886921960860491;0.0024434609804302454
01:00:0A:00:00:00:00;1725495193;05/09/24;00:13:13;1.017;-0.017;0.057;-0.02076941914856434;-0.0073303827084600925;0.00855211354792118
01:00:0A:00:00:00:00;1725495194;05/09/24;00:13:14;1.022;-0.017;0.056;-0.018325956538319588;-0.014660765416920185;-0.0024434609804302454
01:00:0A:00:00:00:00;1725495195;05/09/24;00:13:15;1.016;-0.012;0.055;-0.019547687843441963;-0.015882495790719986;0.0036651913542300463
01:00:0A:00:00:00:00;1725495196;05/09/24;00:13:16;1.011;-0.015;0.06;-0.02076941914856434;-0.01710422709584236;0.00855211354792118
01:00:0A:00:00:00:00;1725495197;05/09/24;00:13:17;1.01;-0.015;0.059;-0.019547687843441963;-0.013439035043120384;-0.004886921960860491
01:00:0A:00:00:00:00;1725495198;05/09/24;00:13:18;1.013;-0.012;0.058;-0.019547687843441963;-0.0073303827084600925;0.0036651913542300463
01:00:0A:00:00:00:00;1725495199;05/09/24;00:13:19;1.02;-0.017;0.057;-0.021991148591041565;-0.00855211354792118;0.006108652334660292
01:00:0A:00:00:00:00;1725495200;05/09/24;00:13:20;1.021;-0.015;0.054;-0.019547687843441963;-0.00855211354792118;-0.0012217304902151227
01:00:0A:00:00:00:00;1725495201;05/09/24;00:13:21;1.018;-0.012;0.054;-0.021991148591041565;-0.010995574295520782;0.0073303827084600925
01:00:0A:00:00:00:00;1725495202;05/09/24;00:13:22;1.014;-0.016;0.058;-0.02321287989616394;-0.012217304669320583;0.00855211354792118
01:00:0A:00:00:00:00;1725495203;05/09/24;00:13:23;1.01;-0.013;0.055;-0.02076941914856434;-0.012217304669320583;-0.0036651913542300463
01:00:0A:00:00:00:00;1725495204;05/09/24;00:13:24;1.012;-0.012;0.057;-0.021991148591041565;-0.010995574295520782;0.0036651913542300463
01:00:0A:00:00:00:00;1725495205;05/09/24;00:13:25;1.014;-0.016;0.059;-0.021991148591041565;-0.012217304669320583;0.0024434609804302454
01:00:0A:00:00:00:00;1725495206;05/09/24;00:13:26;1.015;-0.008;0.061;-0.0354301817715168;-0.0012217304902151227;-0.03176499158143997
01:00:0A:00:00:00:00;1725495207;05/09/24;00:13:27;1.016;0.005;0.066;-0.04764748737215996;-0.012217304669320583;0.0012217304902151227
01:00:0A:00:00:00:00;1725495208;05/09/24;00:13:28;1.018;-0.009;0.06;-0.06719517707824707;-0.01710422709584236;0.025656338781118393
01:00:0A:00:00:00:00;1725495209;05/09/24;00:13:29;1.018;-0.027;0.051;-0.04886921867728233;-0.00855211354792118;0.006108652334660292
01:00:0A:00:00:00:00;1725495210;05/09/24;00:13:30;1.018;-0.011;0.057;-0.03787364438176155;0.0012217304902151227;-0.015882495790719986
01:00:0A:00:00:00:00;1725495211;05/09/24;00:13:31;1.015;-0.009;0.061;-0.04764748737215996;-0.02076941914856434;0.015882495790719986
01:00:0A:00:00:00:00;1725495212;05/09/24;00:13:32;1.013;-0.024;0.052;-0.04153883829712868;-0.014660765416920185;0.00855211354792118
01:00:0A:00:00:00:00;1725495213;05/09/24;00:13:33;1.014;-0.015;0.06;-0.03176499158143997;0.0036651913542300463;-0.010995574295520782
01:00:0A:00:00:00:00;1725495214;05/09/24;00:13:34;1.015;-0.009;0.063;-0.040317103266716;-0.014660765416920185;0.013439035043120384
01:00:0A:00:00:00:00;1725495215;05/09/24;00:13:35;1.016;-0.021;0.052;-0.03787364438176155;-0.015882495790719986;0.00855211354792118
01:00:0A:00:00:00:00;1725495216;05/09/24;00:13:36;1.016;-0.013;0.057;-0.02932153083384037;0.0;-0.009773843921720982
01:00:0A:00:00:00:00;1725495217;05/09/24;00:13:37;1.016;-0.011;0.063;-0.0354301817715168;-0.02076941914856434;0.004886921960860491
01:00:0A:00:00:00:00;1725495218;05/09/24;00:13:38;1.015;-0.022;0.054;-0.03298672288656235;-0.01710422709584236;0.0024434609804302454
01:00:0A:00:00:00:00;1725495219;05/09/24;00:13:39;1.018;-0.017;0.059;-0.02687807008624077;0.0012217304902151227;-0.0012217304902151227
01:00:0A:00:00:00:00;1725495220;05/09/24;00:13:40;1.022;-0.009;0.062;-0.03176499158143997;-0.013439035043120384;0.014660765416920185
01:00:0A:00:00:00:00;1725495221;05/09/24;00:13:41;1.016;-0.014;0.049;-0.028099799528717995;-0.015882495790719986;0.006108652334660292
01:00:0A:00:00:00:00;1725495222;05/09/24;00:13:42;1.014;-0.01;0.058;-0.02321287989616394;0.0012217304902151227;-0.006108652334660292
01:00:0A:00:00:00:00;1725495223;05/09/24;00:13:43;1.009;-0.011;0.06;-0.028099799528717995;-0.021991148591041565;0.0
01:00:0A:00:00:00:00;1725495224;05/09/24;00:13:44;1.009;-0.021;0.053;-0.025656338781118393;-0.018325956538319588;0.0
01:00:0A:00:00:00:00;1725495225;05/09/24;00:13:45;1.012;-0.017;0.059;-0.021991148591041565;-0.0012217304902151227;0.0012217304902151227
01:00:0A:00:00:00:00;1725495226;05/09/24;00:13:46;1.018;-0.013;0.063;-0.025656338781118393;-0.01710422709584236;0.013439035043120384
01:00:0A:00:00:00:00;1725495227;05/09/24;00:13:47;1.023;-0.014;0.052;-0.021991148591041565;-0.013439035043120384;0.0036651913542300463
01:00:0A:00:00:00:00;1725495228;05/09/24;00:13:48;1.02;-0.011;0.058;-0.018325956538319588;-0.004886921960860491;-0.00855211354792118
01:00:0A:00:00:00:00;1725495229;05/09/24;00:13:49;1.017;-0.014;0.059;-0.02076941914856434;-0.019547687843441963;-0.0036651913542300463
01:00:0A:00:00:00:00;1725495230;05/09/24;00:13:50;1.013;-0.018;0.054;-0.018325956538319588;-0.014660765416920185;-0.0036651913542300463
01:00:0A:00:00:00:00;1725495231;05/09/24;00:13:51;1.011;-0.016;0.061;-0.015882495790719986;-0.0012217304902151227;0.0036651913542300463
01:00:0A:00:00:00:00;1725495232;05/09/24;00:13:52;1.013;-0.015;0.06;-0.019547687843441963;-0.015882495790719986;0.014660765416920185
01:00:0A:00:00:00:00;1725495233;05/09/24;00:13:53;1.016;-0.011;0.053;-0.01710422709584236;-0.013439035043120384;0.0036651913542300463
01:00:0A:00:00:00:00;1725495234;05/09/24;00:13:54;1.017;-0.01;0.057;-0.013439035043120384;-0.0073303827084600925;-0.0036651913542300463
01:00:0A:00:00:00:00;1725495235;05/09/24;00:13:55;1.017;-0.016;0.059;-0.015882495790719986;-0.019547687843441963;-0.0024434609804302454
01:00:0A:00:00:00:00;1725495236;05/09/24;00:13:56;1.018;-0.019;0.055;-0.014660765416920185;-0.012217304669320583;-0.0012217304902151227
01:00:0A:00:00:00:00;1725495237;05/09/24;00:13:57;1.017;-0.018;0.06;-0.013439035043120384;-0.0024434609804302454;0.009773843921720982
01:00:0A:00:00:00:00;1725495238;05/09/24;00:13:58;1.016;-0.016;0.059;-0.015882495790719986;-0.013439035043120384;0.015882495790719986
01:00:0A:00:00:00:00;1725495239;05/09/24;00:13:59;1.015;-0.011;0.054;-0.013439035043120384;-0.012217304669320583;0.006108652334660292
01:00:0A:00:00:00:00;1725495240;05/09/24;00:14:00;1.015;-0.008;0.058;-0.010995574295520782;-0.004886921960860491;-0.0024434609804302454
01:00:0A:00:00:00:00;1725495241;05/09/24;00:14:01;1.013;-0.014;0.058;-0.012217304669320583;-0.014660765416920185;-0.00855211354792118
01:00:0A:00:00:00:00;1725495242;05/09/24;00:14:02;1.015;-0.018;0.054;-0.012217304669320583;-0.013439035043120384;-0.0012217304902151227
01:00:0A:00:00:00:00;1725495243;05/09/24;00:14:03;1.016;-0.019;0.057;-0.010995574295520782;-0.0073303827084600925;0.006108652334660292
01:00:0A:00:00:00:00;1725495244;05/09/24;00:14:04;1.017;-0.016;0.059;-0.013439035043120384;-0.014660765416920185;0.015882495790719986
01:00:0A:00:00:00:00;1725495245;05/09/24;00:14:05;1.018;-0.013;0.055;-0.010995574295520782;-0.013439035043120384;0.00855211354792118
01:00:0A:00:00:00:00;1725495246;05/09/24;00:14:06;1.016;-0.01;0.058;-0.009773843921720982;-0.0073303827084600925;-0.0024434609804302454
01:00:0A:00:00:00:00;1725495247;05/09/24;00:14:07;1.016;-0.013;0.059;-0.010995574295520782;-0.012217304669320583;-0.0073303827084600925
01:00:0A:00:00:00:00;1725495248;05/09/24;00:14:08;1.015;-0.019;0.056;-0.010995574295520782;-0.012217304669320583;-0.0024434609804302454
01:00:0A:00:00:00:00;1725495249;05/09/24;00:14:09;1.015;-0.016;0.056;-0.010995574295520782;-0.0073303827084600925;0.0024434609804302454
01:00:0A:00:00:00:00;1725495250;05/09/24;00:14:10;1.014;-0.016;0.058;-0.012217304669320583;-0.010995574295520782;0.0073303827084600925
01:00:0A:00:00:00:00;1725495251;05/09/24;00:14:11;1.013;-0.017;0.062;-0.042760565876960754;-0.0073303827084600925;0.006108652334660292
01:00:0A:00:00:00:00;1725495252;05/09/24;00:14:12;1.015;-0.017;0.061;-0.07330382615327835;-0.014660765416920185;-0.004886921960860491
01:00:0A:00:00:00:00;1725495253;05/09/24;00:14:13;1.016;-0.013;0.054;-0.07452555745840073;-0.015882495790719986;-0.00855211354792118
01:00:0A:00:00:00:00;1725495254;05/09/24;00:14:14;1.018;-0.015;0.055;-0.0708603635430336;-0.006108652334660292;0.0036651913542300463
01:00:0A:00:00:00:00;1725495255;05/09/24;00:14:15;1.017;-0.019;0.06;-0.06841690838336945;-0.010995574295520782;0.004886921960860491
01:00:0A:00:00:00:00;1725495256;05/09/24;00:14:16;1.016;-0.013;0.056;-0.0659734457731247;-0.015882495790719986;-0.0024434609804302454
01:00:0A:00:00:00:00;1725495257;05/09/24;00:14:17;1.014;-0.012;0.056;-0.06475171446800232;-0.00855211354792118;0.004886921960860491
01:00:0A:00:00:00:00;1725495258;05/09/24;00:14:18;1.012;-0.018;0.059;-0.06108652427792549;-0.0073303827084600925;0.0
01:00:0A:00:00:00:00;1725495259;05/09/24;00:14:19;1.016;-0.014;0.057;-0.059864792972803116;-0.015882495790719986;-0.0036651913542300463
01:00:0A:00:00:00:00;1725495260;05/09/24;00:14:20;1.016;-0.013;0.056;-0.05864306166768074;-0.010995574295520782;0.0024434609804302454
01:00:0A:00:00:00:00;1725495261;05/09/24;00:14:21;1.016;-0.017;0.057;-0.05742133408784866;-0.010995574295520782;0.004886921960860491
01:00:0A:00:00:00:00;1725495262;05/09/24;00:14:22;1.016;-0.012;0.059;-0.05619959905743599;-0.013439035043120384;-0.0024434609804302454
01:00:0A:00:00:00:00;1725495263;05/09/24;00:14:23;1.016;-0.012;0.056;-0.05619959905743599;-0.010995574295520782;0.0024434609804302454
01:00:0A:00:00:00:00;1725495264;05/09/24;00:14:24;1.016;-0.016;0.058;-0.05497787147760391;-0.00855211354792118;0.004886921960860491
01:00:0A:00:00:00:00;1725495265;05/09/24;00:14:25;1.015;-0.015;0.058;-0.05375614017248154;-0.014660765416920185;0.0
01:00:0A:00:00:00:00;1725495266;05/09/24;00:14:26;1.016;-0.013;0.057;-0.05375614017248154;-0.014660765416920185;0.0012217304902151227
01:00:0A:00:00:00:00;1725495267;05/09/24;00:14:27;1.016;-0.015;0.057;-0.05253440886735916;-0.0073303827084600925;0.0024434609804302454
01:00:0A:00:00:00:00;1725495268;05/09/24;00:14:28;1.018;-0.015;0.06;-0.051312677562236786;-0.012217304669320583;-0.0012217304902151227
01:00:0A:00:00:00:00;1725495269;05/09/24;00:14:29;1.019;-0.013;0.057;-0.05009094998240471;-0.009773843921720982;0.0
01:00:0A:00:00:00:00;1725495270;05/09/24;00:14:30;1.017;-0.015;0.057;-0.05009094998240471;-0.00855211354792118;0.004886921960860491
01:00:0A:00:00:00:00;1725495271;05/09/24;00:14:31;1.014;-0.014;0.059;-0.04886921867728233;-0.012217304669320583;0.0012217304902151227
01:00:0A:00:00:00:00;1725495272;05/09/24;00:14:32;1.011;-0.013;0.057;-0.04886921867728233;-0.015882495790719986;0.0012217304902151227
01:00:0A:00:00:00:00;1725495273;05/09/24;00:14:33;1.01;-0.015;0.057;-0.04886921867728233;-0.010995574295520782;0.0036651913542300463
01:00:0A:00:00:00:00;1725495274;05/09/24;00:14:34;1.016;-0.016;0.057;-0.04764748737215996;-0.01710422709584236;-0.0024434609804302454
01:00:0A:00:00:00:00;1725495275;05/09/24;00:14:35;1.022;-0.014;0.058;-0.04642575979232788;-0.015882495790719986;0.0
01:00:0A:00:00:00:00;1725495276;05/09/24;00:14:36;1.023;-0.015;0.058;-0.04642575979232788;-0.009773843921720982;0.0036651913542300463
01:00:0A:00:00:00:00;1725495277;05/09/24;00:14:37;1.017;-0.016;0.058;-0.045204028487205505;-0.006108652334660292;0.0036651913542300463
01:00:0A:00:00:00:00;1725495278;05/09/24;00:14:38;1.01;-0.013;0.055;-0.04398229718208313;-0.010995574295520782;0.0
01:00:0A:00:00:00:00;1725495279;05/09/24;00:14:39;1.008;-0.014;0.056;-0.04398229718208313;-0.00855211354792118;0.004886921960860491
01:00:0A:00:00:00:00;1725495280;05/09/24;00:14:40;1.012;-0.015;0.056;-0.042760565876960754;-0.01710422709584236;-0.0012217304902151227
01:00:0A:00:00:00:00;1725495281;05/09/24;00:14:41;1.016;-0.013;0.056;-0.042760565876960754;-0.019547687843441963;-0.0036651913542300463
01:00:0A:00:00:00:00;1725495282;05/09/24;00:14:42;1.019;-0.014;0.058;-0.04153883829712868;-0.009773843921720982;0.004886921960860491
01:00:0A:00:00:00:00;1725495283;05/09/24;00:14:43;1.018;-0.015;0.06;-0.04153883829712868;-0.00855211354792118;0.0036651913542300463
01:00:0A:00:00:00:00;1725495284;05/09/24;00:14:44;1.012;-0.012;0.056;-0.040317103266716;-0.0073303827084600925;0.0036651913542300463
01:00:0A:00:00:00:00;1725495285;05/09/24;00:14:45;1.011;-0.012;0.055;-0.039095375686883926;-0.010995574295520782;0.0036651913542300463
01:00:0A:00:00:00:00;1725495286;05/09/24;00:14:46;1.014;-0.014;0.057;-0.03787364438176155;-0.015882495790719986;-0.0024434609804302454
01:00:0A:00:00:00:00;1725495287;05/09/24;00:14:47;1.019;-0.015;0.058;-0.03787364438176155;-0.01710422709584236;-0.0036651913542300463
01:00:0A:00:00:00:00;1725495288;05/09/24;00:14:48;1.02;-0.016;0.061;-0.036651913076639175;-0.009773843921720982;0.0036651913542300463
01:00:0A:00:00:00:00;1725495289;05/09/24;00:14:49;1.016;-0.016;0.059;-0.0354301817715168;-0.0024434609804302454;0.00855211354792118
01:00:0A:00:00:00:00;1725495290;05/09/24;00:14:50;1.014;-0.013;0.056;-0.03420845419168472;-0.004886921960860491;0.006108652334660292
01:00:0A:00:00:00:00;1725495291;05/09/24;00:14:51;1.011;-0.011;0.055;-0.03420845419168472;-0.012217304669320583;0.0012217304902151227
01:00:0A:00:00:00:00;1725495292;05/09/24;00:14:52;1.013;-0.013;0.055;-0.03176499158143997;-0.018325956538319588;-0.004886921960860491
01:00:0A:00:00:00:00;1725495293;05/09/24;00:14:53;1.017;-0.015;0.057;-0.03176499158143997;-0.01710422709584236;-0.006108652334660292
01:00:0A:00:00:00:00;1725495294;05/09/24;00:14:54;1.02;-0.017;0.059;-0.030543262138962746;-0.012217304669320583;0.0012217304902151227
01:00:0A:00:00:00:00;1725495295;05/09/24;00:14:55;1.02;-0.017;0.059;-0.030543262138962746;-0.006108652334660292;0.00855211354792118
01:00:0A:00:00:00:00;1725495296;05/09/24;00:14:56;1.015;-0.011;0.056;-0.030543262138962746;-0.006108652334660292;0.00855211354792118
01:00:0A:00:00:00:00;1725495297;05/09/24;00:14:57;1.013;-0.011;0.055;-0.02932153083384037;-0.009773843921720982;0.004886921960860491
01:00:0A:00:00:00:00;1725495298;05/09/24;00:14:58;1.012;-0.013;0.057;-0.028099799528717995;-0.015882495790719986;-0.006108652334660292
01:00:0A:00:00:00:00;1725495299;05/09/24;00:14:59;1.015;-0.015;0.058;-0.02687807008624077;-0.013439035043120384;-0.0024434609804302454
01:00:0A:00:00:00:00;1725495300;05/09/24;00:15:00;1.018;-0.017;0.058;-0.02687807008624077;-0.012217304669320583;0.0024434609804302454
01:00:0A:00:00:00:00;1725495301;05/09/24;00:15:01;1.016;-0.017;0.06;-0.02687807008624077;-0.009773843921720982;0.006108652334660292
01:00:0A:00:00:00:00;1725495302;05/09/24;00:15:02;1.016;-0.012;0.058;-0.025656338781118393;-0.0073303827084600925;0.0073303827084600925
01:00:0A:00:00:00:00;1725495303;05/09/24;00:15:03;1.016;-0.012;0.058;-0.025656338781118393;-0.009773843921720982;0.006108652334660292
01:00:0A:00:00:00:00;1725495304;05/09/24;00:15:04;1.016;-0.012;0.057;-0.024434609338641167;-0.012217304669320583;-0.0012217304902151227
01:00:0A:00:00:00:00;1725495305;05/09/24;00:15:05;1.016;-0.016;0.058;-0.02321287989616394;-0.010995574295520782;-0.0012217304902151227
01:00:0A:00:00:00:00;1725495306;05/09/24;00:15:06;1.016;-0.015;0.058;-0.02321287989616394;-0.010995574295520782;0.004886921960860491
01:00:0A:00:00:00:00;1725495307;05/09/24;00:15:07;1.016;-0.015;0.056;-0.02321287989616394;-0.010995574295520782;0.006108652334660292
01:00:0A:00:00:00:00;1725495308;05/09/24;00:15:08;1.015;-0.014;0.057;-0.021991148591041565;-0.010995574295520782;0.0073303827084600925
01:00:0A:00:00:00:00;1725495309;05/09/24;00:15:09;1.015;-0.013;0.058;-0.021991148591041565;-0.010995574295520782;0.0036651913542300463
01:00:0A:00:00:00:00;1725495310;05/09/24;00:15:10;1.016;-0.014;0.057;-0.02076941914856434;-0.010995574295520782;0.0012217304902151227
01:00:0A:00:00:00:00;1725495311;05/09/24;00:15:11;1.016;-0.013;0.058;-0.019547687843441963;-0.009773843921720982;0.0
01:00:0A:00:00:00:00;1725495312;05/09/24;00:15:12;1.016;-0.015;0.059;-0.02076941914856434;-0.010995574295520782;0.0036651913542300463
01:00:0A:00:00:00:00;1725495313;05/09/24;00:15:13;1.016;-0.016;0.059;-0.019547687843441963;-0.009773843921720982;0.0036651913542300463
01:00:0A:00:00:00:00;1725495314;05/09/24;00:15:14;1.016;-0.016;0.058;-0.019547687843441963;-0.009773843921720982;0.004886921960860491
01:00:0A:00:00:00:00;1725495315;05/09/24;00:15:15;1.016;-0.015;0.057;-0.019547687843441963;-0.009773843921720982;0.004886921960860491
01:00:0A:00:00:00:00;1725495316;05/09/24;00:15:16;1.016;-0.015;0.058;-0.018325956538319588;-0.010995574295520782;0.0036651913542300463
