Source;Epoch timestamp (UTC);Date;Time (UTC);Accel X (G);Accel Y (G);Accel Z (G);Gyro X (rad/s);Gyro Y (rad/s);Gyro Z (rad/s)
01:00:0A:00:00:00:00;1724630406;26/08/24;00:00:06;1.015;-0.029;0.07;0.039095375686883926;-0.012217304669320583;0.0024434609804302454
01:00:0A:00:00:00:00;1724630407;26/08/24;00:00:07;1.016;-0.026;0.072;0.039095375686883926;-0.010995574295520782;0.0012217304902151227
01:00:0A:00:00:00:00;1724630408;26/08/24;00:00:08;1.016;-0.028;0.071;0.036651913076639175;-0.012217304669320583;0.009773843921720982
01:00:0A:00:00:00:00;1724630409;26/08/24;00:00:09;1.016;-0.03;0.071;0.039095375686883926;-0.010995574295520782;0.0036651913542300463
01:00:0A:00:00:00:00;1724630410;26/08/24;00:00:10;1.016;-0.025;0.07;0.039095375686883926;-0.010995574295520782;0.0036651913542300463
01:00:0A:00:00:00:00;1724630411;26/08/24;00:00:11;1.015;-0.027;0.072;0.03787364438176155;-0.012217304669320583;0.009773843921720982
01:00:0A:00:00:00:00;1724630412;26/08/24;00:00:12;1.015;-0.028;0.071;0.039095375686883926;-0.010995574295520782;0.0036651913542300463
01:00:0A:00:00:00:00;1724630413;26/08/24;00:00:13;1.015;-0.025;0.07;0.039095375686883926;-0.012217304669320583;0.0036651913542300463
01:00:0A:00:00:00:00;1724630414;26/08/24;00:00:14;1.015;-0.028;0.071;0.03787364438176155;-0.010995574295520782;0.00855211354792118
01:00:0A:00:00:00:00;1724630415;26/08/24;00:00:15;1.016;-0.03;0.07;0.040317103266716;-0.012217304669320583;0.0012217304902151227
01:00:0A:00:00:00:00;1724630416;26/08/24;00:00:16;1.016;-0.027;0.071;0.039095375686883926;-0.010995574295520782;0.0036651913542300463
01:00:0A:00:00:00:00;1724630417;26/08/24;00:00:17;1.015;-0.027;0.07;0.03787364438176155;-0.010995574295520782;0.009773843921720982
01:00:0A:00:00:00:00;1724630418;26/08/24;00:00:18;1.016;-0.029;0.071;0.039095375686883926;-0.010995574295520782;0.0024434609804302454
01:00:0A:00:00:00:00;1724630419;26/08/24;00:00:19;1.015;-0.026;0.07;0.039095375686883926;-0.012217304669320583;0.0024434609804302454
01:00:0A:00:00:00:00;1724630420;26/08/24;00:00:20;1.016;-0.028;0.072;0.03787364438176155;-0.010995574295520782;0.00855211354792118
01:00:0A:00:00:00:00;1724630421;26/08/24;00:00:21;1.016;-0.029;0.073;0.039095375686883926;-0.012217304669320583;0.0012217304902151227
01:00:0A:00:00:00:00;1724630422;26/08/24;00:00:22;1.016;-0.026;0.071;0.03787364438176155;-0.012217304669320583;0.004886921960860491
01:00:0A:00:00:00:00;1724630423;26/08/24;00:00:23;1.016;-0.029;0.071;0.03787364438176155;-0.010995574295520782;0.009773843921720982
01:00:0A:00:00:00:00;1724630424;26/08/24;00:00:24;1.015;-0.028;0.072;0.03787364438176155;-0.012217304669320583;0.0024434609804302454
01:00:0A:00:00:00:00;1724630425;26/08/24;00:00:25;1.015;-0.024;0.07;0.03787364438176155;-0.012217304669320583;0.004886921960860491
01:00:0A:00:00:00:00;1724630426;26/08/24;00:00:26;1.016;-0.028;0.071;0.036651913076639175;-0.009773843921720982;0.00855211354792118
01:00:0A:00:00:00:00;1724630427;26/08/24;00:00:27;1.016;-0.028;0.072;0.03787364438176155;-0.013439035043120384;0.0012217304902151227
01:00:0A:00:00:00:00;1724630428;26/08/24;00:00:28;1.016;-0.027;0.07;0.036651913076639175;-0.012217304669320583;0.004886921960860491
01:00:0A:00:00:00:00;1724630429;26/08/24;00:00:29;1.016;-0.028;0.072;0.036651913076639175;-0.009773843921720982;0.009773843921720982
01:00:0A:00:00:00:00;1724630430;26/08/24;00:00:30;1.015;-0.029;0.072;0.036651913076639175;-0.012217304669320583;0.0024434609804302454
01:00:0A:00:00:00:00;1724630431;26/08/24;00:00:31;1.015;-0.026;0.07;0.0354301817715168;-0.010995574295520782;0.006108652334660292
01:00:0A:00:00:00:00;1724630432;26/08/24;00:00:32;1.015;-0.03;0.073;0.0354301817715168;-0.009773843921720982;0.0073303827084600925
01:00:0A:00:00:00:00;1724630433;26/08/24;00:00:33;1.015;-0.027;0.071;0.0354301817715168;-0.013439035043120384;0.0012217304902151227
01:00:0A:00:00:00:00;1724630434;26/08/24;00:00:34;1.016;-0.026;0.07;0.0354301817715168;-0.010995574295520782;0.006108652334660292
01:00:0A:00:00:00:00;1724630435;26/08/24;00:00:35;1.015;-0.029;0.073;0.0354301817715168;-0.009773843921720982;0.0073303827084600925
01:00:0A:00:00:00:00;1724630436;26/08/24;00:00:36;1.016;-0.028;0.073;0.0354301817715168;-0.013439035043120384;0.0012217304902151227
01:00:0A:00:00:00:00;1724630437;26/08/24;00:00:37;1.016;-0.026;0.07;0.03420845419168472;-0.010995574295520782;0.0073303827084600925
01:00:0A:00:00:00:00;1724630438;26/08/24;00:00:38;1.016;-0.029;0.072;0.03420845419168472;-0.009773843921720982;0.0073303827084600925
01:00:0A:00:00:00:00;1724630439;26/08/24;00:00:39;1.015;-0.027;0.073;0.03420845419168472;-0.014660765416920185;0.0012217304902151227
01:00:0A:00:00:00:00;1724630440;26/08/24;00:00:40;1.016;-0.026;0.07;0.03298672288656235;-0.010995574295520782;0.0073303827084600925
01:00:0A:00:00:00:00;1724630441;26/08/24;00:00:41;1.016;-0.029;0.072;0.03298672288656235;-0.009773843921720982;0.006108652334660292
01:00:0A:00:00:00:00;1724630442;26/08/24;00:00:42;1.016;-0.028;0.073;0.03298672288656235;-0.014660765416920185;0.0012217304902151227
01:00:0A:00:00:00:00;1724630443;26/08/24;00:00:43;1.016;-0.027;0.07;0.03298672288656235;-0.009773843921720982;0.006108652334660292
01:00:0A:00:00:00:00;1724630444;26/08/24;00:00:44;1.014;-0.03;0.073;0.03176499158143997;-0.009773843921720982;0.006108652334660292
01:00:0A:00:00:00:00;1724630445;26/08/24;00:00:45;1.016;-0.027;0.072;0.03176499158143997;-0.014660765416920185;0.0024434609804302454
01:00:0A:00:00:00:00;1724630446;26/08/24;00:00:46;1.015;-0.026;0.07;0.03176499158143997;-0.009773843921720982;0.0073303827084600925
01:00:0A:00:00:00:00;1724630447;26/08/24;00:00:47;1.015;-0.028;0.074;0.03176499158143997;-0.010995574295520782;0.004886921960860491
01:00:0A:00:00:00:00;1724630448;26/08/24;00:00:48;1.016;-0.026;0.071;0.030543262138962746;-0.014660765416920185;0.0012217304902151227
01:00:0A:00:00:00:00;1724630449;26/08/24;00:00:49;1.016;-0.026;0.069;0.030543262138962746;-0.009773843921720982;0.006108652334660292
01:00:0A:00:00:00:00;1724630450;26/08/24;00:00:50;1.015;-0.029;0.074;0.030543262138962746;-0.009773843921720982;0.006108652334660292
01:00:0A:00:00:00:00;1724630451;26/08/24;00:00:51;1.016;-0.027;0.07;0.02932153083384037;-0.014660765416920185;0.0024434609804302454
01:00:0A:00:00:00:00;1724630452;26/08/24;00:00:52;1.015;-0.026;0.07;0.02932153083384037;-0.00855211354792118;0.0073303827084600925
01:00:0A:00:00:00:00;1724630453;26/08/24;00:00:53;1.015;-0.027;0.073;0.02932153083384037;-0.010995574295520782;0.004886921960860491
01:00:0A:00:00:00:00;1724630454;26/08/24;00:00:54;1.015;-0.027;0.072;0.028099799528717995;-0.014660765416920185;0.0024434609804302454
01:00:0A:00:00:00:00;1724630455;26/08/24;00:00:55;1.016;-0.027;0.07;0.02932153083384037;-0.00855211354792118;0.006108652334660292
01:00:0A:00:00:00:00;1724630456;26/08/24;00:00:56;1.016;-0.028;0.073;0.028099799528717995;-0.010995574295520782;0.0036651913542300463
01:00:0A:00:00:00:00;1724630457;26/08/24;00:00:57;1.016;-0.027;0.07;0.02687807008624077;-0.014660765416920185;0.0036651913542300463
01:00:0A:00:00:00:00;1724630458;26/08/24;00:00:58;1.015;-0.028;0.07;0.028099799528717995;-0.0073303827084600925;0.0073303827084600925
01:00:0A:00:00:00:00;1724630459;26/08/24;00:00:59;1.015;-0.029;0.073;0.02687807008624077;-0.010995574295520782;0.004886921960860491
01:00:0A:00:00:00:00;1724630460;26/08/24;00:01:00;1.016;-0.026;0.07;0.02687807008624077;-0.014660765416920185;0.0036651913542300463
01:00:0A:00:00:00:00;1724630461;26/08/24;00:01:01;1.016;-0.027;0.07;0.02687807008624077;-0.00855211354792118;0.006108652334660292
01:00:0A:00:00:00:00;1724630462;26/08/24;00:01:02;1.015;-0.028;0.073;0.025656338781118393;-0.012217304669320583;0.004886921960860491
01:00:0A:00:00:00:00;1724630463;26/08/24;00:01:03;1.016;-0.027;0.069;0.025656338781118393;-0.014660765416920185;0.0036651913542300463
01:00:0A:00:00:00:00;1724630464;26/08/24;00:01:04;1.016;-0.027;0.071;0.02687807008624077;-0.0073303827084600925;0.006108652334660292
01:00:0A:00:00:00:00;1724630465;26/08/24;00:01:05;1.014;-0.028;0.073;0.025656338781118393;-0.012217304669320583;0.004886921960860491
01:00:0A:00:00:00:00;1724630466;26/08/24;00:01:06;1.016;-0.026;0.07;0.025656338781118393;-0.014660765416920185;0.0036651913542300463
01:00:0A:00:00:00:00;1724630467;26/08/24;00:01:07;1.014;-0.027;0.071;0.02687807008624077;-0.0073303827084600925;0.004886921960860491
01:00:0A:00:00:00:00;1724630468;26/08/24;00:01:08;1.015;-0.027;0.073;0.024434609338641167;-0.013439035043120384;0.0036651913542300463
01:00:0A:00:00:00:00;1724630469;26/08/24;00:01:09;1.016;-0.027;0.07;0.024434609338641167;-0.013439035043120384;0.0036651913542300463
01:00:0A:00:00:00:00;1724630470;26/08/24;00:01:10;1.016;-0.028;0.073;0.025656338781118393;-0.0073303827084600925;0.006108652334660292
01:00:0A:00:00:00:00;1724630471;26/08/24;00:01:11;1.016;-0.028;0.073;0.024434609338641167;-0.012217304669320583;0.004886921960860491
01:00:0A:00:00:00:00;1724630472;26/08/24;00:01:12;1.015;-0.026;0.069;0.024434609338641167;-0.013439035043120384;0.004886921960860491
01:00:0A:00:00:00:00;1724630473;26/08/24;00:01:13;1.016;-0.028;0.072;0.025656338781118393;-0.006108652334660292;0.004886921960860491
01:00:0A:00:00:00:00;1724630474;26/08/24;00:01:14;1.016;-0.027;0.072;0.025656338781118393;-0.010995574295520782;-0.0036651913542300463
01:00:0A:00:00:00:00;1724630475;26/08/24;00:01:15;1.019;-0.024;0.074;0.021991148591041565;-0.015882495790719986;0.0036651913542300463
01:00:0A:00:00:00:00;1724630476;26/08/24;00:01:16;1.016;-0.029;0.076;0.02076941914856434;-0.010995574295520782;0.0012217304902151227
01:00:0A:00:00:00:00;1724630477;26/08/24;00:01:17;1.015;-0.034;0.075;0.021991148591041565;-0.0036651913542300463;0.0036651913542300463
01:00:0A:00:00:00:00;1724630478;26/08/24;00:01:18;1.014;-0.028;0.072;0.02076941914856434;-0.0036651913542300463;0.00855211354792118
01:00:0A:00:00:00:00;1724630479;26/08/24;00:01:19;1.013;-0.027;0.069;0.019547687843441963;-0.006108652334660292;0.018325956538319588
01:00:0A:00:00:00:00;1724630480;26/08/24;00:01:20;1.015;-0.022;0.071;0.02076941914856434;-0.010995574295520782;0.0024434609804302454
01:00:0A:00:00:00:00;1724630481;26/08/24;00:01:21;1.019;-0.016;0.071;0.02076941914856434;-0.021991148591041565;-0.013439035043120384
01:00:0A:00:00:00:00;1724630482;26/08/24;00:01:22;1.022;-0.029;0.072;0.021991148591041565;-0.013439035043120384;-0.0073303827084600925
01:00:0A:00:00:00:00;1724630483;26/08/24;00:01:23;1.016;-0.035;0.081;0.02076941914856434;-0.00855211354792118;0.0024434609804302454
01:00:0A:00:00:00:00;1724630484;26/08/24;00:01:24;0.999;-0.034;0.078;0.01710422709584236;-0.00855211354792118;0.012217304669320583
01:00:0A:00:00:00:00;1724630485;26/08/24;00:01:25;0.997;-0.032;0.076;0.02076941914856434;0.015882495790719986;0.013439035043120384
01:00:0A:00:00:00:00;1724630486;26/08/24;00:01:26;1.017;-0.025;0.073;0.015882495790719986;-0.00855211354792118;0.0036651913542300463
01:00:0A:00:00:00:00;1724630487;26/08/24;00:01:27;1.032;-0.026;0.066;0.012217304669320583;-0.024434609338641167;-0.004886921960860491
01:00:0A:00:00:00:00;1724630488;26/08/24;00:01:28;1.037;-0.025;0.075;0.010995574295520782;-0.028099799528717995;-0.0024434609804302454
01:00:0A:00:00:00:00;1724630489;26/08/24;00:01:29;1.014;-0.04;0.094;0.0073303827084600925;-0.006108652334660292;0.009773843921720982
01:00:0A:00:00:00:00;1724630490;26/08/24;00:01:30;1.001;-0.036;0.078;0.012217304669320583;-0.010995574295520782;0.004886921960860491
01:00:0A:00:00:00:00;1724630491;26/08/24;00:01:31;0.985;-0.023;0.058;0.02687807008624077;0.012217304669320583;0.0073303827084600925
01:00:0A:00:00:00:00;1724630492;26/08/24;00:01:32;0.988;-0.031;0.074;0.03298672288656235;0.03176499158143997;0.03176499158143997
01:00:0A:00:00:00:00;1724630493;26/08/24;00:01:33;1.025;-0.041;0.074;0.042760565876960754;-0.07452555745840073;-0.03787364438176155
01:00:0A:00:00:00:00;1724630494;26/08/24;00:01:34;1.049;0.006;0.03;0.08552113175392151;0.036651913076639175;-0.03420845419168472
01:00:0A:00:00:00:00;1724630495;26/08/24;00:01:35;1.045;0.013;0.173;0.05375614017248154;0.05253440886735916;0.10506881773471832
01:00:0A:00:00:00:00;1724630496;26/08/24;00:01:36;1.015;-0.078;0.04;0.06108652427792549;-0.18448130786418915;0.10018189996480942
01:00:0A:00:00:00:00;1724630497;26/08/24;00:01:37;0.985;-0.034;0.063;0.21624629199504852;0.025656338781118393;-0.04398229718208313
01:00:0A:00:00:00:00;1724630498;26/08/24;00:01:38;0.976;0.015;0.021;0.2871066629886627;-0.019547687843441963;-0.15882496535778046
01:00:0A:00:00:00:00;1724630499;26/08/24;00:01:39;0.997;0.04;0.041;0.3384193480014801;0.1319468915462494;0.10873401165008545
01:00:0A:00:00:00:00;1724630500;26/08/24;00:01:40;1.036;-0.081;0.115;0.33597588539123535;0.03298672288656235;0.036651913076639175
01:00:0A:00:00:00:00;1724630501;26/08/24;00:01:41;1.046;0.015;0.1;0.2736676335334778;-0.06841690838336945;0.11728612333536148
01:00:0A:00:00:00:00;1724630502;26/08/24;00:01:42;1.025;-0.177;0.017;0.3384193480014801;0.018325956538319588;0.11362093687057495
01:00:0A:00:00:00:00;1724630503;26/08/24;00:01:43;1.005;0.103;0.115;0.3188716471195221;-0.025656338781118393;-0.1661553531885147
01:00:0A:00:00:00:00;1724630504;26/08/24;00:01:44;1.0;-0.06;0.005;0.16859880089759827;-0.11972958594560623;0.37751471996307373
01:00:0A:00:00:00:00;1724630505;26/08/24;00:01:45;0.996;-0.144;0.111;0.29077184200286865;0.025656338781118393;-0.1820378452539444
01:00:0A:00:00:00:00;1724630506;26/08/24;00:01:46;1.023;0.059;0.04;0.22357667982578278;-0.1514945775270462;0.042760565876960754
01:00:0A:00:00:00:00;1724630507;26/08/24;00:01:47;1.029;-0.189;0.049;0.2919935882091522;0.15027284622192383;0.14905111491680145
01:00:0A:00:00:00:00;1724630508;26/08/24;00:01:48;1.003;-0.017;0.289;0.2125810980796814;0.06475171446800232;-0.2028072476387024
01:00:0A:00:00:00:00;1724630509;26/08/24;00:01:49;1.016;0.013;-0.039;0.009773843921720982;-0.3384193480014801;0.1966986060142517
01:00:0A:00:00:00:00;1724630510;26/08/24;00:01:50;1.007;-0.194;0.054;0.2370157092809677;0.2528982162475586;0.03420845419168472
01:00:0A:00:00:00:00;1724630511;26/08/24;00:01:51;1.001;0.115;0.099;0.2223549485206604;-0.1270599663257599;-0.2321287840604782
01:00:0A:00:00:00:00;1724630512;26/08/24;00:01:52;0.996;-0.144;0.013;0.18448130786418915;-0.06963863223791122;0.32620203495025635
01:00:0A:00:00:00:00;1724630513;26/08/24;00:01:53;0.986;-0.015;0.069;0.35674530267715454;0.07452555745840073;-0.35185837745666504
01:00:0A:00:00:00:00;1724630514;26/08/24;00:01:54;0.965;0.126;0.221;0.21868975460529327;0.3188716471195221;0.45204028487205505
01:00:0A:00:00:00:00;1724630515;26/08/24;00:01:55;0.954;-0.203;0.24;0.04153883829712868;-0.7880162000656128;-0.09162978082895279
01:00:0A:00:00:00:00;1724630516;26/08/24;00:01:56;1.033;0.01;-0.146;0.34208452701568604;0.22479839622974396;-0.2431243658065796
01:00:0A:00:00:00:00;1724630517;26/08/24;00:01:57;1.011;-0.09;0.338;0.3274237811565399;-0.1563815027475357;0.015882495790719986
01:00:0A:00:00:00:00;1724630518;26/08/24;00:01:58;1.042;-0.003;-0.122;0.3604104816913605;-0.14782939851284027;-0.2321287840604782
01:00:0A:00:00:00:00;1724630519;26/08/24;00:01:59;0.981;0.21;0.135;0.39584067463874817;0.5082398653030396;-0.06352998316287994
01:00:0A:00:00:00:00;1724630520;26/08/24;00:02:00;0.961;-0.129;0.171;0.18448130786418915;-0.17959438264369965;0.6206390857696533
01:00:0A:00:00:00:00;1724630521;26/08/24;00:02:01;0.982;-0.008;0.062;0.37629297375679016;0.03787364438176155;-0.44226640462875366
01:00:0A:00:00:00:00;1724630522;26/08/24;00:02:02;1.001;0.124;0.09;0.18448130786418915;-0.21013763546943665;0.46670106053352356
01:00:0A:00:00:00:00;1724630523;26/08/24;00:02:03;1.024;-0.233;-0.057;0.33597588539123535;-0.22479839622974396;-0.07452555745840073
01:00:0A:00:00:00:00;1724630524;26/08/24;00:02:04;1.043;0.151;0.005;0.5265658497810364;0.06719517707824707;-0.31642818450927734
01:00:0A:00:00:00:00;1724630525;26/08/24;00:02:05;0.997;-0.036;0.046;0.47280970215797424;0.021991148591041565;0.40194931626319885
01:00:0A:00:00:00:00;1724630526;26/08/24;00:02:06;0.944;-0.043;0.13;0.5424482822418213;-0.013439035043120384;-0.15882496535778046
01:00:0A:00:00:00:00;1724630527;26/08/24;00:02:07;0.939;0.099;0.03;0.42271876335144043;-0.1563815027475357;-0.0024434609804302454
01:00:0A:00:00:00:00;1724630528;26/08/24;00:02:08;0.982;0.031;0.062;0.4092797040939331;0.39217546582221985;0.27488934993743896
01:00:0A:00:00:00:00;1724630529;26/08/24;00:02:09;1.022;-0.075;0.226;0.27977627515792847;-0.4789183437824249;-0.161268413066864
01:00:0A:00:00:00:00;1724630530;26/08/24;00:02:10;1.024;-0.006;-0.219;0.39584067463874817;0.42149701714515686;0.16859880089759827
01:00:0A:00:00:00:00;1724630531;26/08/24;00:02:11;0.967;-0.008;0.41;0.27000245451927185;0.29688048362731934;-0.1368338167667389
01:00:0A:00:00:00:00;1724630532;26/08/24;00:02:12;1.01;-0.002;0.059;-0.15515977144241333;-0.48869219422340393;0.31031954288482666
01:00:0A:00:00:00:00;1724630533;26/08/24;00:02:13;0.908;-0.266;-0.078;0.06841690838336945;-0.24068090319633484;0.4239404499530792
01:00:0A:00:00:00:00;1724630534;26/08/24;00:02:14;0.94;-0.072;-0.182;0.6829473376274109;-0.0012217304902151227;-1.215621829032898
01:00:0A:00:00:00:00;1724630535;26/08/24;00:02:15;0.962;0.151;-0.135;0.7586946487426758;0.4043927788734436;0.1771509200334549
01:00:0A:00:00:00:00;1724630536;26/08/24;00:02:16;1.034;0.137;0.077;0.7220427393913269;0.07941248267889023;-0.08185594528913498
01:00:0A:00:00:00:00;1724630537;26/08/24;00:02:17;1.033;0.183;0.192;0.5155702233314514;0.27000245451927185;0.2687807083129883
01:00:0A:00:00:00:00;1724630538;26/08/24;00:02:18;0.99;-0.106;0.317;0.3078760802745819;0.05375614017248154;0.3848450779914856
01:00:0A:00:00:00:00;1724630539;26/08/24;00:02:19;1.006;0.031;-0.013;0.32498031854629517;-0.39584067463874817;-0.2541199326515198
01:00:0A:00:00:00:00;1724630540;26/08/24;00:02:20;0.977;0.044;0.138;0.35552355647087097;0.38117989897727966;0.036651913076639175
01:00:0A:00:00:00:00;1724630541;26/08/24;00:02:21;0.994;-0.09;0.115;0.16982054710388184;-0.40194931626319885;0.20525071024894714
01:00:0A:00:00:00:00;1724630542;26/08/24;00:02:22;0.992;-0.324;-0.108;0.47280970215797424;-0.010995574295520782;-0.2541199326515198
01:00:0A:00:00:00:00;1724630543;26/08/24;00:02:23;1.055;0.104;-0.133;0.6976081132888794;0.23335053026676178;-0.3897320330142975
01:00:0A:00:00:00:00;1724630544;26/08/24;00:02:24;1.068;0.053;0.066;0.6181955933570862;0.19058994948863983;0.1270599663257599
01:00:0A:00:00:00:00;1724630545;26/08/24;00:02:25;1.023;-0.054;-0.011;0.5839871764183044;0.024434609338641167;0.161268413066864
01:00:0A:00:00:00:00;1724630546;26/08/24;00:02:26;0.984;0.023;0.128;0.5546656250953674;0.2590068578720093;0.0036651913542300463
01:00:0A:00:00:00:00;1724630547;26/08/24;00:02:27;0.979;0.034;0.046;0.3481931686401367;-0.17837265133857727;0.2370157092809677
01:00:0A:00:00:00:00;1724630548;26/08/24;00:02:28;1.012;-0.037;0.007;0.41661006212234497;0.15515977144241333;0.12950342893600464
01:00:0A:00:00:00:00;1724630549;26/08/24;00:02:29;1.031;-0.08;0.174;0.3543018400669098;-0.48380526900291443;0.22846359014511108
01:00:0A:00:00:00:00;1724630550;26/08/24;00:02:30;1.002;-0.266;-0.185;0.7538076639175415;-0.2480112910270691;-0.34086278080940247
01:00:0A:00:00:00:00;1724630551;26/08/24;00:02:31;1.027;0.271;-0.039;0.940732479095459;0.09162978082895279;-0.1514945775270462
01:00:0A:00:00:00:00;1724630552;26/08/24;00:02:32;1.031;-0.153;0.02;1.0140362977981567;0.2675589621067047;0.2981022298336029
01:00:0A:00:00:00:00;1724630553;26/08/24;00:02:33;0.985;0.251;0.057;0.862541675567627;-0.1417207270860672;-0.38240164518356323
01:00:0A:00:00:00:00;1724630554;26/08/24;00:02:34;0.993;0.022;0.094;0.6328563690185547;0.3017674386501312;0.5094615817070007
01:00:0A:00:00:00:00;1724630555;26/08/24;00:02:35;0.984;-0.081;0.108;0.5400049090385437;-0.28588491678237915;0.06963863223791122
01:00:0A:00:00:00:00;1724630556;26/08/24;00:02:36;0.998;0.122;-0.053;0.6181955933570862;-0.2528982162475586;-0.2590068578720093
01:00:0A:00:00:00:00;1724630557;26/08/24;00:02:37;1.019;0.126;0.03;0.6157521605491638;0.080634206533432;0.4105014204978943
01:00:0A:00:00:00:00;1724630558;26/08/24;00:02:38;0.958;-0.338;0.175;0.8185594081878662;-0.4080579876899719;-0.45692718029022217
01:00:0A:00:00:00:00;1724630559;26/08/24;00:02:39;1.012;0.161;0.058;2.3164007663726807;1.25593900680542;0.09529497474431992
01:00:0A:00:00:00:00;1724630560;26/08/24;00:02:40;0.984;0.19;-0.114;1.8716909885406494;-0.02321287989616394;0.039095375686883926
01:00:0A:00:00:00:00;1724630561;26/08/24;00:02:41;0.949;0.214;0.079;1.773952603340149;0.6743952035903931;-0.42760565876960754
01:00:0A:00:00:00:00;1724630562;26/08/24;00:02:42;0.67;-0.481;0.527;0.9272934198379517;-1.1948524713516235;2.1429152488708496
01:00:0A:00:00:00:00;1724630563;26/08/24;00:02:43;0.794;-0.457;-0.166;1.7153096199035645;-2.1282544136047363;-1.5454890727996826
01:00:0A:00:00:00:00;1724630564;26/08/24;00:02:44;0.857;0.297;-0.421;2.355496406555176;0.5241223573684692;-1.7275269031524658
01:00:0A:00:00:00:00;1724630565;26/08/24;00:02:45;0.901;-0.046;0.472;0.6389650106430054;-0.7012733221054077;1.3255774974822998
01:00:0A:00:00:00:00;1724630566;26/08/24;00:02:46;0.992;0.275;0.144;0.8869763016700745;-0.025656338781118393;-0.3274237811565399
01:00:0A:00:00:00:00;1724630567;26/08/24;00:02:47;0.991;-0.162;0.04;0.7489207983016968;-0.2883284091949463;-0.045204028487205505
01:00:0A:00:00:00:00;1724630568;26/08/24;00:02:48;0.974;0.136;0.101;1.0800098180770874;-0.09529497474431992;-0.3017674386501312
01:00:0A:00:00:00:00;1724630569;26/08/24;00:02:49;0.98;0.044;0.219;0.5656611919403076;-0.07330382615327835;0.0757472887635231
01:00:0A:00:00:00:00;1724630570;26/08/24;00:02:50;1.038;-0.01;0.128;0.7990117073059082;0.02932153083384037;-0.16004669666290283
01:00:0A:00:00:00:00;1724630571;26/08/24;00:02:51;1.016;-0.075;0.341;0.48869219422340393;-0.09040805697441101;0.11972958594560623
01:00:0A:00:00:00:00;1724630572;26/08/24;00:02:52;0.966;-0.436;0.087;1.9266690015792847;-0.7941248416900635;0.3897320330142975
01:00:0A:00:00:00:00;1724630573;26/08/24;00:02:53;1.016;0.075;-0.38;2.1759018898010254;-0.34697145223617554;-0.5473352670669556
01:00:0A:00:00:00:00;1724630574;26/08/24;00:02:54;0.877;0.564;0.076;1.9865336418151855;1.0323623418807983;-0.030543262138962746
01:00:0A:00:00:00:00;1724630575;26/08/24;00:02:55;0.988;-0.338;0.177;1.2889256477355957;-0.04398229718208313;1.4611897468566895
01:00:0A:00:00:00:00;1724630576;26/08/24;00:02:56;1.01;-0.159;0.199;1.5161675214767456;-0.35552355647087097;0.11239919811487198
01:00:0A:00:00:00:00;1724630577;26/08/24;00:02:57;0.967;-0.201;-0.213;4.089131832122803;-0.7892378568649292;-0.7147123217582703
01:00:0A:00:00:00:00;1724630578;26/08/24;00:02:58;1.073;-0.379;0.039;4.588819980621338;-0.2480112910270691;0.3604104816913605
01:00:0A:00:00:00:00;1724630579;26/08/24;00:02:59;0.919;-0.509;0.175;4.277278423309326;-0.15027284622192383;-0.00855211354792118
01:00:0A:00:00:00:00;1724630580;26/08/24;00:03:00;0.94;-0.318;0.316;3.17161226272583;-0.5571090579032898;0.7733554244041443
01:00:0A:00:00:00:00;1724630581;26/08/24;00:03:01;0.965;-0.137;0.32;2.337170362472534;-0.29688048362731934;0.6401867866516113
01:00:0A:00:00:00:00;1724630582;26/08/24;00:03:02;0.98;-0.071;0.125;1.9120081663131714;-0.28099802136421204;0.0073303827084600925
01:00:0A:00:00:00:00;1724630583;26/08/24;00:03:03;0.991;0.058;0.018;1.850921630859375;0.1319468915462494;-0.17837265133857727
01:00:0A:00:00:00:00;1724630584;26/08/24;00:03:04;1.017;0.211;0.05;1.5467108488082886;0.3384193480014801;0.09285151958465576
01:00:0A:00:00:00:00;1724630585;26/08/24;00:03:05;1.047;0.18;0.228;1.1191051006317139;0.05253440886735916;0.37629297375679016
01:00:0A:00:00:00:00;1724630586;26/08/24;00:03:06;1.024;-0.376;0.019;0.9419541358947754;-0.17348572611808777;0.5363396406173706
01:00:0A:00:00:00:00;1724630587;26/08/24;00:03:07;0.974;0.329;-0.363;1.1594222784042358;-0.14782939851284027;-0.2565633952617645
01:00:0A:00:00:00:00;1724630588;26/08/24;00:03:08;0.993;0.035;0.395;1.1386528015136719;0.6633996367454529;0.4092797040939331
01:00:0A:00:00:00:00;1724630589;26/08/24;00:03:09;0.929;0.028;0.387;0.3543018400669098;-0.38117989897727966;0.8930849432945251
01:00:0A:00:00:00:00;1724630590;26/08/24;00:03:10;0.963;-0.262;-0.101;0.4300491213798523;-0.513126790523529;-0.080634206533432
01:00:0A:00:00:00:00;1724630591;26/08/24;00:03:11;0.833;-0.352;-0.285;1.0091493129730225;-1.3964378833770752;-0.6536257863044739
01:00:0A:00:00:00:00;1724630592;26/08/24;00:03:12;0.529;-0.713;-0.622;1.6285667419433594;-1.0812314748764038;-2.20278000831604
01:00:0A:00:00:00:00;1724630593;26/08/24;00:03:13;0.739;0.362;-0.635;1.783726453781128;0.9908234477043152;-1.9804250001907349
01:00:0A:00:00:00:00;1724630594;26/08/24;00:03:14;0.772;0.225;0.763;1.82404363155365;0.08429940044879913;1.3170254230499268
01:00:0A:00:00:00:00;1724630595;26/08/24;00:03:15;0.949;-0.305;0.021;1.8362609148025513;-1.5845844745635986;-0.3286454975605011
01:00:0A:00:00:00:00;1724630596;26/08/24;00:03:16;0.9;-0.317;-0.077;2.2907445430755615;-0.5400049090385437;-0.9896016716957092
01:00:0A:00:00:00:00;1724630597;26/08/24;00:03:17;0.981;-0.149;-0.038;2.309070587158203;0.40194931626319885;-0.5400049090385437
01:00:0A:00:00:00:00;1724630598;26/08/24;00:03:18;1.007;0.077;-0.045;2.0109684467315674;0.8991935849189758;0.2871066629886627
01:00:0A:00:00:00:00;1724630599;26/08/24;00:03:19;1.019;0.213;0.14;1.500285029411316;-0.2431243658065796;0.2993239760398865
01:00:0A:00:00:00:00;1724630600;26/08/24;00:03:20;0.97;-0.351;0.04;1.6273449659347534;0.036651913076639175;-0.37629297375679016
01:00:0A:00:00:00:00;1724630601;26/08/24;00:03:21;0.991;0.17;-0.116;1.470963478088379;-0.33108896017074585;-0.11484266817569733
01:00:0A:00:00:00:00;1724630602;26/08/24;00:03:22;0.987;-0.032;0.139;1.5039502382278442;0.42638394236564636;-0.4703662395477295
01:00:0A:00:00:00:00;1724630603;26/08/24;00:03:23;0.979;0.044;0.008;1.0995573997497559;-0.18936821818351746;0.6206390857696533
01:00:0A:00:00:00:00;1724630604;26/08/24;00:03:24;0.958;-0.085;0.311;1.0812314748764038;-0.039095375686883926;-0.5192354917526245
01:00:0A:00:00:00:00;1724630605;26/08/24;00:03:25;1.05;0.11;0.013;0.8491026759147644;0.3628539443016052;0.3677408695220947
01:00:0A:00:00:00:00;1724630606;26/08/24;00:03:26;1.026;-0.201;0.394;-0.3677408695220947;-0.33964109420776367;-0.12950342893600464
01:00:0A:00:00:00:00;1724630607;26/08/24;00:03:27;0.958;0.568;-0.205;-0.20647244155406952;0.2015855312347412;-0.05742133408784866
01:00:0A:00:00:00:00;1724630608;26/08/24;00:03:28;0.883;-0.46;0.524;-0.3799581527709961;0.46547931432724;0.4789183437824249
01:00:0A:00:00:00:00;1724630609;26/08/24;00:03:29;1.039;0.277;-0.058;-0.35674530267715454;-0.25534167885780334;-0.6157521605491638
01:00:0A:00:00:00:00;1724630610;26/08/24;00:03:30;0.939;-0.322;-0.08;-0.2773328125476837;0.25045475363731384;0.6633996367454529
01:00:0A:00:00:00:00;1724630611;26/08/24;00:03:31;0.963;0.019;0.061;-0.02932153083384037;0.27000245451927185;-0.9358454942703247
01:00:0A:00:00:00:00;1724630612;26/08/24;00:03:32;0.955;0.019;-0.111;-0.32498031854629517;-0.6304128766059875;0.6304128766059875
01:00:0A:00:00:00:00;1724630613;26/08/24;00:03:33;0.968;-0.175;-0.094;0.09407324343919754;0.2590068578720093;-0.18325956165790558
01:00:0A:00:00:00:00;1724630614;26/08/24;00:03:34;0.985;0.102;0.133;0.03298672288656235;-0.43249258399009705;-0.040317103266716
01:00:0A:00:00:00:00;1724630615;26/08/24;00:03:35;1.015;0.007;-0.124;0.1368338167667389;0.20402899384498596;0.2883284091949463
01:00:0A:00:00:00:00;1724630616;26/08/24;00:03:36;1.016;-0.156;0.216;0.30543261766433716;0.10751228034496307;-0.39095374941825867
01:00:0A:00:00:00:00;1724630617;26/08/24;00:03:37;1.056;0.166;-0.034;0.1661553531885147;-0.19547687470912933;-0.08429940044879913
01:00:0A:00:00:00:00;1724630618;26/08/24;00:03:38;1.016;-0.382;-0.04;0.2993239760398865;0.07330382615327835;0.1514945775270462
01:00:0A:00:00:00:00;1724630619;26/08/24;00:03:39;1.028;0.047;0.141;0.27611109614372253;-0.09285151958465576;-0.3176499307155609
01:00:0A:00:00:00:00;1724630620;26/08/24;00:03:40;1.004;-0.054;0.008;0.1576032191514969;0.01710422709584236;0.31031954288482666
01:00:0A:00:00:00:00;1724630621;26/08/24;00:03:41;0.987;0.004;0.14;0.19303341209888458;0.1966986060142517;-0.13805554807186127
01:00:0A:00:00:00:00;1724630622;26/08/24;00:03:42;1.013;0.003;0.053;0.08429940044879913;-0.08429940044879913;0.07819075137376785
01:00:0A:00:00:00:00;1724630623;26/08/24;00:03:43;1.009;-0.119;0.048;0.15027284622192383;0.1319468915462494;-0.04153883829712868
01:00:0A:00:00:00:00;1724630624;26/08/24;00:03:44;0.986;-0.042;0.104;0.11484266817569733;-0.025656338781118393;-0.10506881773471832
01:00:0A:00:00:00:00;1724630625;26/08/24;00:03:45;0.973;-0.082;0.031;0.04642575979232788;-0.059864792972803116;0.21991148591041565
01:00:0A:00:00:00:00;1724630626;26/08/24;00:03:46;1.008;-0.104;0.051;0.16859880089759827;0.13316862285137177;-0.1661553531885147
01:00:0A:00:00:00:00;1724630627;26/08/24;00:03:47;1.04;0.024;0.124;0.04764748737215996;-0.17470745742321014;0.21013763546943665
01:00:0A:00:00:00:00;1724630628;26/08/24;00:03:48;1.064;-0.17;-0.055;0.15882496535778046;-0.05864306166768074;-0.010995574295520782
01:00:0A:00:00:00:00;1724630629;26/08/24;00:03:49;1.032;0.187;0.212;0.16249015927314758;0.19425514340400696;-0.17837265133857727
01:00:0A:00:00:00:00;1724630630;26/08/24;00:03:50;0.997;-0.191;-0.029;0.05253440886735916;-0.2577851116657257;0.4544837474822998
01:00:0A:00:00:00:00;1724630631;26/08/24;00:03:51;0.963;0.042;0.056;0.28588491678237915;0.2638937830924988;-0.445931613445282
01:00:0A:00:00:00:00;1724630632;26/08/24;00:03:52;0.97;0.0;0.03;0.06475171446800232;-0.2223549485206604;0.5229006409645081
01:00:0A:00:00:00:00;1724630633;26/08/24;00:03:53;0.997;-0.175;-0.008;0.27611109614372253;0.013439035043120384;-0.39095374941825867
01:00:0A:00:00:00:00;1724630634;26/08/24;00:03:54;1.027;0.171;0.081;0.2125810980796814;-0.08674286305904388;0.05619959905743599
01:00:0A:00:00:00:00;1724630635;26/08/24;00:03:55;1.05;-0.145;0.099;0.18448130786418915;0.0073303827084600925;0.14782939851284027
01:00:0A:00:00:00:00;1724630636;26/08/24;00:03:56;1.02;-0.023;0.061;0.2773328125476837;-0.0012217304902151227;-0.23090705275535583
01:00:0A:00:00:00:00;1724630637;26/08/24;00:03:57;0.95;-0.024;0.053;0.2919935882091522;0.14538592100143433;0.0012217304902151227
01:00:0A:00:00:00:00;1724630638;26/08/24;00:03:58;0.947;-0.042;0.084;0.25534167885780334;-0.0708603635430336;-0.161268413066864
01:00:0A:00:00:00:00;1724630639;26/08/24;00:03:59;1.041;0.013;0.075;0.21991148591041565;0.06963863223791122;0.010995574295520782
01:00:0A:00:00:00:00;1724630640;26/08/24;00:04:00;1.112;-0.076;0.134;0.17959438264369965;-0.006108652334660292;-0.18448130786418915
01:00:0A:00:00:00:00;1724630641;26/08/24;00:04:01;1.111;0.08;-0.168;0.21868975460529327;0.07208210229873657;-0.08674286305904388
01:00:0A:00:00:00:00;1724630642;26/08/24;00:04:02;0.914;-0.358;0.565;0.10384709388017654;0.720820963382721;0.4251621961593628
01:00:0A:00:00:00:00;1724630643;26/08/24;00:04:03;0.994;0.179;-0.329;-0.028099799528717995;-0.6047565937042236;-0.38728854060173035
01:00:0A:00:00:00:00;1724630644;26/08/24;00:04:04;1.031;-0.031;0.162;0.11850785464048386;0.5900958180427551;0.44226640462875366
01:00:0A:00:00:00:00;1724630645;26/08/24;00:04:05;1.031;-0.008;0.092;-0.03787364438176155;-0.17348572611808777;0.09040805697441101
01:00:0A:00:00:00:00;1724630646;26/08/24;00:04:06;0.974;0.162;-0.037;-0.004886921960860491;-0.09773843735456467;-0.16493360698223114
01:00:0A:00:00:00:00;1724630647;26/08/24;00:04:07;0.96;0.047;0.123;-0.042760565876960754;0.24068090319633484;0.13927726447582245
01:00:0A:00:00:00:00;1724630648;26/08/24;00:04:08;0.911;0.054;0.025;-0.10384709388017654;-0.49357908964157104;-0.436157763004303
01:00:0A:00:00:00:00;1724630649;26/08/24;00:04:09;0.941;-0.025;0.058;0.009773843921720982;0.6352998614311218;0.5668829083442688
01:00:0A:00:00:00:00;1724630650;26/08/24;00:04:10;0.91;-0.139;0.181;-0.12461651116609573;-0.9077457189559937;-0.9541715383529663
01:00:0A:00:00:00:00;1724630651;26/08/24;00:04:11;0.924;0.223;-0.113;-0.07696902006864548;0.739146888256073;1.0958921909332275
01:00:0A:00:00:00:00;1724630652;26/08/24;00:04:12;0.927;-0.32;0.243;-0.0354301817715168;-0.24678954482078552;-0.6401867866516113
01:00:0A:00:00:00:00;1724630653;26/08/24;00:04:13;1.028;0.258;-0.039;-0.09896016865968704;-0.1514945775270462;-0.14782939851284027
01:00:0A:00:00:00:00;1724630654;26/08/24;00:04:14;1.058;-0.043;0.025;-0.09529497474431992;0.1014036238193512;0.2736676335334778
01:00:0A:00:00:00:00;1724630655;26/08/24;00:04:15;0.992;-0.14;0.136;-0.0757472887635231;0.00855211354792118;-0.019547687843441963
01:00:0A:00:00:00:00;1724630656;26/08/24;00:04:16;0.995;0.07;0.022;-0.10384709388017654;-0.20647244155406952;-0.2834414541721344
01:00:0A:00:00:00:00;1724630657;26/08/24;00:04:17;1.026;0.042;0.019;-0.12095131725072861;0.06963863223791122;0.24923302233219147
01:00:0A:00:00:00:00;1724630658;26/08/24;00:04:18;1.013;-0.218;0.141;-0.10873401165008545;0.028099799528717995;0.10751228034496307
01:00:0A:00:00:00:00;1724630659;26/08/24;00:04:19;1.023;0.108;0.017;-0.080634206533432;-0.1661553531885147;-0.3530800938606262
01:00:0A:00:00:00:00;1724630660;26/08/24;00:04:20;0.964;-0.081;0.099;-0.1258382350206375;0.1466076523065567;0.4105014204978943
01:00:0A:00:00:00:00;1724630661;26/08/24;00:04:21;0.934;-0.036;0.052;-0.07330382615327835;-0.17837265133857727;-0.4337143301963806
01:00:0A:00:00:00:00;1724630662;26/08/24;00:04:22;0.964;-0.003;0.056;-0.1062905490398407;0.16859880089759827;0.3836233615875244
01:00:0A:00:00:00:00;1724630663;26/08/24;00:04:23;0.991;-0.168;0.119;-0.07696902006864548;-0.17470745742321014;-0.5119050741195679
01:00:0A:00:00:00:00;1724630664;26/08/24;00:04:24;1.029;0.187;-0.023;-0.12828169763088226;0.08674286305904388;0.4202752709388733
01:00:0A:00:00:00:00;1724630665;26/08/24;00:04:25;1.02;-0.288;-0.019;-0.3848450779914856;-0.010995574295520782;-0.16493360698223114
01:00:0A:00:00:00:00;1724630666;26/08/24;00:04:26;1.043;0.149;0.118;-0.26511549949645996;0.09773843735456467;-0.17104226350784302
01:00:0A:00:00:00:00;1724630667;26/08/24;00:04:27;1.048;-0.12;0.076;-0.3579670488834381;-0.09407324343919754;0.2028072476387024
01:00:0A:00:00:00:00;1724630668;26/08/24;00:04:28;1.043;-0.066;-0.055;-0.19058994948863983;-0.021991148591041565;-0.07941248267889023
01:00:0A:00:00:00:00;1724630669;26/08/24;00:04:29;0.995;0.006;0.157;-0.1673770695924759;0.24923302233219147;-0.013439035043120384
01:00:0A:00:00:00:00;1724630670;26/08/24;00:04:30;0.976;-0.072;-0.047;-0.2687807083129883;-0.4398229718208313;0.10506881773471832
01:00:0A:00:00:00:00;1724630671;26/08/24;00:04:31;0.932;-0.008;0.088;-0.0757472887635231;0.44715335965156555;-0.07330382615327835
01:00:0A:00:00:00:00;1724630672;26/08/24;00:04:32;0.921;-0.026;0.049;-0.2981022298336029;-0.6524040699005127;0.080634206533432
01:00:0A:00:00:00:00;1724630673;26/08/24;00:04:33;0.966;-0.001;0.004;0.0036651913542300463;0.846659243106842;-0.07208210229873657
01:00:0A:00:00:00:00;1724630674;26/08/24;00:04:34;0.955;-0.02;0.371;-0.39706242084503174;-0.9040805697441101;-0.14294245839118958
01:00:0A:00:00:00:00;1724630675;26/08/24;00:04:35;0.976;0.122;-0.253;-0.15393804013729095;0.7342600226402283;0.2174680233001709
01:00:0A:00:00:00:00;1724630676;26/08/24;00:04:36;0.989;-0.176;0.415;-0.2626720666885376;-0.21868975460529327;-0.14538592100143433
01:00:0A:00:00:00:00;1724630677;26/08/24;00:04:37;1.057;0.134;-0.172;-0.2541199326515198;-0.012217304669320583;-0.14416420459747314
01:00:0A:00:00:00:00;1724630678;26/08/24;00:04:38;1.029;-0.162;0.254;-0.23945917189121246;0.26022857427597046;0.24190263450145721
01:00:0A:00:00:00:00;1724630679;26/08/24;00:04:39;1.018;0.021;-0.059;-0.23579397797584534;-0.31642818450927734;-0.27122414112091064
01:00:0A:00:00:00:00;1724630680;26/08/24;00:04:40;0.971;-0.04;0.119;-0.17104226350784302;0.2785545289516449;0.2822197377681732
01:00:0A:00:00:00:00;1724630681;26/08/24;00:04:41;0.973;-0.076;0.078;-0.22846359014511108;-0.2883284091949463;-0.16859880089759827
01:00:0A:00:00:00:00;1724630682;26/08/24;00:04:42;0.994;0.067;0.02;-0.15393804013729095;0.09529497474431992;0.03787364438176155
01:00:0A:00:00:00:00;1724630683;26/08/24;00:04:43;1.011;-0.047;0.13;-0.1820378452539444;-0.0073303827084600925;0.10995574295520782
01:00:0A:00:00:00:00;1724630684;26/08/24;00:04:44;1.024;-0.079;0.065;-0.1368338167667389;-0.021991148591041565;-0.21135938167572021
01:00:0A:00:00:00:00;1724630685;26/08/24;00:04:45;1.028;0.033;0.045;-0.1160643920302391;0.03787364438176155;-0.05742133408784866
01:00:0A:00:00:00:00;1724630686;26/08/24;00:04:46;1.02;-0.106;0.092;-0.161268413066864;-0.012217304669320583;0.14782939851284027
01:00:0A:00:00:00:00;1724630687;26/08/24;00:04:47;1.02;-0.077;0.033;-0.11728612333536148;-0.05742133408784866;-0.02321287989616394
01:00:0A:00:00:00:00;1724630688;26/08/24;00:04:48;1.012;0.037;0.081;-0.1014036238193512;0.019547687843441963;0.05742133408784866
01:00:0A:00:00:00:00;1724630689;26/08/24;00:04:49;1.0;-0.025;0.086;-0.12828169763088226;-0.03176499158143997;0.10384709388017654
01:00:0A:00:00:00:00;1724630690;26/08/24;00:04:50;1.009;-0.028;0.062;-0.04642575979232788;0.06108652427792549;-0.18570303916931152
01:00:0A:00:00:00:00;1724630691;26/08/24;00:04:51;1.033;0.041;0.081;-0.07208210229873657;0.05619959905743599;-0.05864306166768074
01:00:0A:00:00:00:00;1724630692;26/08/24;00:04:52;1.044;-0.102;0.041;-0.10384709388017654;-0.015882495790719986;0.0659734457731247
01:00:0A:00:00:00:00;1724630693;26/08/24;00:04:53;1.029;-0.054;0.028;-0.06352998316287994;-0.024434609338641167;-0.03298672288656235
01:00:0A:00:00:00:00;1724630694;26/08/24;00:04:54;0.965;-0.008;0.065;-0.07941248267889023;-0.019547687843441963;0.051312677562236786
01:00:0A:00:00:00:00;1724630695;26/08/24;00:04:55;0.938;-0.029;0.046;-0.09285151958465576;-0.09529497474431992;0.04398229718208313
01:00:0A:00:00:00:00;1724630696;26/08/24;00:04:56;0.976;-0.012;0.052;-0.0354301817715168;0.04153883829712868;-0.16371189057826996
01:00:0A:00:00:00:00;1724630697;26/08/24;00:04:57;1.016;0.016;0.087;-0.12950342893600464;-0.16371189057826996;0.13805554807186127
01:00:0A:00:00:00:00;1724630698;26/08/24;00:04:58;1.065;-0.152;-0.018;-0.004886921960860491;0.1014036238193512;-0.21135938167572021
01:00:0A:00:00:00:00;1724630699;26/08/24;00:04:59;1.053;0.165;0.201;-0.14416420459747314;-0.11728612333536148;0.09529497474431992
01:00:0A:00:00:00:00;1724630700;26/08/24;00:05:00;1.028;-0.295;-0.154;-0.10873401165008545;-0.21013763546943665;0.3274237811565399
01:00:0A:00:00:00:00;1724630701;26/08/24;00:05:01;1.009;0.197;0.244;0.015882495790719986;0.28588491678237915;-0.3445279896259308
01:00:0A:00:00:00:00;1724630702;26/08/24;00:05:02;1.002;-0.081;-0.014;-0.2321287840604782;-0.35674530267715454;0.47280970215797424
01:00:0A:00:00:00:00;1724630703;26/08/24;00:05:03;0.962;-0.036;0.034;0.030543262138962746;0.322536826133728;-0.2431243658065796
01:00:0A:00:00:00:00;1724630704;26/08/24;00:05:04;0.962;0.058;0.085;-0.13316862285137177;-0.15393804013729095;0.0708603635430336
01:00:0A:00:00:00:00;1724630705;26/08/24;00:05:05;1.003;-0.048;-0.007;-0.10751228034496307;0.03176499158143997;0.02321287989616394
01:00:0A:00:00:00:00;1724630706;26/08/24;00:05:06;1.025;-0.051;0.072;-0.04398229718208313;0.036651913076639175;-0.19914205372333527
01:00:0A:00:00:00:00;1724630707;26/08/24;00:05:07;1.036;0.033;0.112;-0.1466076523065567;-0.08429940044879913;0.024434609338641167
01:00:0A:00:00:00:00;1724630708;26/08/24;00:05:08;1.033;-0.11;-0.004;-0.12339477241039276;-0.006108652334660292;0.07941248267889023
01:00:0A:00:00:00:00;1724630709;26/08/24;00:05:09;1.019;-0.033;0.094;-0.06108652427792549;0.11484266817569733;-0.07941248267889023
01:00:0A:00:00:00:00;1724630710;26/08/24;00:05:10;1.01;0.011;0.063;-0.15882496535778046;-0.1368338167667389;0.03176499158143997
01:00:0A:00:00:00:00;1724630711;26/08/24;00:05:11;1.002;-0.058;0.015;-0.1368338167667389;-0.0659734457731247;0.03787364438176155
01:00:0A:00:00:00:00;1724630712;26/08/24;00:05:12;1.002;-0.048;0.092;-0.08185594528913498;0.04398229718208313;-0.13561207056045532
01:00:0A:00:00:00:00;1724630713;26/08/24;00:05:13;1.005;-0.015;0.112;-0.17348572611808777;-0.13316862285137177;0.01710422709584236
01:00:0A:00:00:00:00;1724630714;26/08/24;00:05:14;1.022;-0.079;0.026;-0.14294245839118958;0.02932153083384037;0.03787364438176155
01:00:0A:00:00:00:00;1724630715;26/08/24;00:05:15;1.026;-0.06;0.111;-0.11728612333536148;0.0708603635430336;-0.010995574295520782
01:00:0A:00:00:00:00;1724630716;26/08/24;00:05:16;1.033;-0.005;0.088;-0.18325956165790558;-0.03176499158143997;0.051312677562236786
01:00:0A:00:00:00:00;1724630717;26/08/24;00:05:17;1.028;-0.023;0.022;-0.16371189057826996;-0.009773843921720982;0.06841690838336945
01:00:0A:00:00:00:00;1724630718;26/08/24;00:05:18;1.002;-0.012;0.096;-0.12461651116609573;0.11728612333536148;-0.05742133408784866
01:00:0A:00:00:00:00;1724630719;26/08/24;00:05:19;0.991;-0.002;0.07;-0.1869247555732727;-0.09285151958465576;-0.08307767659425735
01:00:0A:00:00:00:00;1724630720;26/08/24;00:05:20;0.985;-0.025;0.025;-0.15882496535778046;0.02321287989616394;-0.05375614017248154
01:00:0A:00:00:00:00;1724630721;26/08/24;00:05:21;1.014;-0.065;0.068;-0.15393804013729095;0.0;-0.042760565876960754
01:00:0A:00:00:00:00;1724630722;26/08/24;00:05:22;1.036;-0.044;0.071;-0.18936821818351746;-0.11972958594560623;-0.0012217304902151227
01:00:0A:00:00:00:00;1724630723;26/08/24;00:05:23;1.067;-0.034;0.024;-0.16371189057826996;-0.030543262138962746;0.039095375686883926
01:00:0A:00:00:00:00;1724630724;26/08/24;00:05:24;1.061;-0.064;0.144;-0.16859880089759827;0.006108652334660292;0.06719517707824707
01:00:0A:00:00:00:00;1724630725;26/08/24;00:05:25;1.02;0.007;0.034;-0.17104226350784302;-0.1062905490398407;-0.042760565876960754
01:00:0A:00:00:00:00;1724630726;26/08/24;00:05:26;0.973;-0.065;0.113;-0.14782939851284027;0.17104226350784302;0.1661553531885147
01:00:0A:00:00:00:00;1724630727;26/08/24;00:05:27;0.939;-0.002;0.04;-0.15271630883216858;-0.1771509200334549;-0.25045475363731384
01:00:0A:00:00:00:00;1724630728;26/08/24;00:05:28;0.96;-0.017;0.036;-0.13439035415649414;0.18081611394882202;0.29688048362731934
01:00:0A:00:00:00:00;1724630729;26/08/24;00:05:29;1.006;-0.144;0.112;-0.11362093687057495;-0.21868975460529327;-0.3738495111465454
01:00:0A:00:00:00:00;1724630730;26/08/24;00:05:30;1.046;0.147;-0.017;-0.1111774742603302;0.02932153083384037;0.16004669666290283
01:00:0A:00:00:00:00;1724630731;26/08/24;00:05:31;1.031;-0.238;0.154;-0.08796459436416626;0.02932153083384037;0.07208210229873657
01:00:0A:00:00:00:00;1724630732;26/08/24;00:05:32;1.032;0.07;0.034;-0.05253440886735916;-0.0708603635430336;-0.2480112910270691
01:00:0A:00:00:00:00;1724630733;26/08/24;00:05:33;1.006;-0.028;0.051;-0.07452555745840073;0.09651670604944229;0.24434609711170197
01:00:0A:00:00:00:00;1724630734;26/08/24;00:05:34;0.986;-0.097;0.068;-0.03787364438176155;-0.0024434609804302454;-0.10751228034496307
01:00:0A:00:00:00:00;1724630735;26/08/24;00:05:35;1.014;0.008;0.044;-0.040317103266716;-0.05009094998240471;-0.13805554807186127
01:00:0A:00:00:00:00;1724630736;26/08/24;00:05:36;1.049;-0.005;0.057;-0.0659734457731247;-0.004886921960860491;0.11728612333536148
01:00:0A:00:00:00:00;1724630737;26/08/24;00:05:37;1.037;-0.143;0.103;-0.04886921867728233;0.01710422709584236;0.08552113175392151
01:00:0A:00:00:00:00;1724630738;26/08/24;00:05:38;0.998;0.049;0.051;-0.030543262138962746;-0.036651913076639175;-0.19792033731937408
01:00:0A:00:00:00:00;1724630739;26/08/24;00:05:39;0.95;-0.04;0.061;-0.07208210229873657;0.06719517707824707;0.31154125928878784
01:00:0A:00:00:00:00;1724630740;26/08/24;00:05:40;0.959;-0.04;0.049;0.0012217304902151227;-0.05619959905743599;-0.3579670488834381
01:00:0A:00:00:00:00;1724630741;26/08/24;00:05:41;1.014;0.082;0.035;-0.0708603635430336;0.012217304669320583;0.27611109614372253
01:00:0A:00:00:00:00;1724630742;26/08/24;00:05:42;1.032;-0.179;0.069;0.0073303827084600925;-0.05253440886735916;-0.31154125928878784
01:00:0A:00:00:00:00;1724630743;26/08/24;00:05:43;1.059;0.169;0.056;-0.042760565876960754;-0.04398229718208313;0.02076941914856434
01:00:0A:00:00:00:00;1724630744;26/08/24;00:05:44;1.046;-0.251;0.065;-0.036651913076639175;-0.01710422709584236;0.1771509200334549
01:00:0A:00:00:00:00;1724630745;26/08/24;00:05:45;1.023;0.093;0.072;0.030543262138962746;0.015882495790719986;-0.32131510972976685
01:00:0A:00:00:00:00;1724630746;26/08/24;00:05:46;1.002;-0.072;0.055;-0.0659734457731247;-0.013439035043120384;0.35185837745666504
01:00:0A:00:00:00:00;1724630747;26/08/24;00:05:47;0.971;-0.068;0.049;0.03176499158143997;0.015882495790719986;-0.18570303916931152
01:00:0A:00:00:00:00;1724630748;26/08/24;00:05:48;0.989;0.034;0.054;0.004886921960860491;-0.021991148591041565;0.00855211354792118
01:00:0A:00:00:00:00;1724630749;26/08/24;00:05:49;1.005;-0.053;0.054;-0.02687807008624077;-0.05009094998240471;0.13805554807186127
01:00:0A:00:00:00:00;1724630750;26/08/24;00:05:50;1.024;-0.092;0.06;0.039095375686883926;-0.004886921960860491;-0.13805554807186127
01:00:0A:00:00:00:00;1724630751;26/08/24;00:05:51;1.022;0.051;0.081;0.013439035043120384;-0.04642575979232788;0.006108652334660292
01:00:0A:00:00:00:00;1724630752;26/08/24;00:05:52;1.033;-0.063;0.074;-0.0073303827084600925;-0.015882495790719986;0.10751228034496307
01:00:0A:00:00:00:00;1724630753;26/08/24;00:05:53;1.039;-0.076;0.067;0.05009094998240471;0.0012217304902151227;-0.10751228034496307
01:00:0A:00:00:00:00;1724630754;26/08/24;00:05:54;1.038;0.025;0.081;0.03298672288656235;0.006108652334660292;-0.04398229718208313
01:00:0A:00:00:00:00;1724630755;26/08/24;00:05:55;1.025;-0.108;0.068;0.0012217304902151227;-0.014660765416920185;0.15882496535778046
01:00:0A:00:00:00:00;1724630756;26/08/24;00:05:56;0.989;-0.029;0.066;0.042760565876960754;-0.0012217304902151227;-0.08796459436416626
01:00:0A:00:00:00:00;1724630757;26/08/24;00:05:57;0.975;0.012;0.079;0.010995574295520782;0.009773843921720982;0.06352998316287994
01:00:0A:00:00:00:00;1724630758;26/08/24;00:05:58;0.99;-0.033;0.072;0.0024434609804302454;-0.019547687843441963;-0.018325956538319588
01:00:0A:00:00:00:00;1724630759;26/08/24;00:05:59;1.038;-0.034;0.061;0.02076941914856434;0.0;-0.09773843735456467
01:00:0A:00:00:00:00;1724630760;26/08/24;00:06:00;1.057;-0.012;0.074;-0.004886921960860491;-0.010995574295520782;0.00855211354792118
01:00:0A:00:00:00:00;1724630761;26/08/24;00:06:01;1.045;-0.097;0.059;-0.015882495790719986;-0.03420845419168472;0.07696902006864548
01:00:0A:00:00:00:00;1724630762;26/08/24;00:06:02;1.016;-0.005;0.065;-0.006108652334660292;-0.013439035043120384;-0.0354301817715168
01:00:0A:00:00:00:00;1724630763;26/08/24;00:06:03;0.965;-0.023;0.067;-0.03787364438176155;-0.04398229718208313;0.13072516024112701
01:00:0A:00:00:00:00;1724630764;26/08/24;00:06:04;0.962;-0.015;0.067;-0.004886921960860491;-0.036651913076639175;-0.09773843735456467
01:00:0A:00:00:00:00;1724630765;26/08/24;00:06:05;1.012;0.009;0.073;-0.018325956538319588;-0.012217304669320583;0.01710422709584236
01:00:0A:00:00:00:00;1724630766;26/08/24;00:06:06;1.057;-0.078;0.076;-0.010995574295520782;-0.0024434609804302454;-0.06475171446800232
01:00:0A:00:00:00:00;1724630767;26/08/24;00:06:07;1.064;-0.012;0.066;-0.014660765416920185;0.0036651913542300463;-0.030543262138962746
01:00:0A:00:00:00:00;1724630768;26/08/24;00:06:08;1.035;-0.074;0.059;-0.028099799528717995;0.004886921960860491;0.12461651116609573
01:00:0A:00:00:00:00;1724630769;26/08/24;00:06:09;1.004;-0.015;0.069;-0.01710422709584236;-0.004886921960860491;0.0073303827084600925
01:00:0A:00:00:00:00;1724630770;26/08/24;00:06:10;0.97;-0.011;0.064;-0.042760565876960754;-0.03787364438176155;0.08185594528913498
01:00:0A:00:00:00:00;1724630771;26/08/24;00:06:11;0.982;-0.038;0.066;-0.01710422709584236;0.0036651913542300463;-0.04153883829712868
01:00:0A:00:00:00:00;1724630772;26/08/24;00:06:12;1.02;-0.015;0.082;-0.02321287989616394;-0.018325956538319588;-0.05619959905743599
01:00:0A:00:00:00:00;1724630773;26/08/24;00:06:13;1.038;-0.032;0.062;-0.039095375686883926;-0.021991148591041565;-0.004886921960860491
01:00:0A:00:00:00:00;1724630774;26/08/24;00:06:14;1.04;-0.072;0.059;-0.028099799528717995;0.0024434609804302454;0.00855211354792118
01:00:0A:00:00:00:00;1724630775;26/08/24;00:06:15;1.016;-0.031;0.072;-0.03176499158143997;-0.0024434609804302454;0.02687807008624077
01:00:0A:00:00:00:00;1724630776;26/08/24;00:06:16;1.002;-0.028;0.064;-0.05253440886735916;-0.04398229718208313;0.06475171446800232
01:00:0A:00:00:00:00;1724630777;26/08/24;00:06:17;0.995;-0.037;0.072;-0.02687807008624077;0.013439035043120384;-0.03298672288656235
01:00:0A:00:00:00:00;1724630778;26/08/24;00:06:18;1.003;-0.02;0.082;-0.036651913076639175;-0.0024434609804302454;-0.02687807008624077
01:00:0A:00:00:00:00;1724630779;26/08/24;00:06:19;1.022;-0.033;0.065;-0.04642575979232788;0.0;-0.004886921960860491
01:00:0A:00:00:00:00;1724630780;26/08/24;00:06:20;1.029;-0.053;0.054;-0.03298672288656235;0.02076941914856434;-0.021991148591041565
01:00:0A:00:00:00:00;1724630781;26/08/24;00:06:21;1.028;-0.036;0.061;-0.04153883829712868;-0.010995574295520782;0.0036651913542300463
01:00:0A:00:00:00:00;1724630782;26/08/24;00:06:22;1.019;-0.04;0.05;-0.05497787147760391;-0.04642575979232788;0.040317103266716
01:00:0A:00:00:00:00;1724630783;26/08/24;00:06:23;1.012;-0.037;0.058;-0.03787364438176155;-0.02687807008624077;0.019547687843441963
01:00:0A:00:00:00:00;1724630784;26/08/24;00:06:24;1.005;-0.014;0.084;-0.036651913076639175;-0.02076941914856434;-0.013439035043120384
01:00:0A:00:00:00:00;1724630785;26/08/24;00:06:25;1.01;-0.017;0.076;-0.042760565876960754;-0.03176499158143997;-0.010995574295520782
01:00:0A:00:00:00:00;1724630786;26/08/24;00:06:26;1.016;-0.034;0.065;-0.025656338781118393;0.02321287989616394;-0.03176499158143997
01:00:0A:00:00:00:00;1724630787;26/08/24;00:06:27;1.014;-0.029;0.081;-0.02687807008624077;0.021991148591041565;-0.0354301817715168
01:00:0A:00:00:00:00;1724630788;26/08/24;00:06:28;1.015;-0.044;0.056;-0.03787364438176155;-0.014660765416920185;-0.00855211354792118
01:00:0A:00:00:00:00;1724630789;26/08/24;00:06:29;1.017;-0.055;0.043;-0.02687807008624077;0.0036651913542300463;0.00855211354792118
01:00:0A:00:00:00:00;1724630790;26/08/24;00:06:30;1.025;-0.038;0.07;-0.036651913076639175;-0.036651913076639175;0.036651913076639175
01:00:0A:00:00:00:00;1724630791;26/08/24;00:06:31;1.031;-0.038;0.07;-0.045204028487205505;-0.05497787147760391;0.05497787147760391
01:00:0A:00:00:00:00;1724630792;26/08/24;00:06:32;1.026;-0.024;0.072;-0.02932153083384037;-0.004886921960860491;0.03298672288656235
01:00:0A:00:00:00:00;1724630793;26/08/24;00:06:33;1.003;-0.015;0.081;-0.02687807008624077;0.021991148591041565;-0.012217304669320583
01:00:0A:00:00:00:00;1724630794;26/08/24;00:06:34;0.989;-0.02;0.059;-0.0354301817715168;-0.015882495790719986;-0.03176499158143997
01:00:0A:00:00:00:00;1724630795;26/08/24;00:06:35;0.991;-0.031;0.049;-0.02076941914856434;0.02321287989616394;-0.04153883829712868
01:00:0A:00:00:00:00;1724630796;26/08/24;00:06:36;1.012;-0.034;0.07;-0.030543262138962746;-0.03298672288656235;-0.042760565876960754
01:00:0A:00:00:00:00;1724630797;26/08/24;00:06:37;1.046;-0.041;0.058;-0.0354301817715168;-0.05375614017248154;-0.006108652334660292
01:00:0A:00:00:00:00;1724630798;26/08/24;00:06:38;1.054;-0.043;0.07;-0.02321287989616394;-0.00855211354792118;0.02076941914856434
01:00:0A:00:00:00:00;1724630799;26/08/24;00:06:39;1.025;-0.034;0.084;-0.024434609338641167;0.019547687843441963;0.025656338781118393
01:00:0A:00:00:00:00;1724630799;26/08/24;00:06:39;0.981;-0.026;0.054;-0.02321287989616394;-0.01710422709584236;0.0
01:00:0A:00:00:00:00;1724630800;26/08/24;00:06:40;0.971;-0.03;0.064;-0.009773843921720982;0.018325956538319588;-0.0012217304902151227
01:00:0A:00:00:00:00;1724630801;26/08/24;00:06:41;1.009;-0.033;0.076;-0.021991148591041565;-0.059864792972803116;-0.040317103266716
01:00:0A:00:00:00:00;1724630802;26/08/24;00:06:42;1.043;-0.03;0.055;-0.010995574295520782;0.010995574295520782;-0.018325956538319588
01:00:0A:00:00:00:00;1724630803;26/08/24;00:06:43;1.067;-0.044;0.09;-0.015882495790719986;0.006108652334660292;0.01710422709584236
01:00:0A:00:00:00:00;1724630804;26/08/24;00:06:44;1.057;-0.036;0.04;-0.012217304669320583;-0.02687807008624077;0.024434609338641167
01:00:0A:00:00:00:00;1724630805;26/08/24;00:06:45;0.988;-0.026;0.076;-0.006108652334660292;0.03298672288656235;0.02932153083384037
01:00:0A:00:00:00:00;1724630806;26/08/24;00:06:46;0.95;-0.024;0.045;-0.02932153083384037;-0.1111774742603302;-0.0024434609804302454
01:00:0A:00:00:00:00;1724630807;26/08/24;00:06:47;0.964;-0.031;0.065;0.014660765416920185;0.06108652427792549;-0.02687807008624077
01:00:0A:00:00:00:00;1724630808;26/08/24;00:06:48;1.005;-0.039;0.106;-0.0354301817715168;-0.16859880089759827;-0.03298672288656235
01:00:0A:00:00:00:00;1724630809;26/08/24;00:06:49;1.067;-0.035;0.002;0.03176499158143997;0.13561207056045532;0.014660765416920185
01:00:0A:00:00:00:00;1724630810;26/08/24;00:06:50;1.063;-0.041;0.193;-0.019547687843441963;0.05375614017248154;0.040317103266716
01:00:0A:00:00:00:00;1724630811;26/08/24;00:06:51;1.049;-0.009;-0.112;-0.012217304669320583;-0.1966986060142517;0.010995574295520782
01:00:0A:00:00:00:00;1724630812;26/08/24;00:06:52;0.98;-0.029;0.171;0.05497787147760391;0.3701843321323395;0.07330382615327835
01:00:0A:00:00:00:00;1724630813;26/08/24;00:06:53;0.969;-0.014;0.005;-0.1014036238193512;-0.47280970215797424;-0.0708603635430336
01:00:0A:00:00:00:00;1724630814;26/08/24;00:06:54;0.97;-0.015;0.035;0.08307767659425735;0.38728854060173035;0.05253440886735916
01:00:0A:00:00:00:00;1724630815;26/08/24;00:06:55;0.979;-0.047;0.173;-0.07208210229873657;-0.3176499307155609;-0.051312677562236786
01:00:0A:00:00:00:00;1724630816;26/08/24;00:06:56;1.037;-0.013;-0.05;-0.0024434609804302454;0.06352998316287994;-0.028099799528717995
01:00:0A:00:00:00:00;1724630817;26/08/24;00:06:57;1.047;-0.034;0.138;0.012217304669320583;0.07452555745840073;0.03787364438176155
01:00:0A:00:00:00:00;1724630818;26/08/24;00:06:58;1.042;-0.058;0.073;-0.04764748737215996;-0.1111774742603302;0.009773843921720982
01:00:0A:00:00:00:00;1724630819;26/08/24;00:06:59;1.008;-0.011;0.023;-0.0024434609804302454;-0.045204028487205505;-0.0354301817715168
01:00:0A:00:00:00:00;1724630820;26/08/24;00:07:00;0.988;-0.036;0.116;0.0012217304902151227;0.08185594528913498;0.08429940044879913
01:00:0A:00:00:00:00;1724630821;26/08/24;00:07:01;0.992;-0.054;0.09;-0.04886921867728233;-0.1417207270860672;-0.05009094998240471
01:00:0A:00:00:00:00;1724630822;26/08/24;00:07:02;1.008;-0.011;0.029;0.012217304669320583;0.10018189996480942;-0.009773843921720982
01:00:0A:00:00:00:00;1724630823;26/08/24;00:07:03;1.024;-0.041;0.115;-0.0073303827084600925;0.04153883829712868;0.03298672288656235
01:00:0A:00:00:00:00;1724630824;26/08/24;00:07:04;1.032;-0.052;0.048;-0.03176499158143997;-0.0708603635430336;-0.02321287989616394
01:00:0A:00:00:00:00;1724630825;26/08/24;00:07:05;1.021;-0.008;0.028;0.0073303827084600925;0.013439035043120384;-0.02076941914856434
01:00:0A:00:00:00:00;1724630826;26/08/24;00:07:06;1.011;-0.046;0.096;-0.0073303827084600925;0.014660765416920185;0.05009094998240471
01:00:0A:00:00:00:00;1724630827;26/08/24;00:07:07;1.006;-0.044;0.055;-0.018325956538319588;-0.09040805697441101;-0.03176499158143997
01:00:0A:00:00:00:00;1724630828;26/08/24;00:07:08;1.011;-0.013;0.04;0.019547687843441963;0.04153883829712868;-0.0012217304902151227
01:00:0A:00:00:00:00;1724630829;26/08/24;00:07:09;1.015;-0.04;0.094;-0.0024434609804302454;-0.018325956538319588;0.051312677562236786
01:00:0A:00:00:00:00;1724630830;26/08/24;00:07:10;1.022;-0.046;0.048;-0.0024434609804302454;-0.06963863223791122;-0.00855211354792118
01:00:0A:00:00:00:00;1724630831;26/08/24;00:07:11;1.023;-0.005;0.052;0.028099799528717995;0.015882495790719986;0.006108652334660292
01:00:0A:00:00:00:00;1724630832;26/08/24;00:07:12;1.015;-0.032;0.095;0.00855211354792118;-0.00855211354792118;0.028099799528717995
01:00:0A:00:00:00:00;1724630833;26/08/24;00:07:13;1.014;-0.042;0.051;0.013439035043120384;-0.042760565876960754;-0.02932153083384037
01:00:0A:00:00:00:00;1724630834;26/08/24;00:07:14;1.009;-0.02;0.06;0.039095375686883926;0.042760565876960754;-0.0036651913542300463
01:00:0A:00:00:00:00;1724630835;26/08/24;00:07:15;1.011;-0.042;0.081;0.012217304669320583;-0.024434609338641167;0.036651913076639175
01:00:0A:00:00:00:00;1724630836;26/08/24;00:07:16;1.015;-0.048;0.041;0.02076941914856434;-0.042760565876960754;-0.006108652334660292
01:00:0A:00:00:00:00;1724630837;26/08/24;00:07:17;1.016;-0.016;0.054;0.04153883829712868;0.009773843921720982;0.0
01:00:0A:00:00:00:00;1724630838;26/08/24;00:07:18;1.014;-0.033;0.081;0.015882495790719986;-0.04642575979232788;0.040317103266716
01:00:0A:00:00:00:00;1724630839;26/08/24;00:07:19;1.014;-0.04;0.056;0.02687807008624077;-0.0354301817715168;-0.021991148591041565
01:00:0A:00:00:00:00;1724630840;26/08/24;00:07:20;1.013;-0.017;0.071;0.04398229718208313;0.012217304669320583;-0.028099799528717995
01:00:0A:00:00:00:00;1724630841;26/08/24;00:07:21;1.015;-0.036;0.081;0.019547687843441963;-0.03420845419168472;0.018325956538319588
01:00:0A:00:00:00:00;1724630842;26/08/24;00:07:22;1.018;-0.047;0.051;0.03298672288656235;-0.01710422709584236;-0.02687807008624077
01:00:0A:00:00:00:00;1724630843;26/08/24;00:07:23;1.028;-0.029;0.074;0.04153883829712868;0.019547687843441963;0.0012217304902151227
01:00:0A:00:00:00:00;1724630844;26/08/24;00:07:24;1.031;-0.041;0.084;0.02076941914856434;-0.0073303827084600925;0.03787364438176155
01:00:0A:00:00:00:00;1724630845;26/08/24;00:07:25;1.026;-0.05;0.053;0.030543262138962746;-0.012217304669320583;0.019547687843441963
01:00:0A:00:00:00:00;1724630846;26/08/24;00:07:26;1.011;-0.019;0.067;0.045204028487205505;0.02076941914856434;-0.009773843921720982
01:00:0A:00:00:00:00;1724630847;26/08/24;00:07:27;1.001;-0.035;0.066;0.024434609338641167;-0.02321287989616394;0.045204028487205505
01:00:0A:00:00:00:00;1724630848;26/08/24;00:07:28;0.993;-0.047;0.054;0.03787364438176155;-0.01710422709584236;-0.00855211354792118
01:00:0A:00:00:00:00;1724630849;26/08/24;00:07:29;0.998;-0.026;0.065;0.04764748737215996;0.0;-0.013439035043120384
01:00:0A:00:00:00:00;1724630850;26/08/24;00:07:30;1.021;-0.03;0.071;0.030543262138962746;-0.04642575979232788;0.02076941914856434
01:00:0A:00:00:00:00;1724630851;26/08/24;00:07:31;1.033;-0.054;0.06;0.045204028487205505;-0.012217304669320583;-0.02076941914856434
01:00:0A:00:00:00:00;1724630852;26/08/24;00:07:32;1.04;-0.022;0.074;0.05009094998240471;-0.006108652334660292;-0.0073303827084600925
01:00:0A:00:00:00:00;1724630853;26/08/24;00:07:33;1.032;-0.037;0.067;0.03787364438176155;-0.02321287989616394;0.040317103266716
01:00:0A:00:00:00:00;1724630854;26/08/24;00:07:34;1.01;-0.045;0.068;0.04764748737215996;-0.010995574295520782;0.009773843921720982
01:00:0A:00:00:00:00;1724630855;26/08/24;00:07:35;0.995;-0.027;0.068;0.05253440886735916;0.0036651913542300463;-0.012217304669320583
01:00:0A:00:00:00:00;1724630856;26/08/24;00:07:36;0.996;-0.028;0.067;0.040317103266716;-0.010995574295520782;0.0354301817715168
01:00:0A:00:00:00:00;1724630857;26/08/24;00:07:37;1.011;-0.043;0.065;0.051312677562236786;-0.009773843921720982;-0.03298672288656235
01:00:0A:00:00:00:00;1724630858;26/08/24;00:07:38;1.017;-0.018;0.068;0.05009094998240471;-0.012217304669320583;-0.025656338781118393
01:00:0A:00:00:00:00;1724630859;26/08/24;00:07:39;1.024;-0.032;0.064;0.04398229718208313;-0.012217304669320583;0.013439035043120384
01:00:0A:00:00:00:00;1724630860;26/08/24;00:07:40;1.022;-0.051;0.064;0.05253440886735916;-0.0036651913542300463;-0.024434609338641167
01:00:0A:00:00:00:00;1724630861;26/08/24;00:07:41;1.018;-0.029;0.059;0.05009094998240471;-0.0073303827084600925;-0.013439035043120384
01:00:0A:00:00:00:00;1724630862;26/08/24;00:07:42;1.017;-0.041;0.058;0.04398229718208313;-0.01710422709584236;0.04398229718208313
01:00:0A:00:00:00:00;1724630863;26/08/24;00:07:43;1.016;-0.047;0.066;0.04886921867728233;-0.02687807008624077;0.010995574295520782
01:00:0A:00:00:00:00;1724630864;26/08/24;00:07:44;1.016;-0.018;0.064;0.04642575979232788;-0.02076941914856434;0.0024434609804302454
01:00:0A:00:00:00:00;1724630865;26/08/24;00:07:45;1.014;-0.029;0.065;0.04642575979232788;-0.009773843921720982;0.03787364438176155
01:00:0A:00:00:00:00;1724630866;26/08/24;00:07:46;1.012;-0.039;0.074;0.05253440886735916;-0.009773843921720982;-0.024434609338641167
01:00:0A:00:00:00:00;1724630867;26/08/24;00:07:47;1.013;-0.018;0.064;0.04886921867728233;-0.006108652334660292;-0.021991148591041565
01:00:0A:00:00:00:00;1724630868;26/08/24;00:07:48;1.016;-0.04;0.061;0.04886921867728233;0.0073303827084600925;0.02076941914856434
01:00:0A:00:00:00:00;1724630869;26/08/24;00:07:49;1.017;-0.048;0.068;0.04764748737215996;-0.012217304669320583;-0.019547687843441963
01:00:0A:00:00:00:00;1724630870;26/08/24;00:07:50;1.019;-0.025;0.055;0.04398229718208313;-0.02687807008624077;0.0024434609804302454
01:00:0A:00:00:00:00;1724630871;26/08/24;00:07:51;1.016;-0.041;0.066;0.045204028487205505;0.0012217304902151227;0.036651913076639175
01:00:0A:00:00:00:00;1724630872;26/08/24;00:07:52;1.013;-0.04;0.072;0.04398229718208313;-0.024434609338641167;-0.0036651913542300463
01:00:0A:00:00:00:00;1724630873;26/08/24;00:07:53;1.013;-0.022;0.054;0.04153883829712868;-0.028099799528717995;0.0024434609804302454
01:00:0A:00:00:00:00;1724630874;26/08/24;00:07:54;1.014;-0.036;0.068;0.04642575979232788;0.004886921960860491;0.021991148591041565
01:00:0A:00:00:00:00;1724630875;26/08/24;00:07:55;1.018;-0.038;0.077;0.040317103266716;-0.03298672288656235;-0.013439035043120384
01:00:0A:00:00:00:00;1724630876;26/08/24;00:07:56;1.019;-0.017;0.055;0.040317103266716;-0.02932153083384037;0.006108652334660292
01:00:0A:00:00:00:00;1724630877;26/08/24;00:07:57;1.019;-0.037;0.074;0.04642575979232788;0.009773843921720982;0.02076941914856434
01:00:0A:00:00:00:00;1724630878;26/08/24;00:07:58;1.02;-0.036;0.079;0.039095375686883926;-0.02932153083384037;-0.01710422709584236
01:00:0A:00:00:00:00;1724630879;26/08/24;00:07:59;1.02;-0.027;0.055;0.042760565876960754;0.0;-0.004886921960860491
01:00:0A:00:00:00:00;1724630880;26/08/24;00:08:00;1.019;-0.042;0.077;0.04764748737215996;0.03176499158143997;0.018325956538319588
01:00:0A:00:00:00:00;1724630881;26/08/24;00:08:01;1.016;-0.039;0.069;0.036651913076639175;-0.01710422709584236;0.0012217304902151227
01:00:0A:00:00:00:00;1724630882;26/08/24;00:08:02;1.013;-0.024;0.042;0.039095375686883926;-0.01710422709584236;0.01710422709584236
01:00:0A:00:00:00:00;1724630883;26/08/24;00:08:03;1.01;-0.033;0.065;0.04398229718208313;0.006108652334660292;0.02687807008624077
01:00:0A:00:00:00:00;1724630884;26/08/24;00:08:04;1.007;-0.028;0.067;0.03176499158143997;-0.05619959905743599;-0.013439035043120384
01:00:0A:00:00:00:00;1724630885;26/08/24;00:08:05;1.008;-0.02;0.05;0.04153883829712868;-0.015882495790719986;-0.00855211354792118
01:00:0A:00:00:00:00;1724630886;26/08/24;00:08:06;1.016;-0.031;0.077;0.04398229718208313;-0.0012217304902151227;-0.009773843921720982
01:00:0A:00:00:00:00;1724630887;26/08/24;00:08:07;1.021;-0.038;0.075;0.030543262138962746;-0.040317103266716;-0.013439035043120384
01:00:0A:00:00:00:00;1724630888;26/08/24;00:08:08;1.03;-0.04;0.053;0.040317103266716;-0.0073303827084600925;0.0073303827084600925
01:00:0A:00:00:00:00;1724630889;26/08/24;00:08:09;1.028;-0.04;0.08;0.04153883829712868;0.010995574295520782;0.015882495790719986
01:00:0A:00:00:00:00;1724630890;26/08/24;00:08:10;1.017;-0.04;0.07;0.025656338781118393;-0.03176499158143997;0.018325956538319588
01:00:0A:00:00:00:00;1724630891;26/08/24;00:08:11;1.009;-0.031;0.056;0.036651913076639175;-0.0036651913542300463;0.012217304669320583
01:00:0A:00:00:00:00;1724630892;26/08/24;00:08:12;1.004;-0.03;0.074;0.039095375686883926;0.019547687843441963;0.021991148591041565
01:00:0A:00:00:00:00;1724630893;26/08/24;00:08:13;1.003;-0.034;0.067;0.024434609338641167;-0.0354301817715168;0.0024434609804302454
01:00:0A:00:00:00:00;1724630894;26/08/24;00:08:14;1.01;-0.035;0.052;0.040317103266716;0.00855211354792118;-0.021991148591041565
01:00:0A:00:00:00:00;1724630895;26/08/24;00:08:15;1.021;-0.035;0.074;0.03420845419168472;-0.004886921960860491;-0.0012217304902151227
01:00:0A:00:00:00:00;1724630896;26/08/24;00:08:16;1.025;-0.041;0.064;0.021991148591041565;-0.036651913076639175;0.0073303827084600925
01:00:0A:00:00:00:00;1724630897;26/08/24;00:08:17;1.023;-0.038;0.055;0.03298672288656235;-0.0036651913542300463;0.02076941914856434
01:00:0A:00:00:00:00;1724630898;26/08/24;00:08:18;1.009;-0.029;0.083;0.030543262138962746;0.009773843921720982;0.025656338781118393
01:00:0A:00:00:00:00;1724630899;26/08/24;00:08:19;1.004;-0.03;0.069;0.015882495790719986;-0.03298672288656235;0.015882495790719986
01:00:0A:00:00:00:00;1724630900;26/08/24;00:08:20;1.007;-0.031;0.057;0.0354301817715168;0.0073303827084600925;-0.024434609338641167
01:00:0A:00:00:00:00;1724630901;26/08/24;00:08:21;1.011;-0.024;0.075;0.02687807008624077;-0.00855211354792118;-0.019547687843441963
01:00:0A:00:00:00:00;1724630902;26/08/24;00:08:22;1.023;-0.042;0.06;0.015882495790719986;-0.028099799528717995;0.0024434609804302454
01:00:0A:00:00:00:00;1724630903;26/08/24;00:08:23;1.023;-0.043;0.058;0.02932153083384037;0.009773843921720982;0.0036651913542300463
01:00:0A:00:00:00:00;1724630904;26/08/24;00:08:24;1.016;-0.032;0.073;0.021991148591041565;-0.006108652334660292;0.021991148591041565
01:00:0A:00:00:00:00;1724630905;26/08/24;00:08:25;1.009;-0.033;0.055;0.013439035043120384;-0.0354301817715168;0.02321287989616394
01:00:0A:00:00:00:00;1724630906;26/08/24;00:08:26;1.01;-0.026;0.055;0.03176499158143997;0.0;-0.02076941914856434
01:00:0A:00:00:00:00;1724630907;26/08/24;00:08:27;1.022;-0.023;0.076;0.02076941914856434;-0.039095375686883926;-0.012217304669320583
01:00:0A:00:00:00:00;1724630908;26/08/24;00:08:28;1.032;-0.045;0.064;0.01710422709584236;-0.03420845419168472;0.0024434609804302454
01:00:0A:00:00:00:00;1724630909;26/08/24;00:08:29;1.028;-0.045;0.071;0.030543262138962746;0.00855211354792118;0.012217304669320583
01:00:0A:00:00:00:00;1724630910;26/08/24;00:08:30;1.016;-0.032;0.081;0.02076941914856434;-0.0012217304902151227;0.028099799528717995
01:00:0A:00:00:00:00;1724630911;26/08/24;00:08:31;0.996;-0.032;0.063;0.014660765416920185;-0.019547687843441963;0.02321287989616394
01:00:0A:00:00:00:00;1724630912;26/08/24;00:08:32;0.994;-0.02;0.062;0.030543262138962746;0.01710422709584236;-0.021991148591041565
01:00:0A:00:00:00:00;1724630913;26/08/24;00:08:33;1.011;-0.019;0.07;0.015882495790719986;-0.02076941914856434;-0.012217304669320583
01:00:0A:00:00:00:00;1724630914;26/08/24;00:08:34;1.026;-0.048;0.062;0.014660765416920185;-0.028099799528717995;-0.02932153083384037
01:00:0A:00:00:00:00;1724630915;26/08/24;00:08:35;1.038;-0.046;0.068;0.02076941914856434;-0.004886921960860491;-0.0036651913542300463
01:00:0A:00:00:00:00;1724630916;26/08/24;00:08:36;1.019;-0.036;0.076;0.012217304669320583;0.0036651913542300463;0.036651913076639175
01:00:0A:00:00:00:00;1724630917;26/08/24;00:08:37;1.006;-0.04;0.062;0.0073303827084600925;-0.013439035043120384;0.04886921867728233
01:00:0A:00:00:00:00;1724630918;26/08/24;00:08:38;0.991;-0.019;0.059;0.021991148591041565;0.0073303827084600925;-0.004886921960860491
01:00:0A:00:00:00:00;1724630919;26/08/24;00:08:39;0.998;-0.015;0.068;0.009773843921720982;-0.024434609338641167;0.009773843921720982
01:00:0A:00:00:00:00;1724630920;26/08/24;00:08:40;1.025;-0.041;0.063;0.013439035043120384;-0.03176499158143997;-0.04153883829712868
01:00:0A:00:00:00:00;1724630921;26/08/24;00:08:41;1.037;-0.037;0.066;0.02076941914856434;-0.014660765416920185;-0.03420845419168472
01:00:0A:00:00:00:00;1724630922;26/08/24;00:08:42;1.033;-0.04;0.078;0.012217304669320583;-0.006108652334660292;0.015882495790719986
01:00:0A:00:00:00:00;1724630923;26/08/24;00:08:43;1.019;-0.057;0.068;0.010995574295520782;-0.0073303827084600925;0.04153883829712868
01:00:0A:00:00:00:00;1724630924;26/08/24;00:08:44;0.997;-0.03;0.068;0.021991148591041565;0.019547687843441963;0.013439035043120384
01:00:0A:00:00:00:00;1724630925;26/08/24;00:08:45;0.993;-0.019;0.069;0.010995574295520782;-0.013439035043120384;0.018325956538319588
01:00:0A:00:00:00:00;1724630926;26/08/24;00:08:46;1.005;-0.032;0.061;0.013439035043120384;-0.028099799528717995;-0.03176499158143997
01:00:0A:00:00:00:00;1724630927;26/08/24;00:08:47;1.029;-0.031;0.065;0.019547687843441963;-0.010995574295520782;-0.02932153083384037
01:00:0A:00:00:00:00;1724630928;26/08/24;00:08:48;1.035;-0.039;0.074;0.012217304669320583;-0.013439035043120384;0.004886921960860491
01:00:0A:00:00:00:00;1724630929;26/08/24;00:08:49;1.028;-0.052;0.066;0.012217304669320583;-0.012217304669320583;0.013439035043120384
01:00:0A:00:00:00:00;1724630930;26/08/24;00:08:50;1.019;-0.038;0.069;0.02076941914856434;0.010995574295520782;0.013439035043120384
01:00:0A:00:00:00:00;1724630931;26/08/24;00:08:51;1.003;-0.032;0.063;0.013439035043120384;-0.004886921960860491;0.03420845419168472
01:00:0A:00:00:00:00;1724630932;26/08/24;00:08:52;0.999;-0.034;0.058;0.018325956538319588;-0.019547687843441963;-0.006108652334660292
01:00:0A:00:00:00:00;1724630933;26/08/24;00:08:53;1.008;-0.03;0.061;0.024434609338641167;-0.014660765416920185;-0.021991148591041565
01:00:0A:00:00:00:00;1724630934;26/08/24;00:08:54;1.018;-0.035;0.071;0.01710422709584236;-0.02321287989616394;0.0012217304902151227
01:00:0A:00:00:00:00;1724630935;26/08/24;00:08:55;1.023;-0.046;0.067;0.02076941914856434;-0.015882495790719986;-0.0024434609804302454
01:00:0A:00:00:00:00;1724630936;26/08/24;00:08:56;1.023;-0.034;0.071;0.02321287989616394;0.0012217304902151227;0.00855211354792118
01:00:0A:00:00:00:00;1724630937;26/08/24;00:08:57;1.019;-0.033;0.07;0.01710422709584236;0.0036651913542300463;0.040317103266716
01:00:0A:00:00:00:00;1724630938;26/08/24;00:08:58;1.016;-0.03;0.055;0.019547687843441963;-0.0073303827084600925;0.015882495790719986
01:00:0A:00:00:00:00;1724630939;26/08/24;00:08:59;1.014;-0.019;0.058;0.024434609338641167;-0.0036651913542300463;-0.004886921960860491
01:00:0A:00:00:00:00;1724630940;26/08/24;00:09:00;1.013;-0.027;0.063;0.018325956538319588;-0.02076941914856434;0.0012217304902151227
01:00:0A:00:00:00:00;1724630941;26/08/24;00:09:01;1.016;-0.036;0.062;0.02076941914856434;-0.028099799528717995;-0.02321287989616394
01:00:0A:00:00:00:00;1724630942;26/08/24;00:09:02;1.016;-0.034;0.07;0.021991148591041565;-0.019547687843441963;-0.01710422709584236
01:00:0A:00:00:00:00;1724630943;26/08/24;00:09:03;1.016;-0.041;0.073;0.01710422709584236;-0.0024434609804302454;0.02321287989616394
01:00:0A:00:00:00:00;1724630944;26/08/24;00:09:04;1.016;-0.043;0.07;0.019547687843441963;0.0012217304902151227;0.014660765416920185
01:00:0A:00:00:00:00;1724630945;26/08/24;00:09:05;1.016;-0.026;0.064;0.02076941914856434;0.006108652334660292;0.010995574295520782
01:00:0A:00:00:00:00;1724630946;26/08/24;00:09:06;1.017;-0.027;0.061;0.01710422709584236;0.0012217304902151227;0.021991148591041565
01:00:0A:00:00:00:00;1724630947;26/08/24;00:09:07;1.015;-0.034;0.058;0.019547687843441963;-0.02321287989616394;-0.00855211354792118
01:00:0A:00:00:00:00;1724630948;26/08/24;00:09:08;1.012;-0.024;0.06;0.019547687843441963;-0.02321287989616394;-0.006108652334660292
01:00:0A:00:00:00:00;1724630949;26/08/24;00:09:09;1.007;-0.034;0.067;0.014660765416920185;-0.025656338781118393;0.0024434609804302454
01:00:0A:00:00:00:00;1724630950;26/08/24;00:09:10;1.008;-0.04;0.069;0.019547687843441963;-0.02076941914856434;-0.01710422709584236
01:00:0A:00:00:00:00;1724630951;26/08/24;00:09:11;1.013;-0.031;0.068;0.018325956538319588;-0.009773843921720982;0.0
01:00:0A:00:00:00:00;1724630952;26/08/24;00:09:12;1.018;-0.038;0.07;0.014660765416920185;-0.0012217304902151227;0.019547687843441963
01:00:0A:00:00:00:00;1724630953;26/08/24;00:09:13;1.026;-0.039;0.065;0.01710422709584236;-0.013439035043120384;-0.004886921960860491
01:00:0A:00:00:00:00;1724630954;26/08/24;00:09:14;1.024;-0.029;0.066;0.015882495790719986;-0.013439035043120384;-0.0024434609804302454
01:00:0A:00:00:00:00;1724630955;26/08/24;00:09:15;1.017;-0.04;0.068;0.013439035043120384;-0.010995574295520782;0.01710422709584236
01:00:0A:00:00:00:00;1724630956;26/08/24;00:09:16;1.01;-0.04;0.068;0.015882495790719986;-0.012217304669320583;-0.0024434609804302454
01:00:0A:00:00:00:00;1724630957;26/08/24;00:09:17;1.009;-0.032;0.07;0.015882495790719986;0.0;0.0073303827084600925
01:00:0A:00:00:00:00;1724630958;26/08/24;00:09:18;1.013;-0.033;0.065;0.013439035043120384;0.0024434609804302454;0.024434609338641167
01:00:0A:00:00:00:00;1724630959;26/08/24;00:09:19;1.017;-0.035;0.061;0.01710422709584236;-0.00855211354792118;0.0024434609804302454
01:00:0A:00:00:00:00;1724630960;26/08/24;00:09:20;1.017;-0.023;0.06;0.015882495790719986;-0.018325956538319588;-0.004886921960860491
01:00:0A:00:00:00:00;1724630961;26/08/24;00:09:21;1.009;-0.032;0.064;0.013439035043120384;-0.021991148591041565;0.0073303827084600925
01:00:0A:00:00:00:00;1724630962;26/08/24;00:09:22;1.004;-0.037;0.067;0.01710422709584236;-0.02076941914856434;-0.010995574295520782
01:00:0A:00:00:00:00;1724630963;26/08/24;00:09:23;1.01;-0.038;0.074;0.01710422709584236;-0.012217304669320583;-0.006108652334660292
01:00:0A:00:00:00:00;1724630964;26/08/24;00:09:24;1.023;-0.043;0.072;0.015882495790719986;-0.004886921960860491;0.0073303827084600925
01:00:0A:00:00:00:00;1724630965;26/08/24;00:09:25;1.038;-0.043;0.067;0.01710422709584236;0.004886921960860491;0.019547687843441963
01:00:0A:00:00:00:00;1724630966;26/08/24;00:09:26;1.035;-0.031;0.062;0.01710422709584236;0.004886921960860491;0.014660765416920185
01:00:0A:00:00:00:00;1724630967;26/08/24;00:09:27;1.012;-0.031;0.058;0.014660765416920185;-0.0073303827084600925;0.021991148591041565
01:00:0A:00:00:00:00;1724630968;26/08/24;00:09:28;0.994;-0.029;0.057;0.018325956538319588;-0.01710422709584236;-0.0024434609804302454
01:00:0A:00:00:00:00;1724630969;26/08/24;00:09:29;0.987;-0.029;0.061;0.02076941914856434;-0.025656338781118393;-0.00855211354792118
01:00:0A:00:00:00:00;1724630970;26/08/24;00:09:30;1.001;-0.033;0.065;0.019547687843441963;-0.024434609338641167;-0.004886921960860491
01:00:0A:00:00:00:00;1724630971;26/08/24;00:09:31;1.032;-0.04;0.07;0.02076941914856434;-0.019547687843441963;-0.009773843921720982
01:00:0A:00:00:00:00;1724630972;26/08/24;00:09:32;1.042;-0.035;0.066;0.021991148591041565;-0.0036651913542300463;0.010995574295520782
01:00:0A:00:00:00:00;1724630973;26/08/24;00:09:33;1.03;-0.036;0.067;0.02076941914856434;0.004886921960860491;0.018325956538319588
01:00:0A:00:00:00:00;1724630974;26/08/24;00:09:34;1.006;-0.036;0.064;0.019547687843441963;-0.006108652334660292;0.010995574295520782
01:00:0A:00:00:00:00;1724630975;26/08/24;00:09:35;0.995;-0.034;0.062;0.021991148591041565;-0.0073303827084600925;0.004886921960860491
01:00:0A:00:00:00:00;1724630976;26/08/24;00:09:36;0.999;-0.032;0.065;0.02076941914856434;-0.015882495790719986;0.0036651913542300463
01:00:0A:00:00:00:00;1724630977;26/08/24;00:09:37;1.013;-0.037;0.068;0.019547687843441963;-0.02076941914856434;-0.00855211354792118
01:00:0A:00:00:00:00;1724630978;26/08/24;00:09:38;1.032;-0.04;0.067;0.018325956538319588;-0.009773843921720982;0.0024434609804302454
01:00:0A:00:00:00:00;1724630979;26/08/24;00:09:39;1.035;-0.04;0.068;0.018325956538319588;-0.00855211354792118;0.014660765416920185
01:00:0A:00:00:00:00;1724630980;26/08/24;00:09:40;1.017;-0.041;0.063;0.00855211354792118;-0.004886921960860491;0.014660765416920185
01:00:0A:00:00:00:00;1724630981;26/08/24;00:09:41;1.001;-0.036;0.064;0.015882495790719986;-0.0012217304902151227;0.0012217304902151227
01:00:0A:00:00:00:00;1724630982;26/08/24;00:09:42;0.998;-0.03;0.066;0.010995574295520782;-0.014660765416920185;0.0073303827084600925
01:00:0A:00:00:00:00;1724630983;26/08/24;00:09:43;1.012;-0.038;0.063;0.010995574295520782;-0.030543262138962746;-0.004886921960860491
01:00:0A:00:00:00:00;1724630984;26/08/24;00:09:44;1.024;-0.04;0.061;0.01710422709584236;-0.021991148591041565;-0.018325956538319588
01:00:0A:00:00:00:00;1724630985;26/08/24;00:09:45;1.034;-0.038;0.072;0.013439035043120384;-0.014660765416920185;0.009773843921720982
01:00:0A:00:00:00:00;1724630986;26/08/24;00:09:46;1.031;-0.04;0.071;0.010995574295520782;-0.012217304669320583;0.012217304669320583
01:00:0A:00:00:00:00;1724630987;26/08/24;00:09:47;1.011;-0.041;0.069;0.013439035043120384;0.0;0.010995574295520782
01:00:0A:00:00:00:00;1724630988;26/08/24;00:09:48;1.003;-0.035;0.067;0.013439035043120384;-0.0012217304902151227;0.0073303827084600925
01:00:0A:00:00:00:00;1724630989;26/08/24;00:09:49;0.996;-0.035;0.064;0.009773843921720982;-0.013439035043120384;0.00855211354792118
01:00:0A:00:00:00:00;1724630990;26/08/24;00:09:50;1.009;-0.036;0.061;0.012217304669320583;-0.018325956538319588;-0.010995574295520782
01:00:0A:00:00:00:00;1724630991;26/08/24;00:09:51;1.021;-0.036;0.065;0.010995574295520782;-0.01710422709584236;-0.013439035043120384
01:00:0A:00:00:00:00;1724630992;26/08/24;00:09:52;1.032;-0.04;0.07;0.006108652334660292;-0.019547687843441963;0.00855211354792118
01:00:0A:00:00:00:00;1724630993;26/08/24;00:09:53;1.029;-0.038;0.066;0.006108652334660292;-0.015882495790719986;0.00855211354792118
01:00:0A:00:00:00:00;1724630994;26/08/24;00:09:54;1.016;-0.038;0.071;0.006108652334660292;-0.0036651913542300463;0.009773843921720982
01:00:0A:00:00:00:00;1724630995;26/08/24;00:09:55;1.008;-0.036;0.068;0.0024434609804302454;-0.0073303827084600925;0.012217304669320583
01:00:0A:00:00:00:00;1724630996;26/08/24;00:09:56;1.0;-0.033;0.062;0.004886921960860491;-0.006108652334660292;0.0073303827084600925
01:00:0A:00:00:00:00;1724630997;26/08/24;00:09:57;1.003;-0.034;0.066;0.004886921960860491;-0.009773843921720982;-0.0024434609804302454
01:00:0A:00:00:00:00;1724630998;26/08/24;00:09:58;1.015;-0.035;0.068;0.0012217304902151227;-0.02321287989616394;-0.012217304669320583
01:00:0A:00:00:00:00;1724630999;26/08/24;00:09:59;1.025;-0.037;0.064;0.0024434609804302454;-0.014660765416920185;0.0012217304902151227
01:00:0A:00:00:00:00;1724631000;26/08/24;00:10:00;1.026;-0.037;0.071;0.0024434609804302454;-0.0073303827084600925;0.0073303827084600925
01:00:0A:00:00:00:00;1724631001;26/08/24;00:10:01;1.02;-0.032;0.068;0.0;-0.004886921960860491;0.010995574295520782
01:00:0A:00:00:00:00;1724631002;26/08/24;00:10:02;1.014;-0.032;0.063;0.0012217304902151227;0.0036651913542300463;0.014660765416920185
01:00:0A:00:00:00:00;1724631003;26/08/24;00:10:03;1.009;-0.031;0.061;0.0024434609804302454;-0.006108652334660292;0.006108652334660292
01:00:0A:00:00:00:00;1724631004;26/08/24;00:10:04;1.009;-0.027;0.059;0.0;-0.02321287989616394;-0.0036651913542300463
01:00:0A:00:00:00:00;1724631005;26/08/24;00:10:05;1.013;-0.032;0.06;0.0012217304902151227;-0.02076941914856434;-0.0073303827084600925
01:00:0A:00:00:00:00;1724631006;26/08/24;00:10:06;1.019;-0.036;0.066;0.0012217304902151227;-0.02076941914856434;-0.006108652334660292
01:00:0A:00:00:00:00;1724631007;26/08/24;00:10:07;1.02;-0.035;0.071;0.0;-0.01710422709584236;0.0024434609804302454
01:00:0A:00:00:00:00;1724631008;26/08/24;00:10:08;1.017;-0.035;0.067;0.0024434609804302454;0.004886921960860491;0.015882495790719986
01:00:0A:00:00:00:00;1724631009;26/08/24;00:10:09;1.015;-0.033;0.066;0.0024434609804302454;0.006108652334660292;0.014660765416920185
01:00:0A:00:00:00:00;1724631010;26/08/24;00:10:10;1.011;-0.027;0.058;0.0012217304902151227;-0.009773843921720982;0.0073303827084600925
01:00:0A:00:00:00:00;1724631011;26/08/24;00:10:11;1.009;-0.027;0.055;0.0024434609804302454;-0.01710422709584236;0.0036651913542300463
01:00:0A:00:00:00:00;1724631012;26/08/24;00:10:12;1.011;-0.031;0.063;0.0036651913542300463;-0.02687807008624077;-0.009773843921720982
01:00:0A:00:00:00:00;1724631013;26/08/24;00:10:13;1.014;-0.031;0.065;0.0036651913542300463;-0.02932153083384037;-0.009773843921720982
01:00:0A:00:00:00:00;1724631014;26/08/24;00:10:14;1.017;-0.034;0.069;0.004886921960860491;-0.015882495790719986;0.0024434609804302454
01:00:0A:00:00:00:00;1724631015;26/08/24;00:10:15;1.02;-0.038;0.072;0.0073303827084600925;-0.006108652334660292;0.0
01:00:0A:00:00:00:00;1724631016;26/08/24;00:10:16;1.023;-0.033;0.067;0.006108652334660292;-0.0036651913542300463;0.0073303827084600925
01:00:0A:00:00:00:00;1724631017;26/08/24;00:10:17;1.02;-0.033;0.062;0.006108652334660292;-0.004886921960860491;0.015882495790719986
01:00:0A:00:00:00:00;1724631018;26/08/24;00:10:18;1.017;-0.034;0.064;0.0073303827084600925;-0.00855211354792118;0.0073303827084600925
01:00:0A:00:00:00:00;1724631019;26/08/24;00:10:19;1.01;-0.031;0.066;0.006108652334660292;-0.014660765416920185;0.0036651913542300463
01:00:0A:00:00:00:00;1724631020;26/08/24;00:10:20;1.009;-0.036;0.066;0.0073303827084600925;-0.009773843921720982;0.010995574295520782
01:00:0A:00:00:00:00;1724631021;26/08/24;00:10:21;1.01;-0.034;0.067;0.009773843921720982;-0.0073303827084600925;-0.0012217304902151227
01:00:0A:00:00:00:00;1724631022;26/08/24;00:10:22;1.013;-0.03;0.065;0.0073303827084600925;-0.010995574295520782;0.0024434609804302454
01:00:0A:00:00:00:00;1724631023;26/08/24;00:10:23;1.016;-0.032;0.061;0.00855211354792118;-0.010995574295520782;0.0073303827084600925
01:00:0A:00:00:00:00;1724631024;26/08/24;00:10:24;1.018;-0.033;0.062;0.010995574295520782;-0.018325956538319588;-0.0024434609804302454
01:00:0A:00:00:00:00;1724631025;26/08/24;00:10:25;1.016;-0.031;0.066;0.00855211354792118;-0.02321287989616394;0.0036651913542300463
01:00:0A:00:00:00:00;1724631026;26/08/24;00:10:26;1.015;-0.037;0.069;0.009773843921720982;-0.012217304669320583;0.010995574295520782
01:00:0A:00:00:00:00;1724631027;26/08/24;00:10:27;1.015;-0.037;0.07;0.012217304669320583;-0.009773843921720982;-0.0012217304902151227
01:00:0A:00:00:00:00;1724631028;26/08/24;00:10:28;1.016;-0.03;0.067;0.009773843921720982;-0.006108652334660292;0.009773843921720982
01:00:0A:00:00:00:00;1724631029;26/08/24;00:10:29;1.018;-0.037;0.065;0.010995574295520782;0.0024434609804302454;0.012217304669320583
01:00:0A:00:00:00:00;1724631030;26/08/24;00:10:30;1.02;-0.033;0.064;0.012217304669320583;-0.0024434609804302454;0.0012217304902151227
01:00:0A:00:00:00:00;1724631031;26/08/24;00:10:31;1.017;-0.029;0.061;0.009773843921720982;-0.013439035043120384;0.00855211354792118
01:00:0A:00:00:00:00;1724631032;26/08/24;00:10:32;1.013;-0.036;0.064;0.009773843921720982;-0.015882495790719986;0.010995574295520782
01:00:0A:00:00:00:00;1724631033;26/08/24;00:10:33;1.011;-0.032;0.065;0.012217304669320583;-0.015882495790719986;-0.004886921960860491
01:00:0A:00:00:00:00;1724631034;26/08/24;00:10:34;1.008;-0.031;0.065;0.010995574295520782;-0.01710422709584236;0.0073303827084600925
01:00:0A:00:00:00:00;1724631035;26/08/24;00:10:35;1.011;-0.037;0.068;0.012217304669320583;-0.009773843921720982;0.0073303827084600925
01:00:0A:00:00:00:00;1724631036;26/08/24;00:10:36;1.017;-0.035;0.068;0.015882495790719986;-0.010995574295520782;-0.00855211354792118
01:00:0A:00:00:00:00;1724631037;26/08/24;00:10:37;1.023;-0.032;0.065;0.012217304669320583;-0.015882495790719986;0.009773843921720982
01:00:0A:00:00:00:00;1724631038;26/08/24;00:10:38;1.022;-0.04;0.065;0.013439035043120384;-0.009773843921720982;0.013439035043120384
01:00:0A:00:00:00:00;1724631039;26/08/24;00:10:39;1.019;-0.032;0.066;0.015882495790719986;-0.010995574295520782;0.0024434609804302454
01:00:0A:00:00:00:00;1724631040;26/08/24;00:10:40;1.016;-0.03;0.065;0.012217304669320583;-0.013439035043120384;0.014660765416920185
01:00:0A:00:00:00:00;1724631041;26/08/24;00:10:41;1.01;-0.037;0.066;0.014660765416920185;-0.010995574295520782;0.010995574295520782
01:00:0A:00:00:00:00;1724631042;26/08/24;00:10:42;1.01;-0.029;0.065;0.01710422709584236;-0.014660765416920185;-0.0073303827084600925
01:00:0A:00:00:00:00;1724631043;26/08/24;00:10:43;1.012;-0.027;0.064;0.013439035043120384;-0.014660765416920185;0.0073303827084600925
01:00:0A:00:00:00:00;1724631044;26/08/24;00:10:44;1.016;-0.038;0.063;0.015882495790719986;-0.010995574295520782;0.0036651913542300463
01:00:0A:00:00:00:00;1724631045;26/08/24;00:10:45;1.016;-0.03;0.066;0.018325956538319588;-0.014660765416920185;-0.009773843921720982
01:00:0A:00:00:00:00;1724631046;26/08/24;00:10:46;1.016;-0.029;0.065;0.013439035043120384;-0.015882495790719986;0.009773843921720982
01:00:0A:00:00:00:00;1724631047;26/08/24;00:10:47;1.016;-0.038;0.068;0.01710422709584236;-0.012217304669320583;0.0024434609804302454
01:00:0A:00:00:00:00;1724631048;26/08/24;00:10:48;1.016;-0.03;0.067;0.019547687843441963;-0.009773843921720982;-0.009773843921720982
01:00:0A:00:00:00:00;1724631049;26/08/24;00:10:49;1.016;-0.031;0.064;0.014660765416920185;-0.0073303827084600925;0.012217304669320583
01:00:0A:00:00:00:00;1724631050;26/08/24;00:10:50;1.018;-0.041;0.063;0.018325956538319588;-0.004886921960860491;0.0073303827084600925
01:00:0A:00:00:00:00;1724631051;26/08/24;00:10:51;1.019;-0.031;0.064;0.018325956538319588;-0.00855211354792118;0.0
01:00:0A:00:00:00:00;1724631052;26/08/24;00:10:52;1.015;-0.029;0.063;0.013439035043120384;-0.014660765416920185;0.021991148591041565
01:00:0A:00:00:00:00;1724631053;26/08/24;00:10:53;1.009;-0.038;0.063;0.015882495790719986;-0.015882495790719986;0.0073303827084600925
01:00:0A:00:00:00:00;1724631054;26/08/24;00:10:54;1.009;-0.025;0.065;0.01710422709584236;-0.015882495790719986;-0.004886921960860491
01:00:0A:00:00:00:00;1724631055;26/08/24;00:10:55;1.011;-0.027;0.068;0.013439035043120384;-0.010995574295520782;0.012217304669320583
01:00:0A:00:00:00:00;1724631056;26/08/24;00:10:56;1.016;-0.039;0.067;0.018325956538319588;-0.0073303827084600925;-0.0073303827084600925
01:00:0A:00:00:00:00;1724631057;26/08/24;00:10:57;1.022;-0.028;0.066;0.018325956538319588;-0.00855211354792118;-0.0073303827084600925
01:00:0A:00:00:00:00;1724631058;26/08/24;00:10:58;1.023;-0.033;0.063;0.013439035043120384;-0.0073303827084600925;0.01710422709584236
01:00:0A:00:00:00:00;1724631059;26/08/24;00:10:59;1.017;-0.04;0.065;0.01710422709584236;-0.00855211354792118;0.0073303827084600925
01:00:0A:00:00:00:00;1724631060;26/08/24;00:11:00;1.013;-0.027;0.066;0.01710422709584236;-0.012217304669320583;-0.0024434609804302454
01:00:0A:00:00:00:00;1724631061;26/08/24;00:11:01;1.009;-0.033;0.065;0.012217304669320583;-0.010995574295520782;0.02321287989616394
01:00:0A:00:00:00:00;1724631062;26/08/24;00:11:02;1.013;-0.038;0.068;0.018325956538319588;-0.009773843921720982;-0.0073303827084600925
01:00:0A:00:00:00:00;1724631063;26/08/24;00:11:03;1.017;-0.026;0.068;0.015882495790719986;-0.012217304669320583;-0.006108652334660292
01:00:0A:00:00:00:00;1724631064;26/08/24;00:11:04;1.022;-0.035;0.063;0.012217304669320583;-0.00855211354792118;0.02076941914856434
01:00:0A:00:00:00:00;1724631065;26/08/24;00:11:05;1.022;-0.04;0.066;0.01710422709584236;-0.00855211354792118;0.0012217304902151227
01:00:0A:00:00:00:00;1724631066;26/08/24;00:11:06;1.017;-0.024;0.065;0.014660765416920185;-0.013439035043120384;0.0
01:00:0A:00:00:00:00;1724631067;26/08/24;00:11:07;1.012;-0.034;0.065;0.012217304669320583;-0.010995574295520782;0.02321287989616394
01:00:0A:00:00:00:00;1724631068;26/08/24;00:11:08;1.012;-0.038;0.067;0.018325956538319588;-0.010995574295520782;-0.00855211354792118
01:00:0A:00:00:00:00;1724631069;26/08/24;00:11:09;1.013;-0.022;0.065;0.015882495790719986;-0.012217304669320583;-0.0036651913542300463
01:00:0A:00:00:00:00;1724631070;26/08/24;00:11:10;1.017;-0.037;0.064;0.013439035043120384;-0.0073303827084600925;0.014660765416920185
01:00:0A:00:00:00:00;1724631071;26/08/24;00:11:11;1.019;-0.041;0.066;0.018325956538319588;-0.012217304669320583;-0.0036651913542300463
01:00:0A:00:00:00:00;1724631072;26/08/24;00:11:12;1.017;-0.025;0.063;0.014660765416920185;-0.015882495790719986;0.004886921960860491
01:00:0A:00:00:00:00;1724631073;26/08/24;00:11:13;1.012;-0.037;0.065;0.012217304669320583;-0.012217304669320583;0.028099799528717995
01:00:0A:00:00:00:00;1724631074;26/08/24;00:11:14;1.009;-0.036;0.067;0.019547687843441963;-0.014660765416920185;-0.010995574295520782
01:00:0A:00:00:00:00;1724631075;26/08/24;00:11:15;1.012;-0.022;0.065;0.01710422709584236;-0.015882495790719986;-0.0024434609804302454
01:00:0A:00:00:00:00;1724631076;26/08/24;00:11:16;1.013;-0.036;0.065;0.015882495790719986;-0.00855211354792118;0.012217304669320583
01:00:0A:00:00:00:00;1724631077;26/08/24;00:11:17;1.017;-0.039;0.066;0.02076941914856434;-0.013439035043120384;-0.019547687843441963
01:00:0A:00:00:00:00;1724631078;26/08/24;00:11:18;1.019;-0.025;0.064;0.015882495790719986;-0.01710422709584236;0.0024434609804302454
01:00:0A:00:00:00:00;1724631079;26/08/24;00:11:19;1.02;-0.04;0.064;0.015882495790719986;-0.012217304669320583;0.02076941914856434
01:00:0A:00:00:00:00;1724631080;26/08/24;00:11:20;1.016;-0.039;0.067;0.02076941914856434;-0.010995574295520782;-0.010995574295520782
01:00:0A:00:00:00:00;1724631081;26/08/24;00:11:21;1.016;-0.025;0.064;0.01710422709584236;-0.010995574295520782;0.00855211354792118
01:00:0A:00:00:00:00;1724631082;26/08/24;00:11:22;1.016;-0.04;0.065;0.01710422709584236;-0.004886921960860491;0.02321287989616394
01:00:0A:00:00:00:00;1724631083;26/08/24;00:11:23;1.016;-0.035;0.067;0.021991148591041565;-0.010995574295520782;-0.014660765416920185
01:00:0A:00:00:00:00;1724631084;26/08/24;00:11:24;1.016;-0.024;0.062;0.01710422709584236;-0.013439035043120384;0.009773843921720982
01:00:0A:00:00:00:00;1724631085;26/08/24;00:11:25;1.013;-0.042;0.064;0.018325956538319588;-0.0073303827084600925;0.019547687843441963
01:00:0A:00:00:00:00;1724631086;26/08/24;00:11:26;1.014;-0.034;0.066;0.021991148591041565;-0.014660765416920185;-0.01710422709584236
01:00:0A:00:00:00:00;1724631087;26/08/24;00:11:27;1.014;-0.023;0.064;0.01710422709584236;-0.013439035043120384;0.012217304669320583
01:00:0A:00:00:00:00;1724631088;26/08/24;00:11:28;1.014;-0.041;0.067;0.019547687843441963;-0.00855211354792118;0.012217304669320583
01:00:0A:00:00:00:00;1724631089;26/08/24;00:11:29;1.018;-0.036;0.068;0.024434609338641167;-0.014660765416920185;-0.02076941914856434
01:00:0A:00:00:00:00;1724631090;26/08/24;00:11:30;1.019;-0.025;0.065;0.018325956538319588;-0.009773843921720982;0.012217304669320583
01:00:0A:00:00:00:00;1724631091;26/08/24;00:11:31;1.019;-0.044;0.067;0.02076941914856434;-0.0036651913542300463;0.018325956538319588
01:00:0A:00:00:00:00;1724631092;26/08/24;00:11:32;1.018;-0.033;0.066;0.024434609338641167;-0.012217304669320583;-0.013439035043120384
01:00:0A:00:00:00:00;1724631093;26/08/24;00:11:33;1.015;-0.024;0.061;0.019547687843441963;-0.00855211354792118;0.018325956538319588
01:00:0A:00:00:00:00;1724631094;26/08/24;00:11:34;1.014;-0.043;0.066;0.021991148591041565;-0.006108652334660292;0.014660765416920185
01:00:0A:00:00:00:00;1724631095;26/08/24;00:11:35;1.013;-0.029;0.063;0.024434609338641167;-0.018325956538319588;-0.019547687843441963
01:00:0A:00:00:00:00;1724631096;26/08/24;00:11:36;1.013;-0.024;0.061;0.02076941914856434;-0.010995574295520782;0.018325956538319588
01:00:0A:00:00:00:00;1724631097;26/08/24;00:11:37;1.014;-0.043;0.068;0.02321287989616394;-0.010995574295520782;0.006108652334660292
01:00:0A:00:00:00:00;1724631098;26/08/24;00:11:38;1.016;-0.032;0.069;0.024434609338641167;-0.018325956538319588;-0.02076941914856434
01:00:0A:00:00:00:00;1724631099;26/08/24;00:11:39;1.016;-0.026;0.063;0.019547687843441963;-0.00855211354792118;0.02076941914856434
01:00:0A:00:00:00:00;1724631100;26/08/24;00:11:40;1.019;-0.044;0.069;0.02321287989616394;-0.0073303827084600925;0.009773843921720982
01:00:0A:00:00:00:00;1724631101;26/08/24;00:11:41;1.019;-0.029;0.066;0.024434609338641167;-0.01710422709584236;-0.013439035043120384
01:00:0A:00:00:00:00;1724631102;26/08/24;00:11:42;1.017;-0.026;0.063;0.019547687843441963;-0.004886921960860491;0.025656338781118393
01:00:0A:00:00:00:00;1724631103;26/08/24;00:11:43;1.016;-0.045;0.069;0.02321287989616394;-0.0073303827084600925;0.00855211354792118
01:00:0A:00:00:00:00;1724631104;26/08/24;00:11:44;1.015;-0.027;0.064;0.02321287989616394;-0.019547687843441963;-0.014660765416920185
01:00:0A:00:00:00:00;1724631105;26/08/24;00:11:45;1.014;-0.028;0.06;0.019547687843441963;-0.004886921960860491;0.02687807008624077
01:00:0A:00:00:00:00;1724631106;26/08/24;00:11:46;1.013;-0.044;0.069;0.021991148591041565;-0.012217304669320583;0.0012217304902151227
01:00:0A:00:00:00:00;1724631107;26/08/24;00:11:47;1.015;-0.027;0.064;0.021991148591041565;-0.024434609338641167;-0.01710422709584236
01:00:0A:00:00:00:00;1724631108;26/08/24;00:11:48;1.015;-0.028;0.063;0.019547687843441963;-0.00855211354792118;0.024434609338641167
01:00:0A:00:00:00:00;1724631109;26/08/24;00:11:49;1.017;-0.044;0.072;0.021991148591041565;-0.010995574295520782;0.0
01:00:0A:00:00:00:00;1724631110;26/08/24;00:11:50;1.017;-0.024;0.064;0.02076941914856434;-0.019547687843441963;-0.013439035043120384
01:00:0A:00:00:00:00;1724631111;26/08/24;00:11:51;1.017;-0.031;0.064;0.019547687843441963;0.0012217304902151227;0.024434609338641167
01:00:0A:00:00:00:00;1724631112;26/08/24;00:11:52;1.017;-0.043;0.071;0.021991148591041565;-0.0073303827084600925;-0.0024434609804302454
01:00:0A:00:00:00:00;1724631113;26/08/24;00:11:53;1.016;-0.025;0.061;0.02076941914856434;-0.019547687843441963;-0.010995574295520782
01:00:0A:00:00:00:00;1724631114;26/08/24;00:11:54;1.016;-0.034;0.064;0.018325956538319588;-0.0012217304902151227;0.028099799528717995
01:00:0A:00:00:00:00;1724631115;26/08/24;00:11:55;1.014;-0.042;0.071;0.02076941914856434;-0.014660765416920185;-0.0036651913542300463
01:00:0A:00:00:00:00;1724631116;26/08/24;00:11:56;1.015;-0.023;0.061;0.018325956538319588;-0.019547687843441963;-0.0073303827084600925
01:00:0A:00:00:00:00;1724631117;26/08/24;00:11:57;1.016;-0.032;0.064;0.018325956538319588;-0.0012217304902151227;0.025656338781118393
01:00:0A:00:00:00:00;1724631118;26/08/24;00:11:58;1.015;-0.042;0.071;0.019547687843441963;-0.013439035043120384;-0.006108652334660292
01:00:0A:00:00:00:00;1724631119;26/08/24;00:11:59;1.016;-0.023;0.06;0.01710422709584236;-0.018325956538319588;-0.006108652334660292
01:00:0A:00:00:00:00;1724631120;26/08/24;00:12:00;1.016;-0.032;0.064;0.01710422709584236;0.0012217304902151227;0.024434609338641167
01:00:0A:00:00:00:00;1724631121;26/08/24;00:12:01;1.014;-0.04;0.071;0.01710422709584236;-0.015882495790719986;-0.00855211354792118
01:00:0A:00:00:00:00;1724631122;26/08/24;00:12:02;1.016;-0.023;0.06;0.015882495790719986;-0.018325956538319588;-0.0073303827084600925
01:00:0A:00:00:00:00;1724631123;26/08/24;00:12:03;1.016;-0.036;0.064;0.01710422709584236;0.0024434609804302454;0.02321287989616394
01:00:0A:00:00:00:00;1724631124;26/08/24;00:12:04;1.015;-0.041;0.07;0.01710422709584236;-0.018325956538319588;-0.009773843921720982
01:00:0A:00:00:00:00;1724631125;26/08/24;00:12:05;1.016;-0.023;0.06;0.014660765416920185;-0.02076941914856434;-0.0036651913542300463
01:00:0A:00:00:00:00;1724631126;26/08/24;00:12:06;1.017;-0.037;0.066;0.015882495790719986;-0.0012217304902151227;0.024434609338641167
01:00:0A:00:00:00:00;1724631127;26/08/24;00:12:07;1.017;-0.04;0.073;0.015882495790719986;-0.019547687843441963;-0.00855211354792118
01:00:0A:00:00:00:00;1724631128;26/08/24;00:12:08;1.016;-0.023;0.06;0.014660765416920185;-0.01710422709584236;0.0012217304902151227
01:00:0A:00:00:00:00;1724631129;26/08/24;00:12:09;1.015;-0.037;0.068;0.015882495790719986;0.004886921960860491;0.024434609338641167
01:00:0A:00:00:00:00;1724631130;26/08/24;00:12:10;1.013;-0.038;0.07;0.014660765416920185;-0.019547687843441963;-0.012217304669320583
01:00:0A:00:00:00:00;1724631131;26/08/24;00:12:11;1.013;-0.022;0.057;0.014660765416920185;-0.014660765416920185;0.0012217304902151227
01:00:0A:00:00:00:00;1724631132;26/08/24;00:12:12;1.013;-0.037;0.066;0.014660765416920185;0.0012217304902151227;0.019547687843441963
01:00:0A:00:00:00:00;1724631133;26/08/24;00:12:13;1.015;-0.038;0.068;0.013439035043120384;-0.024434609338641167;-0.01710422709584236
01:00:0A:00:00:00:00;1724631134;26/08/24;00:12:14;1.017;-0.025;0.059;0.013439035043120384;-0.015882495790719986;0.0012217304902151227
01:00:0A:00:00:00:00;1724631135;26/08/24;00:12:15;1.018;-0.039;0.07;0.014660765416920185;0.0;0.018325956538319588
01:00:0A:00:00:00:00;1724631136;26/08/24;00:12:16;1.018;-0.038;0.07;0.012217304669320583;-0.02076941914856434;-0.009773843921720982
01:00:0A:00:00:00:00;1724631137;26/08/24;00:12:17;1.016;-0.024;0.059;0.012217304669320583;-0.010995574295520782;0.009773843921720982
01:00:0A:00:00:00:00;1724631138;26/08/24;00:12:18;1.015;-0.039;0.07;0.013439035043120384;0.0024434609804302454;0.02321287989616394
01:00:0A:00:00:00:00;1724631139;26/08/24;00:12:19;1.015;-0.034;0.067;0.010995574295520782;-0.024434609338641167;-0.012217304669320583
01:00:0A:00:00:00:00;1724631140;26/08/24;00:12:20;1.013;-0.023;0.058;0.012217304669320583;-0.009773843921720982;0.006108652334660292
01:00:0A:00:00:00:00;1724631141;26/08/24;00:12:21;1.011;-0.04;0.07;0.013439035043120384;0.0;0.015882495790719986
01:00:0A:00:00:00:00;1724631142;26/08/24;00:12:22;1.012;-0.034;0.068;0.010995574295520782;-0.025656338781118393;-0.019547687843441963
01:00:0A:00:00:00:00;1724631143;26/08/24;00:12:23;1.016;-0.024;0.057;0.012217304669320583;-0.009773843921720982;0.006108652334660292
01:00:0A:00:00:00:00;1724631144;26/08/24;00:12:24;1.018;-0.041;0.07;0.012217304669320583;-0.0024434609804302454;0.012217304669320583
01:00:0A:00:00:00:00;1724631145;26/08/24;00:12:25;1.021;-0.035;0.067;0.009773843921720982;-0.02321287989616394;-0.012217304669320583
01:00:0A:00:00:00:00;1724631146;26/08/24;00:12:26;1.019;-0.025;0.059;0.010995574295520782;-0.006108652334660292;0.012217304669320583
01:00:0A:00:00:00:00;1724631147;26/08/24;00:12:27;1.016;-0.04;0.071;0.010995574295520782;-0.0012217304902151227;0.018325956538319588
01:00:0A:00:00:00:00;1724631148;26/08/24;00:12:28;1.015;-0.031;0.065;0.009773843921720982;-0.02687807008624077;-0.013439035043120384
01:00:0A:00:00:00:00;1724631149;26/08/24;00:12:29;1.013;-0.025;0.059;0.010995574295520782;-0.0036651913542300463;0.012217304669320583
01:00:0A:00:00:00:00;1724631150;26/08/24;00:12:30;1.01;-0.04;0.072;0.010995574295520782;-0.004886921960860491;0.010995574295520782
01:00:0A:00:00:00:00;1724631151;26/08/24;00:12:31;1.014;-0.031;0.065;0.009773843921720982;-0.028099799528717995;-0.018325956538319588
01:00:0A:00:00:00:00;1724631152;26/08/24;00:12:32;1.016;-0.025;0.058;0.010995574295520782;-0.004886921960860491;0.012217304669320583
01:00:0A:00:00:00:00;1724631153;26/08/24;00:12:33;1.016;-0.042;0.073;0.010995574295520782;-0.0073303827084600925;0.00855211354792118
01:00:0A:00:00:00:00;1724631154;26/08/24;00:12:34;1.016;-0.03;0.065;0.009773843921720982;-0.028099799528717995;-0.015882495790719986
01:00:0A:00:00:00:00;1724631155;26/08/24;00:12:35;1.016;-0.027;0.062;0.012217304669320583;-0.0012217304902151227;0.014660765416920185
01:00:0A:00:00:00:00;1724631156;26/08/24;00:12:36;1.016;-0.042;0.074;0.010995574295520782;-0.0036651913542300463;0.009773843921720982
01:00:0A:00:00:00:00;1724631157;26/08/24;00:12:37;1.016;-0.03;0.063;0.009773843921720982;-0.024434609338641167;-0.012217304669320583
01:00:0A:00:00:00:00;1724631158;26/08/24;00:12:38;1.017;-0.027;0.06;0.012217304669320583;0.0;0.019547687843441963
01:00:0A:00:00:00:00;1724631159;26/08/24;00:12:39;1.014;-0.041;0.073;0.010995574295520782;-0.009773843921720982;0.0073303827084600925
01:00:0A:00:00:00:00;1724631160;26/08/24;00:12:40;1.013;-0.029;0.061;0.009773843921720982;-0.02687807008624077;-0.013439035043120384
01:00:0A:00:00:00:00;1724631161;26/08/24;00:12:41;1.014;-0.027;0.062;0.012217304669320583;-0.0012217304902151227;0.01710422709584236
01:00:0A:00:00:00:00;1724631162;26/08/24;00:12:42;1.014;-0.042;0.074;0.010995574295520782;-0.010995574295520782;0.0012217304902151227
01:00:0A:00:00:00:00;1724631163;26/08/24;00:12:43;1.016;-0.029;0.063;0.009773843921720982;-0.025656338781118393;-0.013439035043120384
01:00:0A:00:00:00:00;1724631164;26/08/24;00:12:44;1.016;-0.03;0.062;0.012217304669320583;0.0024434609804302454;0.019547687843441963
01:00:0A:00:00:00:00;1724631165;26/08/24;00:12:45;1.016;-0.041;0.074;0.009773843921720982;-0.010995574295520782;0.006108652334660292
01:00:0A:00:00:00:00;1724631166;26/08/24;00:12:46;1.017;-0.027;0.06;0.009773843921720982;-0.02321287989616394;-0.00855211354792118
01:00:0A:00:00:00:00;1724631167;26/08/24;00:12:47;1.016;-0.029;0.063;0.012217304669320583;0.0024434609804302454;0.02076941914856434
01:00:0A:00:00:00:00;1724631168;26/08/24;00:12:48;1.015;-0.041;0.072;0.009773843921720982;-0.013439035043120384;0.0012217304902151227
01:00:0A:00:00:00:00;1724631169;26/08/24;00:12:49;1.015;-0.028;0.06;0.009773843921720982;-0.02321287989616394;-0.010995574295520782
01:00:0A:00:00:00:00;1724631170;26/08/24;00:12:50;1.015;-0.031;0.062;0.012217304669320583;0.0012217304902151227;0.02076941914856434
01:00:0A:00:00:00:00;1724631171;26/08/24;00:12:51;1.015;-0.04;0.073;0.009773843921720982;-0.01710422709584236;-0.0012217304902151227
01:00:0A:00:00:00:00;1724631172;26/08/24;00:12:52;1.016;-0.026;0.061;0.00855211354792118;-0.02321287989616394;-0.00855211354792118
01:00:0A:00:00:00:00;1724631173;26/08/24;00:12:53;1.016;-0.032;0.066;0.012217304669320583;0.0024434609804302454;0.018325956538319588
01:00:0A:00:00:00:00;1724631174;26/08/24;00:12:54;1.016;-0.041;0.074;0.009773843921720982;-0.015882495790719986;-0.0036651913542300463
01:00:0A:00:00:00:00;1724631175;26/08/24;00:12:55;1.017;-0.027;0.06;0.00855211354792118;-0.018325956538319588;-0.006108652334660292
01:00:0A:00:00:00:00;1724631176;26/08/24;00:12:56;1.016;-0.034;0.066;0.010995574295520782;0.0036651913542300463;0.021991148591041565
01:00:0A:00:00:00:00;1724631177;26/08/24;00:12:57;1.016;-0.04;0.073;0.0073303827084600925;-0.018325956538319588;-0.0024434609804302454
01:00:0A:00:00:00:00;1724631178;26/08/24;00:12:58;1.016;-0.025;0.06;0.00855211354792118;-0.018325956538319588;-0.0024434609804302454
01:00:0A:00:00:00:00;1724631179;26/08/24;00:12:59;1.014;-0.034;0.066;0.009773843921720982;0.0024434609804302454;0.02076941914856434
01:00:0A:00:00:00:00;1724631180;26/08/24;00:13:00;1.014;-0.039;0.071;0.0073303827084600925;-0.019547687843441963;-0.0073303827084600925
01:00:0A:00:00:00:00;1724631181;26/08/24;00:13:01;1.015;-0.027;0.059;0.0073303827084600925;-0.01710422709584236;-0.004886921960860491
01:00:0A:00:00:00:00;1724631182;26/08/24;00:13:02;1.015;-0.035;0.067;0.009773843921720982;0.0024434609804302454;0.018325956538319588
01:00:0A:00:00:00:00;1724631183;26/08/24;00:13:03;1.016;-0.039;0.07;0.006108652334660292;-0.02076941914856434;-0.006108652334660292
01:00:0A:00:00:00:00;1724631184;26/08/24;00:13:04;1.016;-0.026;0.06;0.0073303827084600925;-0.014660765416920185;0.0
01:00:0A:00:00:00:00;1724631185;26/08/24;00:13:05;1.016;-0.035;0.069;0.00855211354792118;0.0012217304902151227;0.018325956538319588
01:00:0A:00:00:00:00;1724631186;26/08/24;00:13:06;1.015;-0.037;0.07;0.006108652334660292;-0.02076941914856434;-0.00855211354792118
01:00:0A:00:00:00:00;1724631187;26/08/24;00:13:07;1.016;-0.026;0.058;0.0073303827084600925;-0.012217304669320583;0.0
01:00:0A:00:00:00:00;1724631188;26/08/24;00:13:08;1.016;-0.036;0.069;0.00855211354792118;0.0024434609804302454;0.019547687843441963
01:00:0A:00:00:00:00;1724631189;26/08/24;00:13:09;1.016;-0.038;0.069;0.004886921960860491;-0.02321287989616394;-0.00855211354792118
01:00:0A:00:00:00:00;1724631190;26/08/24;00:13:10;1.016;-0.027;0.059;0.006108652334660292;-0.013439035043120384;0.0024434609804302454
01:00:0A:00:00:00:00;1724631191;26/08/24;00:13:11;1.014;-0.037;0.068;0.0073303827084600925;-0.0012217304902151227;0.01710422709584236
01:00:0A:00:00:00:00;1724631192;26/08/24;00:13:12;1.016;-0.037;0.069;0.004886921960860491;-0.02321287989616394;-0.00855211354792118
01:00:0A:00:00:00:00;1724631193;26/08/24;00:13:13;1.016;-0.026;0.06;0.0073303827084600925;-0.00855211354792118;0.004886921960860491
01:00:0A:00:00:00:00;1724631194;26/08/24;00:13:14;1.016;-0.036;0.07;0.0073303827084600925;0.0;0.01710422709584236
01:00:0A:00:00:00:00;1724631195;26/08/24;00:13:15;1.016;-0.035;0.067;0.006108652334660292;-0.021991148591041565;-0.009773843921720982
01:00:0A:00:00:00:00;1724631196;26/08/24;00:13:16;1.016;-0.026;0.058;0.0073303827084600925;-0.00855211354792118;0.004886921960860491
01:00:0A:00:00:00:00;1724631197;26/08/24;00:13:17;1.016;-0.037;0.07;0.0073303827084600925;-0.0024434609804302454;0.014660765416920185
01:00:0A:00:00:00:00;1724631198;26/08/24;00:13:18;1.016;-0.034;0.067;0.006108652334660292;-0.02321287989616394;-0.010995574295520782
01:00:0A:00:00:00:00;1724631199;26/08/24;00:13:19;1.016;-0.026;0.06;0.0073303827084600925;-0.00855211354792118;0.006108652334660292
01:00:0A:00:00:00:00;1724631200;26/08/24;00:13:20;1.015;-0.04;0.072;0.00855211354792118;-0.0036651913542300463;0.013439035043120384
01:00:0A:00:00:00:00;1724631201;26/08/24;00:13:21;1.015;-0.034;0.067;0.006108652334660292;-0.021991148591041565;-0.009773843921720982
01:00:0A:00:00:00:00;1724631202;26/08/24;00:13:22;1.016;-0.025;0.06;0.00855211354792118;-0.004886921960860491;0.009773843921720982
01:00:0A:00:00:00:00;1724631203;26/08/24;00:13:23;1.014;-0.038;0.07;0.00855211354792118;-0.0036651913542300463;0.012217304669320583
01:00:0A:00:00:00:00;1724631204;26/08/24;00:13:24;1.014;-0.033;0.064;0.006108652334660292;-0.02321287989616394;-0.010995574295520782
01:00:0A:00:00:00:00;1724631205;26/08/24;00:13:25;1.015;-0.027;0.06;0.00855211354792118;-0.006108652334660292;0.009773843921720982
01:00:0A:00:00:00:00;1724631206;26/08/24;00:13:26;1.016;-0.039;0.07;0.00855211354792118;-0.006108652334660292;0.010995574295520782
01:00:0A:00:00:00:00;1724631207;26/08/24;00:13:27;1.015;-0.032;0.065;0.006108652334660292;-0.02321287989616394;-0.010995574295520782
01:00:0A:00:00:00:00;1724631208;26/08/24;00:13:28;1.017;-0.027;0.062;0.00855211354792118;-0.0036651913542300463;0.010995574295520782
01:00:0A:00:00:00:00;1724631209;26/08/24;00:13:29;1.016;-0.039;0.07;0.00855211354792118;-0.0073303827084600925;0.00855211354792118
01:00:0A:00:00:00:00;1724631210;26/08/24;00:13:30;1.016;-0.032;0.064;0.0073303827084600925;-0.02321287989616394;-0.009773843921720982
01:00:0A:00:00:00:00;1724631211;26/08/24;00:13:31;1.014;-0.028;0.061;0.00855211354792118;-0.0036651913542300463;0.013439035043120384
01:00:0A:00:00:00:00;1724631212;26/08/24;00:13:32;1.015;-0.04;0.07;0.0073303827084600925;-0.009773843921720982;0.00855211354792118
01:00:0A:00:00:00:00;1724631213;26/08/24;00:13:33;1.016;-0.031;0.064;0.0073303827084600925;-0.021991148591041565;-0.0073303827084600925
01:00:0A:00:00:00:00;1724631214;26/08/24;00:13:34;1.016;-0.028;0.063;0.00855211354792118;-0.0036651913542300463;0.013439035043120384
01:00:0A:00:00:00:00;1724631215;26/08/24;00:13:35;1.016;-0.04;0.071;0.00855211354792118;-0.006108652334660292;0.00855211354792118
01:00:0A:00:00:00:00;1724631216;26/08/24;00:13:36;1.015;-0.03;0.062;0.0073303827084600925;-0.02076941914856434;-0.00855211354792118
01:00:0A:00:00:00:00;1724631217;26/08/24;00:13:37;1.015;-0.03;0.062;0.00855211354792118;-0.0036651913542300463;0.013439035043120384
01:00:0A:00:00:00:00;1724631218;26/08/24;00:13:38;1.015;-0.04;0.071;0.0073303827084600925;-0.012217304669320583;0.004886921960860491
01:00:0A:00:00:00:00;1724631219;26/08/24;00:13:39;1.016;-0.029;0.062;0.0073303827084600925;-0.02321287989616394;-0.0073303827084600925
01:00:0A:00:00:00:00;1724631220;26/08/24;00:13:40;1.016;-0.03;0.065;0.00855211354792118;-0.0024434609804302454;0.015882495790719986
01:00:0A:00:00:00:00;1724631221;26/08/24;00:13:41;1.016;-0.039;0.072;0.00855211354792118;-0.009773843921720982;0.0036651913542300463
01:00:0A:00:00:00:00;1724631222;26/08/24;00:13:42;1.016;-0.028;0.063;0.0073303827084600925;-0.01710422709584236;-0.0073303827084600925
01:00:0A:00:00:00:00;1724631223;26/08/24;00:13:43;1.014;-0.03;0.064;0.009773843921720982;0.0;0.013439035043120384
01:00:0A:00:00:00:00;1724631224;26/08/24;00:13:44;1.015;-0.04;0.069;0.00855211354792118;-0.013439035043120384;0.0024434609804302454
01:00:0A:00:00:00:00;1724631225;26/08/24;00:13:45;1.016;-0.029;0.062;0.0073303827084600925;-0.019547687843441963;-0.004886921960860491
01:00:0A:00:00:00:00;1724631226;26/08/24;00:13:46;1.017;-0.031;0.064;0.009773843921720982;-0.0036651913542300463;0.014660765416920185
01:00:0A:00:00:00:00;1724631227;26/08/24;00:13:47;1.018;-0.038;0.073;0.0073303827084600925;-0.013439035043120384;0.0012217304902151227
01:00:0A:00:00:00:00;1724631228;26/08/24;00:13:48;1.016;-0.028;0.062;0.00855211354792118;-0.015882495790719986;-0.004886921960860491
01:00:0A:00:00:00:00;1724631229;26/08/24;00:13:49;1.014;-0.032;0.067;0.009773843921720982;0.0;0.015882495790719986
01:00:0A:00:00:00:00;1724631230;26/08/24;00:13:50;1.012;-0.038;0.069;0.0073303827084600925;-0.014660765416920185;-0.0012217304902151227
01:00:0A:00:00:00:00;1724631231;26/08/24;00:13:51;1.014;-0.027;0.061;0.00855211354792118;-0.018325956538319588;-0.0036651913542300463
01:00:0A:00:00:00:00;1724631232;26/08/24;00:13:52;1.017;-0.033;0.066;0.009773843921720982;-0.0036651913542300463;0.014660765416920185
01:00:0A:00:00:00:00;1724631233;26/08/24;00:13:53;1.018;-0.039;0.071;0.00855211354792118;-0.015882495790719986;-0.0012217304902151227
01:00:0A:00:00:00:00;1724631234;26/08/24;00:13:54;1.018;-0.027;0.063;0.00855211354792118;-0.015882495790719986;-0.0024434609804302454
01:00:0A:00:00:00:00;1724631235;26/08/24;00:13:55;1.016;-0.033;0.065;0.009773843921720982;0.0;0.014660765416920185
01:00:0A:00:00:00:00;1724631236;26/08/24;00:13:56;1.014;-0.037;0.068;0.00855211354792118;-0.015882495790719986;-0.0024434609804302454
01:00:0A:00:00:00:00;1724631237;26/08/24;00:13:57;1.015;-0.029;0.061;0.00855211354792118;-0.01710422709584236;-0.0012217304902151227
01:00:0A:00:00:00:00;1724631238;26/08/24;00:13:58;1.015;-0.035;0.066;0.009773843921720982;-0.004886921960860491;0.014660765416920185
01:00:0A:00:00:00:00;1724631239;26/08/24;00:13:59;1.016;-0.037;0.07;0.00855211354792118;-0.01710422709584236;-0.0012217304902151227
01:00:0A:00:00:00:00;1724631240;26/08/24;00:14:00;1.016;-0.027;0.062;0.00855211354792118;-0.013439035043120384;0.0012217304902151227
01:00:0A:00:00:00:00;1724631241;26/08/24;00:14:01;1.016;-0.035;0.067;0.009773843921720982;-0.0012217304902151227;0.014660765416920185
01:00:0A:00:00:00:00;1724631242;26/08/24;00:14:02;1.015;-0.036;0.067;0.00855211354792118;-0.015882495790719986;-0.0012217304902151227
01:00:0A:00:00:00:00;1724631243;26/08/24;00:14:03;1.016;-0.028;0.061;0.00855211354792118;-0.012217304669320583;0.0024434609804302454
01:00:0A:00:00:00:00;1724631244;26/08/24;00:14:04;1.015;-0.035;0.066;0.009773843921720982;-0.0036651913542300463;0.014660765416920185
01:00:0A:00:00:00:00;1724631245;26/08/24;00:14:05;1.016;-0.037;0.068;0.00855211354792118;-0.019547687843441963;-0.0036651913542300463
01:00:0A:00:00:00:00;1724631246;26/08/24;00:14:06;1.016;-0.028;0.062;0.009773843921720982;-0.013439035043120384;0.0024434609804302454
01:00:0A:00:00:00:00;1724631247;26/08/24;00:14:07;1.016;-0.035;0.068;0.009773843921720982;-0.0036651913542300463;0.012217304669320583
01:00:0A:00:00:00:00;1724631248;26/08/24;00:14:08;1.016;-0.036;0.068;0.00855211354792118;-0.01710422709584236;-0.004886921960860491
01:00:0A:00:00:00:00;1724631249;26/08/24;00:14:09;1.016;-0.028;0.061;0.009773843921720982;-0.009773843921720982;0.0024434609804302454
01:00:0A:00:00:00:00;1724631250;26/08/24;00:14:10;1.016;-0.036;0.068;0.009773843921720982;-0.0036651913542300463;0.010995574295520782
01:00:0A:00:00:00:00;1724631251;26/08/24;00:14:11;1.015;-0.036;0.068;0.00855211354792118;-0.018325956538319588;-0.0036651913542300463
01:00:0A:00:00:00:00;1724631252;26/08/24;00:14:12;1.016;-0.03;0.061;0.009773843921720982;-0.010995574295520782;0.004886921960860491
01:00:0A:00:00:00:00;1724631253;26/08/24;00:14:13;1.015;-0.037;0.068;0.010995574295520782;-0.004886921960860491;0.012217304669320583
01:00:0A:00:00:00:00;1724631254;26/08/24;00:14:14;1.016;-0.034;0.067;0.00855211354792118;-0.019547687843441963;-0.0036651913542300463
01:00:0A:00:00:00:00;1724631255;26/08/24;00:14:15;1.016;-0.029;0.062;0.009773843921720982;-0.00855211354792118;0.004886921960860491
01:00:0A:00:00:00:00;1724631256;26/08/24;00:14:16;1.016;-0.037;0.069;0.009773843921720982;-0.004886921960860491;0.00855211354792118
01:00:0A:00:00:00:00;1724631257;26/08/24;00:14:17;1.014;-0.035;0.066;0.00855211354792118;-0.018325956538319588;-0.004886921960860491
01:00:0A:00:00:00:00;1724631258;26/08/24;00:14:18;1.015;-0.03;0.062;0.009773843921720982;-0.00855211354792118;0.006108652334660292
01:00:0A:00:00:00:00;1724631259;26/08/24;00:14:19;1.015;-0.037;0.068;0.009773843921720982;-0.0073303827084600925;0.009773843921720982
01:00:0A:00:00:00:00;1724631260;26/08/24;00:14:20;1.016;-0.034;0.067;0.00855211354792118;-0.019547687843441963;-0.0036651913542300463
01:00:0A:00:00:00:00;1724631261;26/08/24;00:14:21;1.016;-0.03;0.063;0.009773843921720982;-0.00855211354792118;0.0073303827084600925
01:00:0A:00:00:00:00;1724631262;26/08/24;00:14:22;1.015;-0.036;0.069;0.009773843921720982;-0.006108652334660292;0.0073303827084600925
01:00:0A:00:00:00:00;1724631263;26/08/24;00:14:23;1.016;-0.034;0.066;0.00855211354792118;-0.01710422709584236;-0.004886921960860491
01:00:0A:00:00:00:00;1724631264;26/08/24;00:14:24;1.015;-0.031;0.061;0.009773843921720982;-0.0073303827084600925;0.006108652334660292
01:00:0A:00:00:00:00;1724631265;26/08/24;00:14:25;1.016;-0.037;0.068;0.009773843921720982;-0.00855211354792118;0.0073303827084600925
01:00:0A:00:00:00:00;1724631266;26/08/24;00:14:26;1.016;-0.033;0.065;0.00855211354792118;-0.018325956538319588;-0.0012217304902151227
01:00:0A:00:00:00:00;1724631267;26/08/24;00:14:27;1.016;-0.03;0.063;0.009773843921720982;-0.00855211354792118;0.00855211354792118
01:00:0A:00:00:00:00;1724631268;26/08/24;00:14:28;1.016;-0.038;0.069;0.010995574295520782;-0.0073303827084600925;0.004886921960860491
01:00:0A:00:00:00:00;1724631269;26/08/24;00:14:29;1.016;-0.033;0.064;0.00855211354792118;-0.015882495790719986;-0.004886921960860491
01:00:0A:00:00:00:00;1724631270;26/08/24;00:14:30;1.015;-0.031;0.064;0.010995574295520782;-0.004886921960860491;0.006108652334660292
01:00:0A:00:00:00:00;1724631271;26/08/24;00:14:31;1.016;-0.038;0.067;0.009773843921720982;-0.009773843921720982;0.006108652334660292
01:00:0A:00:00:00:00;1724631272;26/08/24;00:14:32;1.015;-0.034;0.064;0.00855211354792118;-0.018325956538319588;0.0
01:00:0A:00:00:00:00;1724631273;26/08/24;00:14:33;1.015;-0.031;0.064;0.009773843921720982;-0.0073303827084600925;0.009773843921720982
01:00:0A:00:00:00:00;1724631274;26/08/24;00:14:34;1.016;-0.035;0.068;0.00855211354792118;-0.010995574295520782;0.006108652334660292
01:00:0A:00:00:00:00;1724631275;26/08/24;00:14:35;1.016;-0.032;0.065;0.00855211354792118;-0.015882495790719986;-0.0024434609804302454
01:00:0A:00:00:00:00;1724631276;26/08/24;00:14:36;1.016;-0.031;0.064;0.009773843921720982;-0.004886921960860491;0.006108652334660292
01:00:0A:00:00:00:00;1724631277;26/08/24;00:14:37;1.015;-0.035;0.067;0.00855211354792118;-0.010995574295520782;0.0036651913542300463
01:00:0A:00:00:00:00;1724631278;26/08/24;00:14:38;1.016;-0.033;0.064;0.0073303827084600925;-0.01710422709584236;0.0
01:00:0A:00:00:00:00;1724631279;26/08/24;00:14:39;1.015;-0.033;0.064;0.00855211354792118;-0.0073303827084600925;0.009773843921720982
01:00:0A:00:00:00:00;1724631280;26/08/24;00:14:40;1.016;-0.035;0.069;0.00855211354792118;-0.012217304669320583;0.004886921960860491
01:00:0A:00:00:00:00;1724631281;26/08/24;00:14:41;1.015;-0.032;0.064;0.0073303827084600925;-0.015882495790719986;-0.0012217304902151227
01:00:0A:00:00:00:00;1724631282;26/08/24;00:14:42;1.015;-0.031;0.065;0.00855211354792118;-0.004886921960860491;0.006108652334660292
01:00:0A:00:00:00:00;1724631283;26/08/24;00:14:43;1.016;-0.037;0.068;0.0073303827084600925;-0.010995574295520782;0.0012217304902151227
01:00:0A:00:00:00:00;1724631284;26/08/24;00:14:44;1.016;-0.032;0.063;0.0073303827084600925;-0.015882495790719986;0.0012217304902151227
01:00:0A:00:00:00:00;1724631285;26/08/24;00:14:45;1.016;-0.033;0.065;0.00855211354792118;-0.006108652334660292;0.009773843921720982
01:00:0A:00:00:00:00;1724631286;26/08/24;00:14:46;1.015;-0.036;0.067;0.0073303827084600925;-0.013439035043120384;0.004886921960860491
01:00:0A:00:00:00:00;1724631287;26/08/24;00:14:47;1.015;-0.03;0.064;0.0073303827084600925;-0.014660765416920185;0.0012217304902151227
01:00:0A:00:00:00:00;1724631288;26/08/24;00:14:48;1.016;-0.031;0.066;0.00855211354792118;-0.006108652334660292;0.006108652334660292
01:00:0A:00:00:00:00;1724631289;26/08/24;00:14:49;1.016;-0.035;0.068;0.0073303827084600925;-0.012217304669320583;0.0012217304902151227
01:00:0A:00:00:00:00;1724631290;26/08/24;00:14:50;1.016;-0.032;0.063;0.0073303827084600925;-0.012217304669320583;0.0
01:00:0A:00:00:00:00;1724631291;26/08/24;00:14:51;1.016;-0.034;0.065;0.0073303827084600925;-0.0073303827084600925;0.00855211354792118
01:00:0A:00:00:00:00;1724631292;26/08/24;00:14:52;1.016;-0.035;0.067;0.006108652334660292;-0.013439035043120384;0.004886921960860491
01:00:0A:00:00:00:00;1724631293;26/08/24;00:14:53;1.014;-0.031;0.064;0.0073303827084600925;-0.013439035043120384;0.0024434609804302454
01:00:0A:00:00:00:00;1724631294;26/08/24;00:14:54;1.015;-0.032;0.065;0.0073303827084600925;-0.0073303827084600925;0.0073303827084600925
01:00:0A:00:00:00:00;1724631295;26/08/24;00:14:55;1.016;-0.035;0.068;0.0073303827084600925;-0.013439035043120384;0.0
01:00:0A:00:00:00:00;1724631296;26/08/24;00:14:56;1.016;-0.032;0.065;0.0073303827084600925;-0.012217304669320583;0.0
01:00:0A:00:00:00:00;1724631297;26/08/24;00:14:57;1.016;-0.033;0.065;0.00855211354792118;-0.006108652334660292;0.006108652334660292
01:00:0A:00:00:00:00;1724631298;26/08/24;00:14:58;1.016;-0.035;0.066;0.0073303827084600925;-0.013439035043120384;0.0024434609804302454
01:00:0A:00:00:00:00;1724631299;26/08/24;00:14:59;1.016;-0.032;0.063;0.0073303827084600925;-0.012217304669320583;0.0036651913542300463
01:00:0A:00:00:00:00;1724631300;26/08/24;00:15:00;1.015;-0.033;0.066;0.00855211354792118;-0.0073303827084600925;0.00855211354792118
01:00:0A:00:00:00:00;1724631301;26/08/24;00:15:01;1.015;-0.034;0.066;0.0073303827084600925;-0.013439035043120384;0.0012217304902151227
01:00:0A:00:00:00:00;1724631302;26/08/24;00:15:02;1.014;-0.031;0.064;0.0073303827084600925;-0.012217304669320583;0.0012217304902151227
01:00:0A:00:00:00:00;1724631303;26/08/24;00:15:03;1.015;-0.034;0.066;0.00855211354792118;-0.0073303827084600925;0.004886921960860491
01:00:0A:00:00:00:00;1724631304;26/08/24;00:15:04;1.016;-0.034;0.067;0.0073303827084600925;-0.014660765416920185;0.0012217304902151227
01:00:0A:00:00:00:00;1724631305;26/08/24;00:15:05;1.016;-0.031;0.065;0.0073303827084600925;-0.012217304669320583;0.0036651913542300463
01:00:0A:00:00:00:00;1724631306;26/08/24;00:15:06;1.016;-0.033;0.066;0.00855211354792118;-0.00855211354792118;0.0073303827084600925
01:00:0A:00:00:00:00;1724631307;26/08/24;00:15:07;1.014;-0.033;0.067;0.0073303827084600925;-0.013439035043120384;0.0024434609804302454
01:00:0A:00:00:00:00;1724631308;26/08/24;00:15:08;1.016;-0.03;0.064;0.00855211354792118;-0.010995574295520782;0.0024434609804302454
01:00:0A:00:00:00:00;1724631309;26/08/24;00:15:09;1.016;-0.033;0.066;0.00855211354792118;-0.00855211354792118;0.006108652334660292
01:00:0A:00:00:00:00;1724631310;26/08/24;00:15:10;1.016;-0.034;0.067;0.00855211354792118;-0.013439035043120384;0.0
01:00:0A:00:00:00:00;1724631311;26/08/24;00:15:11;1.016;-0.033;0.065;0.00855211354792118;-0.010995574295520782;0.0036651913542300463
01:00:0A:00:00:00:00;1724631312;26/08/24;00:15:12;1.016;-0.034;0.067;0.00855211354792118;-0.00855211354792118;0.006108652334660292
01:00:0A:00:00:00:00;1724631313;26/08/24;00:15:13;1.016;-0.034;0.067;0.0073303827084600925;-0.013439035043120384;0.0024434609804302454
01:00:0A:00:00:00:00;1724631314;26/08/24;00:15:14;1.014;-0.032;0.063;0.0073303827084600925;-0.012217304669320583;0.0036651913542300463
01:00:0A:00:00:00:00;1724631315;26/08/24;00:15:15;1.014;-0.034;0.067;0.00855211354792118;-0.009773843921720982;0.004886921960860491
01:00:0A:00:00:00:00;1724631316;26/08/24;00:15:16;1.016;-0.033;0.066;0.0073303827084600925;-0.013439035043120384;0.0
01:00:0A:00:00:00:00;1724631317;26/08/24;00:15:17;1.016;-0.032;0.064;0.00855211354792118;-0.010995574295520782;0.0024434609804302454
01:00:0A:00:00:00:00;1724631318;26/08/24;00:15:18;1.017;-0.035;0.067;0.00855211354792118;-0.00855211354792118;0.006108652334660292
01:00:0A:00:00:00:00;1724631319;26/08/24;00:15:19;1.016;-0.035;0.066;0.00855211354792118;-0.013439035043120384;0.0024434609804302454
