Source;Epoch timestamp (UTC);Date;Time (UTC);Accel X (G);Accel Y (G);Accel Z (G);Gyro X (rad/s);Gyro Y (rad/s);Gyro Z (rad/s)
01:00:0A:00:00:00:00;1723161602;09/08/24;00:00:02;1.014;-0.013;0.099;-0.00855211354792118;-0.010995574295520782;0.0024434609804302454
01:00:0A:00:00:00:00;1723161603;09/08/24;00:00:03;1.013;-0.011;0.1;-0.009773843921720982;-0.012217304669320583;0.0024434609804302454
01:00:0A:00:00:00:00;1723161604;09/08/24;00:00:04;1.013;-0.013;0.1;-0.009773843921720982;-0.010995574295520782;0.0024434609804302454
01:00:0A:00:00:00:00;1723161605;09/08/24;00:00:05;1.013;-0.012;0.1;-0.009773843921720982;-0.010995574295520782;0.0024434609804302454
01:00:0A:00:00:00:00;1723161606;09/08/24;00:00:06;1.013;-0.013;0.1;-0.009773843921720982;-0.010995574295520782;0.0036651913542300463
01:00:0A:00:00:00:00;1723161607;09/08/24;00:00:07;1.014;-0.011;0.101;-0.009773843921720982;-0.012217304669320583;0.0024434609804302454
01:00:0A:00:00:00:00;1723161608;09/08/24;00:00:08;1.014;-0.012;0.101;-0.009773843921720982;-0.010995574295520782;0.0036651913542300463
01:00:0A:00:00:00:00;1723161609;09/08/24;00:00:09;1.013;-0.013;0.1;-0.009773843921720982;-0.010995574295520782;0.0024434609804302454
01:00:0A:00:00:00:00;1723161610;09/08/24;00:00:10;1.013;-0.012;0.1;-0.009773843921720982;-0.010995574295520782;0.0036651913542300463
01:00:0A:00:00:00:00;1723161611;09/08/24;00:00:11;1.013;-0.012;0.1;-0.009773843921720982;-0.012217304669320583;0.0024434609804302454
01:00:0A:00:00:00:00;1723161612;09/08/24;00:00:12;1.013;-0.013;0.101;-0.009773843921720982;-0.010995574295520782;0.0036651913542300463
01:00:0A:00:00:00:00;1723161613;09/08/24;00:00:13;1.014;-0.012;0.1;-0.009773843921720982;-0.012217304669320583;0.0024434609804302454
01:00:0A:00:00:00:00;1723161614;09/08/24;00:00:14;1.014;-0.012;0.1;-0.009773843921720982;-0.010995574295520782;0.0036651913542300463
01:00:0A:00:00:00:00;1723161615;09/08/24;00:00:15;1.012;-0.012;0.1;-0.009773843921720982;-0.012217304669320583;0.0036651913542300463
01:00:0A:00:00:00:00;1723161616;09/08/24;00:00:16;1.013;-0.013;0.1;-0.009773843921720982;-0.010995574295520782;0.0024434609804302454
01:00:0A:00:00:00:00;1723161617;09/08/24;00:00:17;1.014;-0.012;0.1;-0.009773843921720982;-0.012217304669320583;0.0036651913542300463
01:00:0A:00:00:00:00;1723161618;09/08/24;00:00:18;1.014;-0.012;0.1;-0.010995574295520782;-0.012217304669320583;0.0036651913542300463
01:00:0A:00:00:00:00;1723161619;09/08/24;00:00:19;1.013;-0.011;0.101;-0.009773843921720982;-0.010995574295520782;0.0036651913542300463
01:00:0A:00:00:00:00;1723161620;09/08/24;00:00:20;1.014;-0.012;0.1;-0.009773843921720982;-0.012217304669320583;0.0036651913542300463
01:00:0A:00:00:00:00;1723161621;09/08/24;00:00:21;1.013;-0.013;0.101;-0.010995574295520782;-0.010995574295520782;0.0024434609804302454
01:00:0A:00:00:00:00;1723161622;09/08/24;00:00:22;1.014;-0.012;0.101;-0.010995574295520782;-0.012217304669320583;0.0036651913542300463
01:00:0A:00:00:00:00;1723161623;09/08/24;00:00:23;1.014;-0.013;0.1;-0.010995574295520782;-0.010995574295520782;0.0036651913542300463
01:00:0A:00:00:00:00;1723161624;09/08/24;00:00:24;1.014;-0.012;0.1;-0.010995574295520782;-0.012217304669320583;0.0024434609804302454
01:00:0A:00:00:00:00;1723161625;09/08/24;00:00:25;1.013;-0.011;0.1;-0.010995574295520782;-0.012217304669320583;0.0024434609804302454
01:00:0A:00:00:00:00;1723161626;09/08/24;00:00:26;1.014;-0.011;0.101;-0.010995574295520782;-0.010995574295520782;0.0024434609804302454
01:00:0A:00:00:00:00;1723161627;09/08/24;00:00:27;1.014;-0.012;0.1;-0.010995574295520782;-0.010995574295520782;0.0036651913542300463
01:00:0A:00:00:00:00;1723161628;09/08/24;00:00:28;1.013;-0.013;0.1;-0.010995574295520782;-0.010995574295520782;0.0024434609804302454
01:00:0A:00:00:00:00;1723161629;09/08/24;00:00:29;1.013;-0.012;0.101;-0.010995574295520782;-0.012217304669320583;0.0024434609804302454
01:00:0A:00:00:00:00;1723161630;09/08/24;00:00:30;1.014;-0.011;0.1;-0.010995574295520782;-0.012217304669320583;0.0024434609804302454
01:00:0A:00:00:00:00;1723161631;09/08/24;00:00:31;1.015;-0.012;0.1;-0.010995574295520782;-0.012217304669320583;0.0036651913542300463
01:00:0A:00:00:00:00;1723161632;09/08/24;00:00:32;1.013;-0.012;0.1;-0.010995574295520782;-0.012217304669320583;0.0024434609804302454
01:00:0A:00:00:00:00;1723161633;09/08/24;00:00:33;1.013;-0.012;0.1;-0.010995574295520782;-0.010995574295520782;0.0024434609804302454
01:00:0A:00:00:00:00;1723161634;09/08/24;00:00:34;1.014;-0.012;0.1;-0.010995574295520782;-0.010995574295520782;0.0024434609804302454
01:00:0A:00:00:00:00;1723161635;09/08/24;00:00:35;1.013;-0.012;0.101;-0.010995574295520782;-0.012217304669320583;0.0024434609804302454
01:00:0A:00:00:00:00;1723161636;09/08/24;00:00:36;1.014;-0.011;0.101;-0.010995574295520782;-0.010995574295520782;0.0036651913542300463
01:00:0A:00:00:00:00;1723161637;09/08/24;00:00:37;1.014;-0.01;0.1;-0.010995574295520782;-0.012217304669320583;0.0024434609804302454
01:00:0A:00:00:00:00;1723161638;09/08/24;00:00:38;1.013;-0.012;0.101;-0.010995574295520782;-0.010995574295520782;0.0024434609804302454
01:00:0A:00:00:00:00;1723161639;09/08/24;00:00:39;1.013;-0.01;0.099;-0.010995574295520782;-0.012217304669320583;0.0024434609804302454
01:00:0A:00:00:00:00;1723161640;09/08/24;00:00:40;1.013;-0.011;0.099;-0.010995574295520782;-0.010995574295520782;0.0036651913542300463
01:00:0A:00:00:00:00;1723161641;09/08/24;00:00:41;1.013;-0.012;0.1;-0.009773843921720982;-0.012217304669320583;0.0024434609804302454
01:00:0A:00:00:00:00;1723161642;09/08/24;00:00:42;1.014;-0.011;0.1;-0.009773843921720982;-0.010995574295520782;0.0036651913542300463
01:00:0A:00:00:00:00;1723161643;09/08/24;00:00:43;1.013;-0.012;0.1;-0.009773843921720982;-0.012217304669320583;0.0024434609804302454
01:00:0A:00:00:00:00;1723161644;09/08/24;00:00:44;1.013;-0.012;0.1;-0.010995574295520782;-0.012217304669320583;0.0036651913542300463
01:00:0A:00:00:00:00;1723161645;09/08/24;00:00:45;1.013;-0.012;0.101;-0.009773843921720982;-0.010995574295520782;0.0024434609804302454
01:00:0A:00:00:00:00;1723161646;09/08/24;00:00:46;1.014;-0.012;0.1;-0.010995574295520782;-0.012217304669320583;0.0036651913542300463
01:00:0A:00:00:00:00;1723161647;09/08/24;00:00:47;1.014;-0.011;0.1;-0.009773843921720982;-0.010995574295520782;0.0024434609804302454
01:00:0A:00:00:00:00;1723161648;09/08/24;00:00:48;1.013;-0.011;0.101;-0.009773843921720982;-0.010995574295520782;0.0036651913542300463
01:00:0A:00:00:00:00;1723161649;09/08/24;00:00:49;1.013;-0.012;0.099;-0.009773843921720982;-0.012217304669320583;0.0024434609804302454
01:00:0A:00:00:00:00;1723161650;09/08/24;00:00:50;1.013;-0.012;0.1;-0.009773843921720982;-0.010995574295520782;0.0036651913542300463
01:00:0A:00:00:00:00;1723161651;09/08/24;00:00:51;1.014;-0.012;0.101;-0.009773843921720982;-0.012217304669320583;0.0024434609804302454
01:00:0A:00:00:00:00;1723161652;09/08/24;00:00:52;1.014;-0.012;0.099;-0.009773843921720982;-0.010995574295520782;0.0024434609804302454
01:00:0A:00:00:00:00;1723161653;09/08/24;00:00:53;1.013;-0.011;0.1;-0.009773843921720982;-0.012217304669320583;0.0036651913542300463
01:00:0A:00:00:00:00;1723161654;09/08/24;00:00:54;1.014;-0.012;0.1;-0.009773843921720982;-0.010995574295520782;0.0024434609804302454
01:00:0A:00:00:00:00;1723161655;09/08/24;00:00:55;1.014;-0.012;0.1;-0.009773843921720982;-0.012217304669320583;0.0024434609804302454
01:00:0A:00:00:00:00;1723161656;09/08/24;00:00:56;1.014;-0.011;0.101;-0.009773843921720982;-0.010995574295520782;0.0024434609804302454
01:00:0A:00:00:00:00;1723161657;09/08/24;00:00:57;1.013;-0.013;0.1;-0.009773843921720982;-0.010995574295520782;0.0024434609804302454
01:00:0A:00:00:00:00;1723161658;09/08/24;00:00:58;1.014;-0.012;0.1;-0.009773843921720982;-0.012217304669320583;0.0036651913542300463
01:00:0A:00:00:00:00;1723161659;09/08/24;00:00:59;1.013;-0.012;0.1;-0.009773843921720982;-0.010995574295520782;0.0036651913542300463
01:00:0A:00:00:00:00;1723161660;09/08/24;00:01:00;1.013;-0.011;0.101;-0.009773843921720982;-0.012217304669320583;0.0036651913542300463
01:00:0A:00:00:00:00;1723161661;09/08/24;00:01:01;1.013;-0.012;0.1;-0.009773843921720982;-0.010995574295520782;0.0024434609804302454
01:00:0A:00:00:00:00;1723161662;09/08/24;00:01:02;1.012;-0.012;0.101;-0.009773843921720982;-0.010995574295520782;0.0024434609804302454
01:00:0A:00:00:00:00;1723161663;09/08/24;00:01:03;1.012;-0.011;0.099;-0.009773843921720982;-0.012217304669320583;0.0036651913542300463
01:00:0A:00:00:00:00;1723161664;09/08/24;00:01:04;1.014;-0.013;0.1;-0.009773843921720982;-0.010995574295520782;0.0036651913542300463
01:00:0A:00:00:00:00;1723161665;09/08/24;00:01:05;1.014;-0.011;0.101;-0.009773843921720982;-0.012217304669320583;0.0024434609804302454
01:00:0A:00:00:00:00;1723161666;09/08/24;00:01:06;1.013;-0.011;0.1;-0.009773843921720982;-0.010995574295520782;0.0024434609804302454
01:00:0A:00:00:00:00;1723161667;09/08/24;00:01:07;1.014;-0.012;0.101;-0.009773843921720982;-0.012217304669320583;0.0036651913542300463
01:00:0A:00:00:00:00;1723161668;09/08/24;00:01:08;1.014;-0.013;0.1;-0.009773843921720982;-0.010995574295520782;0.0036651913542300463
01:00:0A:00:00:00:00;1723161669;09/08/24;00:01:09;1.014;-0.012;0.101;-0.009773843921720982;-0.010995574295520782;0.0024434609804302454
01:00:0A:00:00:00:00;1723161670;09/08/24;00:01:10;1.014;-0.012;0.099;-0.009773843921720982;-0.012217304669320583;0.0024434609804302454
01:00:0A:00:00:00:00;1723161671;09/08/24;00:01:11;1.013;-0.012;0.101;-0.009773843921720982;-0.010995574295520782;0.0024434609804302454
01:00:0A:00:00:00:00;1723161672;09/08/24;00:01:12;1.014;-0.012;0.1;-0.009773843921720982;-0.012217304669320583;0.0024434609804302454
01:00:0A:00:00:00:00;1723161673;09/08/24;00:01:13;1.013;-0.012;0.1;-0.00855211354792118;-0.010995574295520782;0.0024434609804302454
01:00:0A:00:00:00:00;1723161674;09/08/24;00:01:14;1.013;-0.011;0.1;-0.00855211354792118;-0.012217304669320583;0.0036651913542300463
01:00:0A:00:00:00:00;1723161675;09/08/24;00:01:15;1.014;-0.012;0.1;-0.00855211354792118;-0.012217304669320583;0.0024434609804302454
01:00:0A:00:00:00:00;1723161676;09/08/24;00:01:16;1.014;-0.013;0.1;-0.00855211354792118;-0.010995574295520782;0.0036651913542300463
01:00:0A:00:00:00:00;1723161677;09/08/24;00:01:17;1.013;-0.011;0.1;-0.0073303827084600925;-0.012217304669320583;0.0024434609804302454
01:00:0A:00:00:00:00;1723161678;09/08/24;00:01:18;1.013;-0.013;0.101;-0.0073303827084600925;-0.010995574295520782;0.0036651913542300463
01:00:0A:00:00:00:00;1723161679;09/08/24;00:01:19;1.013;-0.011;0.1;-0.0073303827084600925;-0.012217304669320583;0.0024434609804302454
01:00:0A:00:00:00:00;1723161680;09/08/24;00:01:20;1.014;-0.012;0.1;-0.0073303827084600925;-0.010995574295520782;0.0036651913542300463
01:00:0A:00:00:00:00;1723161681;09/08/24;00:01:21;1.014;-0.012;0.099;-0.0073303827084600925;-0.010995574295520782;0.0036651913542300463
01:00:0A:00:00:00:00;1723161692;09/08/24;00:01:32;1.014;-0.012;0.099;-0.006108652334660292;-0.012217304669320583;0.0036651913542300463
01:00:0A:00:00:00:00;1723161693;09/08/24;00:01:33;1.013;-0.012;0.1;-0.006108652334660292;-0.010995574295520782;0.0036651913542300463
01:00:0A:00:00:00:00;1723161694;09/08/24;00:01:34;1.014;-0.012;0.1;-0.006108652334660292;-0.010995574295520782;0.0036651913542300463
01:00:0A:00:00:00:00;1723161695;09/08/24;00:01:35;1.014;-0.012;0.1;-0.006108652334660292;-0.010995574295520782;0.0036651913542300463
01:00:0A:00:00:00:00;1723161696;09/08/24;00:01:36;1.013;-0.012;0.1;-0.006108652334660292;-0.010995574295520782;0.0036651913542300463
01:00:0A:00:00:00:00;1723161697;09/08/24;00:01:37;1.014;-0.012;0.1;-0.006108652334660292;-0.010995574295520782;0.0036651913542300463
01:00:0A:00:00:00:00;1723161698;09/08/24;00:01:38;1.014;-0.012;0.1;-0.006108652334660292;-0.010995574295520782;0.0036651913542300463
01:00:0A:00:00:00:00;1723161699;09/08/24;00:01:39;1.013;-0.012;0.099;-0.006108652334660292;-0.010995574295520782;0.0036651913542300463
01:00:0A:00:00:00:00;1723161700;09/08/24;00:01:40;1.014;-0.011;0.101;-0.006108652334660292;-0.010995574295520782;0.0036651913542300463
01:00:0A:00:00:00:00;1723161701;09/08/24;00:01:41;1.014;-0.011;0.1;-0.006108652334660292;-0.010995574295520782;0.0036651913542300463
01:00:0A:00:00:00:00;1723161702;09/08/24;00:01:42;1.014;-0.012;0.1;-0.006108652334660292;-0.010995574295520782;0.0036651913542300463
01:00:0A:00:00:00:00;1723161703;09/08/24;00:01:43;1.014;-0.012;0.1;-0.0073303827084600925;-0.012217304669320583;0.0036651913542300463
01:00:0A:00:00:00:00;1723161704;09/08/24;00:01:44;1.014;-0.011;0.101;-0.006108652334660292;-0.010995574295520782;0.0024434609804302454
01:00:0A:00:00:00:00;1723161705;09/08/24;00:01:45;1.013;-0.011;0.101;-0.0073303827084600925;-0.012217304669320583;0.0036651913542300463
01:00:0A:00:00:00:00;1723161706;09/08/24;00:01:46;1.013;-0.011;0.1;-0.0073303827084600925;-0.010995574295520782;0.0024434609804302454
01:00:0A:00:00:00:00;1723161707;09/08/24;00:01:47;1.013;-0.011;0.1;-0.0073303827084600925;-0.010995574295520782;0.0036651913542300463
01:00:0A:00:00:00:00;1723161708;09/08/24;00:01:48;1.014;-0.012;0.099;-0.0073303827084600925;-0.012217304669320583;0.0024434609804302454
01:00:0A:00:00:00:00;1723161709;09/08/24;00:01:49;1.013;-0.012;0.101;-0.0073303827084600925;-0.010995574295520782;0.0036651913542300463
01:00:0A:00:00:00:00;1723161710;09/08/24;00:01:50;1.014;-0.013;0.101;-0.0073303827084600925;-0.010995574295520782;0.0024434609804302454
01:00:0A:00:00:00:00;1723161711;09/08/24;00:01:51;1.014;-0.012;0.101;-0.0073303827084600925;-0.010995574295520782;0.0036651913542300463
01:00:0A:00:00:00:00;1723161712;09/08/24;00:01:52;1.014;-0.012;0.1;-0.0073303827084600925;-0.010995574295520782;0.0036651913542300463
01:00:0A:00:00:00:00;1723161713;09/08/24;00:01:53;1.013;-0.012;0.1;-0.0073303827084600925;-0.010995574295520782;0.0036651913542300463
01:00:0A:00:00:00:00;1723161714;09/08/24;00:01:54;1.014;-0.012;0.1;-0.0073303827084600925;-0.010995574295520782;0.0036651913542300463
01:00:0A:00:00:00:00;1723161715;09/08/24;00:01:55;1.014;-0.012;0.1;-0.0073303827084600925;-0.010995574295520782;0.0024434609804302454
01:00:0A:00:00:00:00;1723161716;09/08/24;00:01:56;1.013;-0.012;0.1;-0.0073303827084600925;-0.010995574295520782;0.0036651913542300463
01:00:0A:00:00:00:00;1723161717;09/08/24;00:01:57;1.013;-0.011;0.099;-0.0073303827084600925;-0.010995574295520782;0.0036651913542300463
01:00:0A:00:00:00:00;1723161718;09/08/24;00:01:58;1.014;-0.011;0.1;-0.0073303827084600925;-0.012217304669320583;0.0036651913542300463
01:00:0A:00:00:00:00;1723161719;09/08/24;00:01:59;1.013;-0.011;0.1;-0.0073303827084600925;-0.010995574295520782;0.0024434609804302454
01:00:0A:00:00:00:00;1723161720;09/08/24;00:02:00;1.013;-0.012;0.101;-0.0073303827084600925;-0.010995574295520782;0.0036651913542300463
01:00:0A:00:00:00:00;1723161721;09/08/24;00:02:01;1.013;-0.012;0.099;-0.0073303827084600925;-0.010995574295520782;0.0036651913542300463
01:00:0A:00:00:00:00;1723161722;09/08/24;00:02:02;1.014;-0.012;0.1;-0.0073303827084600925;-0.010995574295520782;0.0036651913542300463
01:00:0A:00:00:00:00;1723161723;09/08/24;00:02:03;1.013;-0.011;0.1;-0.0073303827084600925;-0.010995574295520782;0.0036651913542300463
01:00:0A:00:00:00:00;1723161724;09/08/24;00:02:04;1.013;-0.012;0.1;-0.0073303827084600925;-0.010995574295520782;0.0036651913542300463
01:00:0A:00:00:00:00;1723161725;09/08/24;00:02:05;1.014;-0.011;0.1;-0.0073303827084600925;-0.010995574295520782;0.0036651913542300463
01:00:0A:00:00:00:00;1723161726;09/08/24;00:02:06;1.013;-0.011;0.1;-0.0073303827084600925;-0.010995574295520782;0.0036651913542300463
01:00:0A:00:00:00:00;1723161727;09/08/24;00:02:07;1.014;-0.012;0.101;-0.0073303827084600925;-0.010995574295520782;0.0036651913542300463
01:00:0A:00:00:00:00;1723161728;09/08/24;00:02:08;1.014;-0.012;0.1;-0.0073303827084600925;-0.010995574295520782;0.0036651913542300463
01:00:0A:00:00:00:00;1723161729;09/08/24;00:02:09;1.014;-0.012;0.101;-0.0073303827084600925;-0.010995574295520782;0.0036651913542300463
01:00:0A:00:00:00:00;1723161730;09/08/24;00:02:10;1.015;-0.012;0.101;-0.0073303827084600925;-0.010995574295520782;0.0036651913542300463
01:00:0A:00:00:00:00;1723161731;09/08/24;00:02:11;1.013;-0.012;0.1;-0.0073303827084600925;-0.012217304669320583;0.0036651913542300463
01:00:0A:00:00:00:00;1723161732;09/08/24;00:02:12;1.013;-0.012;0.1;-0.0073303827084600925;-0.010995574295520782;0.0036651913542300463
01:00:0A:00:00:00:00;1723161733;09/08/24;00:02:13;1.014;-0.012;0.101;-0.0073303827084600925;-0.010995574295520782;0.0036651913542300463
01:00:0A:00:00:00:00;1723161734;09/08/24;00:02:14;1.013;-0.012;0.101;-0.006108652334660292;-0.010995574295520782;0.0036651913542300463
01:00:0A:00:00:00:00;1723161735;09/08/24;00:02:15;1.014;-0.012;0.101;-0.006108652334660292;-0.012217304669320583;0.0036651913542300463
01:00:0A:00:00:00:00;1723161736;09/08/24;00:02:16;1.013;-0.012;0.099;-0.0073303827084600925;-0.010995574295520782;0.0024434609804302454
01:00:0A:00:00:00:00;1723161737;09/08/24;00:02:17;1.013;-0.011;0.101;-0.0073303827084600925;-0.012217304669320583;0.0036651913542300463
01:00:0A:00:00:00:00;1723161738;09/08/24;00:02:18;1.014;-0.012;0.1;-0.006108652334660292;-0.010995574295520782;0.0036651913542300463
01:00:0A:00:00:00:00;1723161739;09/08/24;00:02:19;1.012;-0.012;0.1;-0.0073303827084600925;-0.012217304669320583;0.0036651913542300463
01:00:0A:00:00:00:00;1723161740;09/08/24;00:02:20;1.014;-0.013;0.099;-0.0073303827084600925;-0.010995574295520782;0.0036651913542300463
01:00:0A:00:00:00:00;1723161741;09/08/24;00:02:21;1.013;-0.012;0.1;-0.006108652334660292;-0.010995574295520782;0.0036651913542300463
01:00:0A:00:00:00:00;1723161742;09/08/24;00:02:22;1.013;-0.013;0.1;-0.006108652334660292;-0.012217304669320583;0.0036651913542300463
01:00:0A:00:00:00:00;1723161743;09/08/24;00:02:23;1.014;-0.012;0.1;-0.006108652334660292;-0.012217304669320583;0.0036651913542300463
01:00:0A:00:00:00:00;1723161744;09/08/24;00:02:24;1.013;-0.013;0.1;-0.0073303827084600925;-0.010995574295520782;0.0024434609804302454
01:00:0A:00:00:00:00;1723161745;09/08/24;00:02:25;1.013;-0.012;0.101;-0.0073303827084600925;-0.012217304669320583;0.0036651913542300463
01:00:0A:00:00:00:00;1723161746;09/08/24;00:02:26;1.014;-0.011;0.1;-0.006108652334660292;-0.010995574295520782;0.0036651913542300463
01:00:0A:00:00:00:00;1723161747;09/08/24;00:02:27;1.013;-0.012;0.1;-0.006108652334660292;-0.012217304669320583;0.0036651913542300463
01:00:0A:00:00:00:00;1723161748;09/08/24;00:02:28;1.014;-0.011;0.1;-0.006108652334660292;-0.010995574295520782;0.0036651913542300463
01:00:0A:00:00:00:00;1723161749;09/08/24;00:02:29;1.013;-0.011;0.1;-0.006108652334660292;-0.012217304669320583;0.0036651913542300463
01:00:0A:00:00:00:00;1723161750;09/08/24;00:02:30;1.013;-0.012;0.101;-0.006108652334660292;-0.010995574295520782;0.0036651913542300463
01:00:0A:00:00:00:00;1723161751;09/08/24;00:02:31;1.014;-0.012;0.101;-0.006108652334660292;-0.010995574295520782;0.0036651913542300463
01:00:0A:00:00:00:00;1723161752;09/08/24;00:02:32;1.013;-0.011;0.1;-0.006108652334660292;-0.012217304669320583;0.0036651913542300463
01:00:0A:00:00:00:00;1723161753;09/08/24;00:02:33;1.013;-0.011;0.1;-0.006108652334660292;-0.010995574295520782;0.0036651913542300463
01:00:0A:00:00:00:00;1723161754;09/08/24;00:02:34;1.014;-0.011;0.1;-0.004886921960860491;-0.012217304669320583;0.0036651913542300463
01:00:0A:00:00:00:00;1723161755;09/08/24;00:02:35;1.014;-0.011;0.1;-0.004886921960860491;-0.010995574295520782;0.0036651913542300463
01:00:0A:00:00:00:00;1723161756;09/08/24;00:02:36;1.013;-0.011;0.101;-0.004886921960860491;-0.012217304669320583;0.0036651913542300463
01:00:0A:00:00:00:00;1723161757;09/08/24;00:02:37;1.013;-0.013;0.1;-0.004886921960860491;-0.010995574295520782;0.0036651913542300463
01:00:0A:00:00:00:00;1723161758;09/08/24;00:02:38;1.013;-0.012;0.099;-0.004886921960860491;-0.010995574295520782;0.0036651913542300463
01:00:0A:00:00:00:00;1723161759;09/08/24;00:02:39;1.013;-0.012;0.1;-0.004886921960860491;-0.012217304669320583;0.0036651913542300463
01:00:0A:00:00:00:00;1723161760;09/08/24;00:02:40;1.013;-0.011;0.1;-0.004886921960860491;-0.010995574295520782;0.0036651913542300463
01:00:0A:00:00:00:00;1723161761;09/08/24;00:02:41;1.013;-0.012;0.101;-0.004886921960860491;-0.010995574295520782;0.0036651913542300463
01:00:0A:00:00:00:00;1723161762;09/08/24;00:02:42;1.014;-0.012;0.1;-0.0036651913542300463;-0.010995574295520782;0.0036651913542300463
01:00:0A:00:00:00:00;1723161763;09/08/24;00:02:43;1.014;-0.012;0.099;-0.0036651913542300463;-0.010995574295520782;0.0036651913542300463
01:00:0A:00:00:00:00;1723161764;09/08/24;00:02:44;1.013;-0.012;0.1;-0.0036651913542300463;-0.010995574295520782;0.0036651913542300463
01:00:0A:00:00:00:00;1723161765;09/08/24;00:02:45;1.014;-0.012;0.101;-0.0036651913542300463;-0.010995574295520782;0.0036651913542300463
01:00:0A:00:00:00:00;1723161766;09/08/24;00:02:46;1.013;-0.012;0.1;-0.0036651913542300463;-0.010995574295520782;0.0036651913542300463
01:00:0A:00:00:00:00;1723161767;09/08/24;00:02:47;1.013;-0.012;0.101;-0.0036651913542300463;-0.012217304669320583;0.0036651913542300463
01:00:0A:00:00:00:00;1723161768;09/08/24;00:02:48;1.013;-0.012;0.1;-0.0036651913542300463;-0.010995574295520782;0.0036651913542300463
01:00:0A:00:00:00:00;1723161769;09/08/24;00:02:49;1.014;-0.012;0.1;-0.0036651913542300463;-0.012217304669320583;0.0036651913542300463
01:00:0A:00:00:00:00;1723161770;09/08/24;00:02:50;1.012;-0.011;0.101;-0.0036651913542300463;-0.010995574295520782;0.0036651913542300463
01:00:0A:00:00:00:00;1723161771;09/08/24;00:02:51;1.014;-0.012;0.1;-0.0036651913542300463;-0.010995574295520782;0.0036651913542300463
01:00:0A:00:00:00:00;1723161772;09/08/24;00:02:52;1.014;-0.013;0.101;-0.0036651913542300463;-0.010995574295520782;0.0036651913542300463
01:00:0A:00:00:00:00;1723161773;09/08/24;00:02:53;1.014;-0.012;0.101;-0.0036651913542300463;-0.012217304669320583;0.0036651913542300463
01:00:0A:00:00:00:00;1723161774;09/08/24;00:02:54;1.013;-0.012;0.1;-0.0036651913542300463;-0.010995574295520782;0.0036651913542300463
01:00:0A:00:00:00:00;1723161775;09/08/24;00:02:55;1.013;-0.011;0.101;-0.0036651913542300463;-0.012217304669320583;0.0036651913542300463
01:00:0A:00:00:00:00;1723161776;09/08/24;00:02:56;1.014;-0.011;0.101;-0.0036651913542300463;-0.010995574295520782;0.0036651913542300463
01:00:0A:00:00:00:00;1723161777;09/08/24;00:02:57;1.013;-0.012;0.1;-0.0036651913542300463;-0.012217304669320583;0.0036651913542300463
01:00:0A:00:00:00:00;1723161778;09/08/24;00:02:58;1.014;-0.012;0.1;-0.0036651913542300463;-0.010995574295520782;0.0036651913542300463
01:00:0A:00:00:00:00;1723161779;09/08/24;00:02:59;1.013;-0.012;0.1;-0.0036651913542300463;-0.010995574295520782;0.0036651913542300463
01:00:0A:00:00:00:00;1723161780;09/08/24;00:03:00;1.013;-0.012;0.101;-0.0036651913542300463;-0.010995574295520782;0.0036651913542300463
01:00:0A:00:00:00:00;1723161781;09/08/24;00:03:01;1.014;-0.011;0.1;-0.0036651913542300463;-0.010995574295520782;0.0036651913542300463
01:00:0A:00:00:00:00;1723161782;09/08/24;00:03:02;1.013;-0.012;0.1;-0.0036651913542300463;-0.010995574295520782;0.0036651913542300463
01:00:0A:00:00:00:00;1723161783;09/08/24;00:03:03;1.014;-0.012;0.1;-0.0036651913542300463;-0.010995574295520782;0.0036651913542300463
01:00:0A:00:00:00:00;1723161784;09/08/24;00:03:04;1.014;-0.013;0.1;-0.0036651913542300463;-0.010995574295520782;0.0036651913542300463
01:00:0A:00:00:00:00;1723161785;09/08/24;00:03:05;1.013;-0.012;0.1;-0.0036651913542300463;-0.010995574295520782;0.0036651913542300463
01:00:0A:00:00:00:00;1723161786;09/08/24;00:03:06;1.013;-0.012;0.1;-0.0036651913542300463;-0.010995574295520782;0.0036651913542300463
01:00:0A:00:00:00:00;1723161787;09/08/24;00:03:07;1.013;-0.012;0.1;-0.0036651913542300463;-0.010995574295520782;0.0036651913542300463
01:00:0A:00:00:00:00;1723161788;09/08/24;00:03:08;1.014;-0.011;0.099;-0.0036651913542300463;-0.010995574295520782;0.0036651913542300463
01:00:0A:00:00:00:00;1723161789;09/08/24;00:03:09;1.013;-0.012;0.101;-0.0036651913542300463;-0.010995574295520782;0.0036651913542300463
01:00:0A:00:00:00:00;1723161790;09/08/24;00:03:10;1.014;-0.011;0.1;-0.0036651913542300463;-0.010995574295520782;0.0036651913542300463
01:00:0A:00:00:00:00;1723161791;09/08/24;00:03:11;1.013;-0.011;0.101;-0.0036651913542300463;-0.010995574295520782;0.0036651913542300463
01:00:0A:00:00:00:00;1723161792;09/08/24;00:03:12;1.014;-0.011;0.1;-0.0036651913542300463;-0.010995574295520782;0.0036651913542300463
01:00:0A:00:00:00:00;1723161793;09/08/24;00:03:13;1.014;-0.013;0.1;-0.0036651913542300463;-0.010995574295520782;0.0036651913542300463
01:00:0A:00:00:00:00;1723161794;09/08/24;00:03:14;1.014;-0.012;0.099;-0.004886921960860491;-0.010995574295520782;0.0036651913542300463
01:00:0A:00:00:00:00;1723161795;09/08/24;00:03:15;1.013;-0.012;0.099;-0.0036651913542300463;-0.010995574295520782;0.0036651913542300463
01:00:0A:00:00:00:00;1723161796;09/08/24;00:03:16;1.013;-0.011;0.101;-0.004886921960860491;-0.010995574295520782;0.0036651913542300463
01:00:0A:00:00:00:00;1723161797;09/08/24;00:03:17;1.014;-0.012;0.101;-0.004886921960860491;-0.010995574295520782;0.0036651913542300463
01:00:0A:00:00:00:00;1723161798;09/08/24;00:03:18;1.013;-0.012;0.1;-0.0036651913542300463;-0.010995574295520782;0.0036651913542300463
01:00:0A:00:00:00:00;1723161799;09/08/24;00:03:19;1.014;-0.012;0.1;-0.004886921960860491;-0.012217304669320583;0.0036651913542300463
01:00:0A:00:00:00:00;1723161800;09/08/24;00:03:20;1.014;-0.012;0.1;-0.004886921960860491;-0.010995574295520782;0.0036651913542300463
01:00:0A:00:00:00:00;1723161801;09/08/24;00:03:21;1.013;-0.012;0.099;-0.0036651913542300463;-0.010995574295520782;0.0036651913542300463
01:00:0A:00:00:00:00;1723161802;09/08/24;00:03:22;1.013;-0.013;0.101;-0.004886921960860491;-0.010995574295520782;0.0036651913542300463
01:00:0A:00:00:00:00;1723161803;09/08/24;00:03:23;1.013;-0.012;0.101;-0.0036651913542300463;-0.012217304669320583;0.0036651913542300463
01:00:0A:00:00:00:00;1723161804;09/08/24;00:03:24;1.013;-0.012;0.099;-0.004886921960860491;-0.010995574295520782;0.0036651913542300463
01:00:0A:00:00:00:00;1723161805;09/08/24;00:03:25;1.014;-0.012;0.1;-0.004886921960860491;-0.010995574295520782;0.0036651913542300463
01:00:0A:00:00:00:00;1723161806;09/08/24;00:03:26;1.013;-0.011;0.1;-0.004886921960860491;-0.010995574295520782;0.0036651913542300463
01:00:0A:00:00:00:00;1723161807;09/08/24;00:03:27;1.014;-0.012;0.1;-0.0036651913542300463;-0.010995574295520782;0.0036651913542300463
01:00:0A:00:00:00:00;1723161808;09/08/24;00:03:28;1.014;-0.012;0.1;-0.004886921960860491;-0.010995574295520782;0.0036651913542300463
01:00:0A:00:00:00:00;1723161809;09/08/24;00:03:29;1.013;-0.012;0.1;-0.0036651913542300463;-0.012217304669320583;0.0024434609804302454
01:00:0A:00:00:00:00;1723161810;09/08/24;00:03:30;1.014;-0.011;0.1;-0.004886921960860491;-0.010995574295520782;0.0036651913542300463
01:00:0A:00:00:00:00;1723161811;09/08/24;00:03:31;1.013;-0.011;0.1;-0.004886921960860491;-0.010995574295520782;0.0036651913542300463
01:00:0A:00:00:00:00;1723161812;09/08/24;00:03:32;1.014;-0.012;0.1;-0.004886921960860491;-0.010995574295520782;0.0036651913542300463
01:00:0A:00:00:00:00;1723161813;09/08/24;00:03:33;1.014;-0.012;0.101;-0.0036651913542300463;-0.010995574295520782;0.0036651913542300463
01:00:0A:00:00:00:00;1723161814;09/08/24;00:03:34;1.013;-0.013;0.101;-0.004886921960860491;-0.010995574295520782;0.0036651913542300463
01:00:0A:00:00:00:00;1723161815;09/08/24;00:03:35;1.014;-0.011;0.1;-0.004886921960860491;-0.012217304669320583;0.0036651913542300463
01:00:0A:00:00:00:00;1723161816;09/08/24;00:03:36;1.014;-0.012;0.101;-0.004886921960860491;-0.010995574295520782;0.0036651913542300463
01:00:0A:00:00:00:00;1723161817;09/08/24;00:03:37;1.013;-0.012;0.101;-0.004886921960860491;-0.010995574295520782;0.0036651913542300463
01:00:0A:00:00:00:00;1723161818;09/08/24;00:03:38;1.013;-0.012;0.101;-0.004886921960860491;-0.010995574295520782;0.0036651913542300463
01:00:0A:00:00:00:00;1723161819;09/08/24;00:03:39;1.013;-0.012;0.1;-0.004886921960860491;-0.010995574295520782;0.0036651913542300463
01:00:0A:00:00:00:00;1723161820;09/08/24;00:03:40;1.013;-0.012;0.1;-0.004886921960860491;-0.010995574295520782;0.0036651913542300463
01:00:0A:00:00:00:00;1723161821;09/08/24;00:03:41;1.014;-0.013;0.1;-0.004886921960860491;-0.010995574295520782;0.0036651913542300463
01:00:0A:00:00:00:00;1723161822;09/08/24;00:03:42;1.013;-0.013;0.1;-0.0036651913542300463;-0.012217304669320583;0.0036651913542300463
01:00:0A:00:00:00:00;1723161823;09/08/24;00:03:43;1.013;-0.012;0.099;-0.004886921960860491;-0.010995574295520782;0.0036651913542300463
01:00:0A:00:00:00:00;1723161824;09/08/24;00:03:44;1.013;-0.012;0.1;-0.0036651913542300463;-0.010995574295520782;0.0036651913542300463
01:00:0A:00:00:00:00;1723161825;09/08/24;00:03:45;1.013;-0.012;0.1;-0.004886921960860491;-0.012217304669320583;0.0036651913542300463
01:00:0A:00:00:00:00;1723161826;09/08/24;00:03:46;1.013;-0.012;0.099;-0.004886921960860491;-0.010995574295520782;0.0036651913542300463
01:00:0A:00:00:00:00;1723161827;09/08/24;00:03:47;1.012;-0.013;0.101;-0.004886921960860491;-0.010995574295520782;0.0036651913542300463
01:00:0A:00:00:00:00;1723161828;09/08/24;00:03:48;1.014;-0.012;0.101;-0.0036651913542300463;-0.012217304669320583;0.0036651913542300463
01:00:0A:00:00:00:00;1723161829;09/08/24;00:03:49;1.015;-0.011;0.1;-0.0036651913542300463;-0.010995574295520782;0.0036651913542300463
01:00:0A:00:00:00:00;1723161830;09/08/24;00:03:50;1.014;-0.012;0.1;-0.004886921960860491;-0.010995574295520782;0.0036651913542300463
01:00:0A:00:00:00:00;1723161831;09/08/24;00:03:51;1.014;-0.013;0.1;-0.0036651913542300463;-0.010995574295520782;0.0036651913542300463
01:00:0A:00:00:00:00;1723161832;09/08/24;00:03:52;1.013;-0.012;0.099;-0.0036651913542300463;-0.012217304669320583;0.0036651913542300463
01:00:0A:00:00:00:00;1723161833;09/08/24;00:03:53;1.013;-0.011;0.1;-0.0036651913542300463;-0.010995574295520782;0.0036651913542300463
01:00:0A:00:00:00:00;1723161834;09/08/24;00:03:54;1.014;-0.012;0.101;-0.0036651913542300463;-0.010995574295520782;0.0036651913542300463
01:00:0A:00:00:00:00;1723161835;09/08/24;00:03:55;1.013;-0.011;0.1;-0.0036651913542300463;-0.010995574295520782;0.0036651913542300463
01:00:0A:00:00:00:00;1723161836;09/08/24;00:03:56;1.013;-0.011;0.1;-0.0036651913542300463;-0.010995574295520782;0.0036651913542300463
01:00:0A:00:00:00:00;1723161837;09/08/24;00:03:57;1.014;-0.012;0.1;-0.0036651913542300463;-0.010995574295520782;0.0036651913542300463
01:00:0A:00:00:00:00;1723161838;09/08/24;00:03:58;1.013;-0.012;0.102;-0.0036651913542300463;-0.010995574295520782;0.0036651913542300463
01:00:0A:00:00:00:00;1723161839;09/08/24;00:03:59;1.013;-0.012;0.1;-0.0036651913542300463;-0.010995574295520782;0.0036651913542300463
01:00:0A:00:00:00:00;1723161840;09/08/24;00:04:00;1.014;-0.012;0.1;-0.0036651913542300463;-0.010995574295520782;0.0036651913542300463
01:00:0A:00:00:00:00;1723161841;09/08/24;00:04:01;1.013;-0.012;0.1;-0.0036651913542300463;-0.012217304669320583;0.0036651913542300463
01:00:0A:00:00:00:00;1723161842;09/08/24;00:04:02;1.014;-0.012;0.1;-0.0036651913542300463;-0.010995574295520782;0.0036651913542300463
01:00:0A:00:00:00:00;1723161843;09/08/24;00:04:03;1.014;-0.011;0.1;-0.0036651913542300463;-0.012217304669320583;0.0036651913542300463
01:00:0A:00:00:00:00;1723161844;09/08/24;00:04:04;1.013;-0.012;0.1;-0.0036651913542300463;-0.012217304669320583;0.0036651913542300463
01:00:0A:00:00:00:00;1723161845;09/08/24;00:04:05;1.014;-0.011;0.101;-0.0036651913542300463;-0.010995574295520782;0.0036651913542300463
01:00:0A:00:00:00:00;1723161846;09/08/24;00:04:06;1.015;-0.012;0.1;-0.0036651913542300463;-0.010995574295520782;0.0036651913542300463
01:00:0A:00:00:00:00;1723161847;09/08/24;00:04:07;1.016;-0.011;0.099;-0.0036651913542300463;-0.013439035043120384;0.0
01:00:0A:00:00:00:00;1723161848;09/08/24;00:04:08;1.024;0.0;0.099;0.0012217304902151227;-0.05742133408784866;-0.05253440886735916
01:00:0A:00:00:00:00;1723161849;09/08/24;00:04:09;1.013;-0.035;0.142;-0.009773843921720982;0.030543262138962746;0.040317103266716
01:00:0A:00:00:00:00;1723161850;09/08/24;00:04:10;1.001;-0.018;0.132;-0.018325956538319588;0.021991148591041565;0.042760565876960754
01:00:0A:00:00:00:00;1723161851;09/08/24;00:04:11;0.962;-0.022;0.046;0.0024434609804302454;-0.036651913076639175;-0.0036651913542300463
01:00:0A:00:00:00:00;1723161852;09/08/24;00:04:12;0.992;-0.022;0.031;0.04886921867728233;-0.00855211354792118;-0.06719517707824707
01:00:0A:00:00:00:00;1723161853;09/08/24;00:04:13;1.073;0.022;0.099;0.004886921960860491;-0.16859880089759827;0.05864306166768074
01:00:0A:00:00:00:00;1723161854;09/08/24;00:04:14;1.085;-0.062;0.052;0.02932153083384037;0.030543262138962746;0.08307767659425735
01:00:0A:00:00:00:00;1723161855;09/08/24;00:04:15;1.032;-0.134;0.144;0.18325956165790558;0.04398229718208313;0.014660765416920185
01:00:0A:00:00:00:00;1723161856;09/08/24;00:04:16;0.953;0.235;-0.008;0.1111774742603302;-0.0659734457731247;-0.27000245451927185
01:00:0A:00:00:00:00;1723161857;09/08/24;00:04:17;0.919;-0.139;0.102;-0.10018189996480942;0.31642818450927734;0.8307767510414124
01:00:0A:00:00:00:00;1723161858;09/08/24;00:04:18;0.964;0.12;-0.097;0.2382374405860901;-0.4043927788734436;-0.4447098970413208
01:00:0A:00:00:00:00;1723161859;09/08/24;00:04:19;1.078;0.022;0.051;0.15515977144241333;0.7929030656814575;0.5791001915931702
01:00:0A:00:00:00:00;1723161860;09/08/24;00:04:20;0.936;-0.136;0.223;0.26633724570274353;0.1062905490398407;0.18081611394882202
01:00:0A:00:00:00:00;1723161861;09/08/24;00:04:21;0.757;0.053;0.669;-0.024434609338641167;-0.40683624148368835;-0.11972958594560623
01:00:0A:00:00:00:00;1723161862;09/08/24;00:04:22;0.965;0.206;0.215;-0.3530800938606262;-0.8454375267028809;-0.375071257352829
01:00:0A:00:00:00:00;1723161863;09/08/24;00:04:23;1.044;0.308;0.04;-0.8674286603927612;-0.8564330339431763;0.35674530267715454
01:00:0A:00:00:00:00;1723161864;09/08/24;00:04:24;0.926;0.264;0.119;-1.9657642841339111;-0.6096435189247131;-0.27000245451927185
01:00:0A:00:00:00:00;1723161865;09/08/24;00:04:25;0.868;0.321;0.017;-2.0928242206573486;-0.29077184200286865;-0.19914205372333527
01:00:0A:00:00:00:00;1723161866;09/08/24;00:04:26;0.924;-0.223;0.138;-1.958433985710144;-0.8405505418777466;-0.14294245839118958
01:00:0A:00:00:00:00;1723161867;09/08/24;00:04:27;1.008;0.127;0.077;-1.5027284622192383;0.485027015209198;0.3078760802745819
01:00:0A:00:00:00:00;1723161868;09/08/24;00:04:28;1.025;-0.253;-0.115;-0.9627236127853394;-0.12828169763088226;-0.41294488310813904
01:00:0A:00:00:00:00;1723161869;09/08/24;00:04:29;1.077;0.142;0.133;-1.0604619979858398;0.2565633952617645;-0.3335324227809906
01:00:0A:00:00:00:00;1723161870;09/08/24;00:04:30;0.985;-0.171;-0.156;-1.7336355447769165;0.34208452701568604;-0.5632177591323853
01:00:0A:00:00:00:00;1723161871;09/08/24;00:04:31;0.985;-0.31;0.218;-1.3487904071807861;0.26022857427597046;0.02932153083384037
01:00:0A:00:00:00:00;1723161872;09/08/24;00:04:32;0.886;-0.495;0.171;-0.19914205372333527;0.33719760179519653;-0.5778785347938538
01:00:0A:00:00:00:00;1723161873;09/08/24;00:04:33;1.007;0.102;0.302;-0.030543262138962746;-0.21868975460529327;-0.42271876335144043
01:00:0A:00:00:00:00;1723161874;09/08/24;00:04:34;1.0;0.076;0.194;-0.3042108714580536;-0.27000245451927185;-0.17348572611808777
01:00:0A:00:00:00:00;1723161875;09/08/24;00:04:35;0.916;-0.376;-0.415;0.19303341209888458;-0.08552113175392151;-0.039095375686883926
01:00:0A:00:00:00:00;1723161876;09/08/24;00:04:36;0.976;-0.048;-0.221;0.5900958180427551;0.8112289905548096;-0.161268413066864
01:00:0A:00:00:00:00;1723161877;09/08/24;00:04:37;0.934;0.064;0.389;0.25534167885780334;0.006108652334660292;0.13072516024112701
01:00:0A:00:00:00:00;1723161878;09/08/24;00:04:38;0.949;0.029;-0.129;-0.051312677562236786;-0.8881980776786804;-0.05009094998240471
01:00:0A:00:00:00:00;1723161879;09/08/24;00:04:39;0.925;0.28;0.067;-0.1869247555732727;0.39706242084503174;-0.02321287989616394
01:00:0A:00:00:00:00;1723161880;09/08/24;00:04:40;0.991;-0.133;0.059;-0.4801400899887085;-0.33108896017074585;0.5265658497810364
01:00:0A:00:00:00:00;1723161881;09/08/24;00:04:41;0.933;-0.392;0.044;0.11850785464048386;0.5998696088790894;-0.1368338167667389
01:00:0A:00:00:00:00;1723161882;09/08/24;00:04:42;0.973;0.242;0.311;-0.2223549485206604;-1.0372490882873535;-0.5290092825889587
01:00:0A:00:00:00:00;1723161883;09/08/24;00:04:43;1.069;-0.051;0.245;-1.2620476484298706;-0.24556782841682434;-0.12217304855585098
01:00:0A:00:00:00:00;1723161884;09/08/24;00:04:44;0.911;0.45;0.267;-1.2705997228622437;0.04153883829712868;-0.7586946487426758
01:00:0A:00:00:00:00;1723161885;09/08/24;00:04:45;0.966;0.065;0.408;-1.693318486213684;-0.607200026512146;-0.2626720666885376
01:00:0A:00:00:00:00;1723161886;09/08/24;00:04:46;0.93;0.255;0.121;-1.7654005289077759;-0.26633724570274353;0.06963863223791122
01:00:0A:00:00:00:00;1723161887;09/08/24;00:04:47;0.979;-0.026;0.148;-1.7825047969818115;-0.21624629199504852;-0.31154125928878784
01:00:0A:00:00:00:00;1723161888;09/08/24;00:04:48;0.965;-0.162;0.294;-1.615127682685852;-0.3543018400669098;0.3188716471195221
01:00:0A:00:00:00:00;1723161889;09/08/24;00:04:49;0.945;-0.391;-0.04;-0.7586946487426758;0.20525071024894714;0.18325956165790558
01:00:0A:00:00:00:00;1723161890;09/08/24;00:04:50;1.0;-0.072;-0.005;0.02687807008624077;-0.09773843735456467;-0.4960225820541382
01:00:0A:00:00:00:00;1723161891;09/08/24;00:04:51;0.969;-0.043;0.063;0.06108652427792549;0.1062905490398407;0.1869247555732727
01:00:0A:00:00:00:00;1723161892;09/08/24;00:04:52;0.985;-0.157;0.222;0.2919935882091522;-0.0036651913542300463;-0.26145032048225403
01:00:0A:00:00:00:00;1723161893;09/08/24;00:04:53;1.031;-0.084;0.201;0.3152064383029938;-0.607200026512146;-0.11362093687057495
01:00:0A:00:00:00:00;1723161894;09/08/24;00:04:54;1.007;-0.19;-0.243;0.3885102868080139;0.15515977144241333;0.0708603635430336
01:00:0A:00:00:00:00;1723161895;09/08/24;00:04:55;0.908;0.388;0.352;0.22602014243602753;0.2174680233001709;-0.3384193480014801
01:00:0A:00:00:00:00;1723161896;09/08/24;00:04:56;1.03;0.043;0.099;-0.36651912331581116;-0.47769662737846375;0.5180137157440186
01:00:0A:00:00:00:00;1723161897;09/08/24;00:04:57;0.966;-0.384;-0.112;0.13072516024112701;0.14782939851284027;0.0036651913542300463
01:00:0A:00:00:00:00;1723161898;09/08/24;00:04:58;0.968;0.326;0.22;0.20525071024894714;0.06352998316287994;-0.5632177591323853
01:00:0A:00:00:00:00;1723161899;09/08/24;00:04:59;0.913;-0.49;-0.289;0.05375614017248154;-0.3481931686401367;0.5167919993400574
01:00:0A:00:00:00:00;1723161900;09/08/24;00:05:00;0.962;-0.042;0.408;0.46670106053352356;0.588874101638794;-0.5290092825889587
01:00:0A:00:00:00:00;1723161901;09/08/24;00:05:01;0.837;0.049;0.607;-0.12828169763088226;-0.2981022298336029;0.3274237811565399
01:00:0A:00:00:00:00;1723161902;09/08/24;00:05:02;0.957;-0.069;-0.191;-0.13072516024112701;-0.4105014204978943;0.07941248267889023
01:00:0A:00:00:00:00;1723161903;09/08/24;00:05:03;1.005;-0.172;0.175;0.2272418737411499;0.6316346526145935;-0.2785545289516449
01:00:0A:00:00:00:00;1723161904;09/08/24;00:05:04;1.015;0.093;-0.105;0.16004669666290283;-0.9663888216018677;-0.2687807083129883
01:00:0A:00:00:00:00;1723161905;09/08/24;00:05:05;0.965;-0.168;-0.354;0.2883284091949463;0.42638394236564636;0.6426302194595337
01:00:0A:00:00:00:00;1723161906;09/08/24;00:05:06;0.716;-0.003;0.794;0.38728854060173035;0.24678954482078552;-0.7195992469787598
01:00:0A:00:00:00:00;1723161907;09/08/24;00:05:07;0.957;0.129;0.354;-0.4593706727027893;-1.1252137422561646;0.3384193480014801
01:00:0A:00:00:00:00;1723161908;09/08/24;00:05:08;0.909;-0.023;-0.28;-0.5216788649559021;0.2028072476387024;0.6780604124069214
01:00:0A:00:00:00:00;1723161909;09/08/24;00:05:09;0.825;-0.049;0.514;-0.39095374941825867;0.46792274713516235;0.010995574295520782
01:00:0A:00:00:00:00;1723161910;09/08/24;00:05:10;0.967;0.095;0.428;-2.1587977409362793;-0.4642575681209564;-1.1386528015136719
01:00:0A:00:00:00:00;1723161911;09/08/24;00:05:11;1.019;0.139;0.219;-2.4581215381622314;-0.9615018963813782;0.02687807008624077
01:00:0A:00:00:00:00;1723161912;09/08/24;00:05:12;0.954;0.157;-0.275;-2.289522886276245;-0.3836233615875244;0.059864792972803116
01:00:0A:00:00:00:00;1723161913;09/08/24;00:05:13;0.952;0.335;0.232;-1.9730947017669678;0.23335053026676178;-0.5693264007568359
01:00:0A:00:00:00:00;1723161914;09/08/24;00:05:14;1.011;0.132;0.153;-1.8472564220428467;-0.5045746564865112;0.0659734457731247
01:00:0A:00:00:00:00;1723161915;09/08/24;00:05:15;0.982;0.047;0.053;-1.7482962608337402;0.14782939851284027;0.11972958594560623
01:00:0A:00:00:00:00;1723161916;09/08/24;00:05:16;0.965;-0.295;-0.112;-1.3243558406829834;-0.48380526900291443;-0.09162978082895279
01:00:0A:00:00:00:00;1723161917;09/08/24;00:05:17;0.935;-0.011;0.41;-1.252273678779602;0.3689626157283783;-0.025656338781118393
01:00:0A:00:00:00:00;1723161918;09/08/24;00:05:18;1.014;-0.158;-0.044;-1.0421360731124878;-0.4337143301963806;-0.29077184200286865
01:00:0A:00:00:00:00;1723161919;09/08/24;00:05:19;0.893;-0.081;0.309;-0.9077457189559937;0.5167919993400574;0.37751471996307373
01:00:0A:00:00:00:00;1723161920;09/08/24;00:05:20;0.931;0.188;0.265;-0.7257078886032104;-0.1869247555732727;-0.4996877610683441
01:00:0A:00:00:00:00;1723161921;09/08/24;00:05:21;0.988;0.061;0.245;-0.9908234477043152;-0.779464066028595;0.22357667982578278
01:00:0A:00:00:00:00;1723161922;09/08/24;00:05:22;0.93;-0.035;-0.243;-0.7269296050071716;-0.05375614017248154;0.36163222789764404
01:00:0A:00:00:00:00;1723161923;09/08/24;00:05:23;0.866;0.003;0.439;-0.739146888256073;0.0757472887635231;-0.1111774742603302
01:00:0A:00:00:00:00;1723161924;09/08/24;00:05:24;1.003;0.119;0.085;-0.7305948734283447;-0.919963002204895;-0.5925393104553223
01:00:0A:00:00:00:00;1723161925;09/08/24;00:05:25;1.032;0.077;0.184;-0.9834930300712585;-0.3078760802745819;0.5326744914054871
01:00:0A:00:00:00:00;1723161926;09/08/24;00:05:26;1.007;0.353;0.171;-1.036027431488037;-0.08674286305904388;-0.5815436840057373
01:00:0A:00:00:00:00;1723161927;09/08/24;00:05:27;1.061;0.021;0.141;-1.4929546117782593;-1.2107348442077637;0.1673770695924759
01:00:0A:00:00:00:00;1723161928;09/08/24;00:05:28;0.967;0.272;0.117;-1.4037683010101318;0.33597588539123535;0.06719517707824707
01:00:0A:00:00:00:00;1723161929;09/08/24;00:05:29;0.91;-0.255;-0.23;-1.0189231634140015;-0.2565633952617645;0.10751228034496307
01:00:0A:00:00:00:00;1723161930;09/08/24;00:05:30;0.979;-0.192;-0.12;-0.1466076523065567;1.016479730606079;0.24068090319633484
01:00:0A:00:00:00:00;1723161931;09/08/24;00:05:31;0.858;-0.177;0.525;0.3481931686401367;-0.20525071024894714;-0.4349360466003418
01:00:0A:00:00:00:00;1723161932;09/08/24;00:05:32;0.889;0.105;-0.28;0.01710422709584236;-0.8063421249389648;0.019547687843441963
01:00:0A:00:00:00:00;1723161933;09/08/24;00:05:33;1.006;-0.062;-0.056;0.013439035043120384;0.778242290019989;0.27611109614372253
01:00:0A:00:00:00:00;1723161934;09/08/24;00:05:34;1.016;-0.17;0.159;0.44348815083503723;0.22846359014511108;-0.02321287989616394
01:00:0A:00:00:00:00;1723161935;09/08/24;00:05:35;1.067;-0.072;0.103;0.3188716471195221;-0.3640756905078888;0.5607742667198181
01:00:0A:00:00:00:00;1723161936;09/08/24;00:05:36;1.027;-0.353;0.017;0.6597344279289246;0.2932153046131134;0.07452555745840073
01:00:0A:00:00:00:00;1723161937;09/08/24;00:05:37;1.023;0.235;-0.036;0.5900958180427551;-0.44104471802711487;-0.3237585723400116
01:00:0A:00:00:00:00;1723161938;09/08/24;00:05:38;1.045;-0.172;-0.04;0.2871066629886627;1.1105530261993408;-0.3286454975605011
01:00:0A:00:00:00:00;1723161939;09/08/24;00:05:39;1.034;0.002;-0.372;0.940732479095459;-1.0616837739944458;0.7330382466316223
01:00:0A:00:00:00:00;1723161940;09/08/24;00:05:40;0.983;-0.035;0.147;-1.6835445165634155;0.18814648687839508;-0.31642818450927734
01:00:0A:00:00:00:00;1723161941;09/08/24;00:05:41;0.846;0.461;0.031;-1.5796974897384644;-0.22602014243602753;-0.6218608021736145
01:00:0A:00:00:00:00;1723161942;09/08/24;00:05:42;0.927;0.036;-0.287;-1.8020524978637695;-0.20647244155406952;0.43737950921058655
01:00:0A:00:00:00:00;1723161943;09/08/24;00:05:43;0.885;0.036;-0.318;0.5436700582504272;1.3512338399887085;0.20525071024894714
01:00:0A:00:00:00:00;1723161944;09/08/24;00:05:44;0.935;-0.074;-0.124;0.38606682419776917;-1.1313223838806152;0.6914994716644287
01:00:0A:00:00:00:00;1723161945;09/08/24;00:05:45;0.97;-0.138;-0.111;0.6133087277412415;0.2871066629886627;-0.08674286305904388
01:00:0A:00:00:00:00;1723161946;09/08/24;00:05:46;0.912;-0.268;0.225;-0.588874101638794;-0.40194931626319885;-1.0445796251296997
01:00:0A:00:00:00:00;1723161947;09/08/24;00:05:47;0.948;0.286;-0.003;-1.644449234008789;-1.2009611129760742;-0.3323107063770294
01:00:0A:00:00:00:00;1723161948;09/08/24;00:05:48;0.97;0.151;0.287;-1.9315558671951294;-0.0659734457731247;0.3090977966785431
01:00:0A:00:00:00:00;1723161949;09/08/24;00:05:49;0.943;-0.205;-0.255;-1.1447614431381226;0.14905111491680145;-0.5497786998748779
01:00:0A:00:00:00:00;1723161950;09/08/24;00:05:50;0.942;-0.193;0.223;-1.4917329549789429;0.07819075137376785;0.2638937830924988
01:00:0A:00:00:00:00;1723161951;09/08/24;00:05:51;1.003;0.085;-0.156;-0.9028588533401489;0.21991148591041565;-0.10018189996480942
01:00:0A:00:00:00:00;1723161952;09/08/24;00:05:52;0.936;-0.031;0.263;-0.8772024512290955;0.10751228034496307;-0.16982054710388184
01:00:0A:00:00:00:00;1723161953;09/08/24;00:05:53;0.813;0.104;0.447;-0.8319984674453735;2.194227933883667;-0.9663888216018677
01:00:0A:00:00:00:00;1723161954;09/08/24;00:05:54;0.916;0.105;-0.309;-0.9615018963813782;-1.2107348442077637;-0.2382374405860901
01:00:0A:00:00:00:00;1723161955;09/08/24;00:05:55;0.968;0.217;0.022;-1.0897835493087769;0.6047565937042236;1.3182471990585327
01:00:0A:00:00:00:00;1723161956;09/08/24;00:05:56;0.786;-0.465;-0.356;-0.12828169763088226;-0.3530800938606262;0.07696902006864548
01:00:0A:00:00:00:00;1723161957;09/08/24;00:05:57;0.848;0.348;0.633;-0.37751471996307373;0.5204571485519409;-1.6212363243103027
01:00:0A:00:00:00:00;1723161958;09/08/24;00:05:58;0.866;0.291;0.469;-1.0629055500030518;-0.9053022265434265;-0.6878342032432556
01:00:0A:00:00:00:00;1723161959;09/08/24;00:05:59;0.958;0.067;0.073;-2.3151791095733643;-0.8478808999061584;-0.16859880089759827
01:00:0A:00:00:00:00;1723161960;09/08/24;00:06:00;0.925;-0.081;-0.026;-2.333505153656006;0.3604104816913605;0.7147123217582703
01:00:0A:00:00:00:00;1723161961;09/08/24;00:06:01;0.954;-0.179;0.2;-1.7800612449645996;1.0067058801651;-0.34574973583221436
01:00:0A:00:00:00:00;1723161962;09/08/24;00:06:02;0.894;0.081;0.506;-1.5906931161880493;-0.5558874011039734;-1.2974778413772583
01:00:0A:00:00:00:00;1723161963;09/08/24;00:06:03;0.839;0.401;0.352;-2.2369885444641113;-0.6695082783699036;-0.6316346526145935
01:00:0A:00:00:00:00;1723161964;09/08/24;00:06:04;1.005;0.079;0.05;-2.2149972915649414;-0.6914994716644287;-0.4141666293144226
01:00:0A:00:00:00:00;1723161965;09/08/24;00:06:05;0.99;0.089;0.031;-2.1868975162506104;-0.2528982162475586;0.23090705275535583
01:00:0A:00:00:00:00;1723161966;09/08/24;00:06:06;0.924;-0.008;-0.16;-1.1655309200286865;1.323134183883667;-0.3738495111465454
01:00:0A:00:00:00:00;1723161967;09/08/24;00:06:07;0.954;-0.163;0.177;-1.2730430364608765;-0.533896267414093;0.17104226350784302
01:00:0A:00:00:00:00;1723161968;09/08/24;00:06:08;0.993;0.062;-0.084;-0.9077457189559937;0.485027015209198;-0.06719517707824707
01:00:0A:00:00:00:00;1723161969;09/08/24;00:06:09;1.001;-0.165;0.2;-0.921184778213501;-0.12950342893600464;0.030543262138962746
01:00:0A:00:00:00:00;1723161970;09/08/24;00:06:10;1.015;0.001;-0.195;-0.5705481767654419;0.14294245839118958;-0.20036379992961884
01:00:0A:00:00:00:00;1723161971;09/08/24;00:06:11;0.993;0.038;0.299;-0.5864306092262268;0.2590068578720093;0.051312677562236786
01:00:0A:00:00:00:00;1723161972;09/08/24;00:06:12;1.013;-0.157;-0.052;-0.5473352670669556;-0.3152064383029938;-0.06475171446800232
01:00:0A:00:00:00:00;1723161973;09/08/24;00:06:13;1.021;0.011;0.102;-0.3787364363670349;0.2687807083129883;-0.16371189057826996
01:00:0A:00:00:00:00;1723161974;09/08/24;00:06:14;1.007;-0.031;0.198;-0.5546656250953674;-0.09651670604944229;0.0073303827084600925
01:00:0A:00:00:00:00;1723161975;09/08/24;00:06:15;1.015;-0.007;0.011;-0.5461135506629944;-0.02076941914856434;-0.1319468915462494
01:00:0A:00:00:00:00;1723161976;09/08/24;00:06:16;1.001;-0.082;0.203;-0.5827654600143433;0.18814648687839508;0.0659734457731247
01:00:0A:00:00:00:00;1723161977;09/08/24;00:06:17;0.97;-0.317;0.047;-0.455705463886261;-0.5461135506629944;0.8955284357070923
01:00:0A:00:00:00:00;1723161978;09/08/24;00:06:18;1.018;0.073;-0.072;0.0708603635430336;0.05497787147760391;-0.7293730974197388
01:00:0A:00:00:00:00;1723161979;09/08/24;00:06:19;0.972;0.128;0.157;-0.15027284622192383;0.2993239760398865;0.25534167885780334
01:00:0A:00:00:00:00;1723161980;09/08/24;00:06:20;0.965;-0.136;0.037;-0.21013763546943665;-0.3127630054950714;0.16859880089759827
01:00:0A:00:00:00:00;1723161981;09/08/24;00:06:21;0.972;0.027;0.053;0.10384709388017654;0.26511549949645996;-0.5057964324951172
01:00:0A:00:00:00:00;1723161982;09/08/24;00:06:22;0.97;0.098;0.181;-0.294437050819397;-0.19058994948863983;0.4508185386657715
01:00:0A:00:00:00:00;1723161983;09/08/24;00:06:23;0.999;-0.129;-0.017;-0.13072516024112701;-0.11362093687057495;-0.14294245839118958
01:00:0A:00:00:00:00;1723161984;09/08/24;00:06:24;1.026;0.107;0.078;-0.03176499158143997;0.11239919811487198;-0.17348572611808777
01:00:0A:00:00:00:00;1723161985;09/08/24;00:06:25;1.029;0.018;0.184;-0.2223549485206604;-0.08674286305904388;0.13927726447582245
01:00:0A:00:00:00:00;1723161986;09/08/24;00:06:26;1.041;-0.147;0.016;-0.1111774742603302;-0.018325956538319588;-0.0024434609804302454
01:00:0A:00:00:00:00;1723161987;09/08/24;00:06:27;1.022;0.033;0.147;-0.014660765416920185;0.14049901068210602;-0.14294245839118958
01:00:0A:00:00:00:00;1723161988;09/08/24;00:06:28;1.0;-0.026;0.09;-0.17959438264369965;-0.09040805697441101;0.1368338167667389
01:00:0A:00:00:00:00;1723161989;09/08/24;00:06:29;0.993;-0.086;0.059;-0.1111774742603302;0.042760565876960754;0.0073303827084600925
01:00:0A:00:00:00:00;1723161990;09/08/24;00:06:30;1.013;-0.022;0.134;-0.11850785464048386;-0.05375614017248154;-0.018325956538319588
01:00:0A:00:00:00:00;1723161991;09/08/24;00:06:31;0.964;0.11;0.328;0.2223549485206604;0.3445279896259308;-0.16859880089759827
01:00:0A:00:00:00:00;1723161992;09/08/24;00:06:32;0.975;0.135;0.249;0.6548475623130798;0.0073303827084600925;-0.07330382615327835
01:00:0A:00:00:00:00;1723161993;09/08/24;00:06:33;1.009;0.076;0.027;0.7012733221054077;0.025656338781118393;0.44348815083503723
01:00:0A:00:00:00:00;1723161994;09/08/24;00:06:34;1.007;-0.045;0.194;0.7183775305747986;0.06963863223791122;-0.09040805697441101
01:00:0A:00:00:00:00;1723161995;09/08/24;00:06:35;1.018;0.081;0.025;0.5143485069274902;-0.036651913076639175;0.05742133408784866
01:00:0A:00:00:00:00;1723161996;09/08/24;00:06:36;1.017;-0.073;0.089;0.4789183437824249;0.1368338167667389;0.08429940044879913
01:00:0A:00:00:00:00;1723161997;09/08/24;00:06:37;0.999;0.023;0.14;0.3885102868080139;-0.09896016865968704;-0.030543262138962746
01:00:0A:00:00:00:00;1723161998;09/08/24;00:06:38;0.989;-0.031;0.049;0.2773328125476837;-0.009773843921720982;0.21380282938480377
01:00:0A:00:00:00:00;1723161999;09/08/24;00:06:39;0.993;-0.03;0.122;0.35063666105270386;0.0036651913542300463;-0.17470745742321014
01:00:0A:00:00:00:00;1723162000;09/08/24;00:06:40;1.023;0.055;0.087;0.17959438264369965;-0.08552113175392151;0.12339477241039276
01:00:0A:00:00:00:00;1723162001;09/08/24;00:06:41;1.029;-0.133;0.101;0.2076941877603531;0.06719517707824707;0.014660765416920185
01:00:0A:00:00:00:00;1723162002;09/08/24;00:06:42;1.021;0.033;0.129;0.17470745742321014;-0.004886921960860491;-0.09651670604944229
01:00:0A:00:00:00:00;1723162003;09/08/24;00:06:43;1.019;-0.038;0.045;0.06352998316287994;-0.05497787147760391;0.12461651116609573
01:00:0A:00:00:00:00;1723162004;09/08/24;00:06:44;1.001;-0.053;0.121;0.12217304855585098;0.05742133408784866;-0.03298672288656235
01:00:0A:00:00:00:00;1723162005;09/08/24;00:06:45;1.003;0.026;0.095;0.07452555745840073;-0.08918632566928864;-0.06108652427792549
01:00:0A:00:00:00:00;1723162006;09/08/24;00:06:46;1.01;-0.023;0.079;0.015882495790719986;0.025656338781118393;0.09896016865968704
01:00:0A:00:00:00:00;1723162007;09/08/24;00:06:47;1.007;-0.069;0.122;0.05375614017248154;-0.0073303827084600925;-0.05864306166768074
01:00:0A:00:00:00:00;1723162008;09/08/24;00:06:48;1.012;0.005;0.086;0.015882495790719986;-0.06352998316287994;-0.009773843921720982
01:00:0A:00:00:00:00;1723162009;09/08/24;00:06:49;1.021;-0.027;0.081;-0.02076941914856434;0.014660765416920185;0.08796459436416626
01:00:0A:00:00:00:00;1723162010;09/08/24;00:06:50;1.019;-0.034;0.132;0.00855211354792118;0.0354301817715168;-0.042760565876960754
01:00:0A:00:00:00:00;1723162011;09/08/24;00:06:51;1.015;0.003;0.084;-0.02932153083384037;-0.0659734457731247;-0.03176499158143997
01:00:0A:00:00:00:00;1723162012;09/08/24;00:06:52;1.002;-0.033;0.079;-0.04398229718208313;0.006108652334660292;0.0354301817715168
01:00:0A:00:00:00:00;1723162013;09/08/24;00:06:53;0.999;-0.039;0.132;-0.02321287989616394;0.0024434609804302454;-0.040317103266716
01:00:0A:00:00:00:00;1723162014;09/08/24;00:06:54;1.015;0.0;0.091;-0.05375614017248154;-0.0659734457731247;-0.02932153083384037
01:00:0A:00:00:00:00;1723162015;09/08/24;00:06:55;1.017;-0.038;0.081;-0.059864792972803116;0.036651913076639175;0.0354301817715168
01:00:0A:00:00:00:00;1723162016;09/08/24;00:06:56;1.017;-0.04;0.131;-0.04153883829712868;-0.004886921960860491;-0.06230825558304787
01:00:0A:00:00:00:00;1723162017;09/08/24;00:06:57;1.022;0.002;0.096;-0.07819075137376785;-0.07330382615327835;0.0012217304902151227
01:00:0A:00:00:00:00;1723162018;09/08/24;00:06:58;1.026;-0.05;0.088;-0.05619959905743599;0.02932153083384037;0.004886921960860491
01:00:0A:00:00:00:00;1723162019;09/08/24;00:06:59;1.019;-0.04;0.132;-0.05864306166768074;-0.0024434609804302454;-0.02687807008624077
01:00:0A:00:00:00:00;1723162020;09/08/24;00:07:00;1.009;-0.017;0.098;-0.09896016865968704;-0.02932153083384037;0.03420845419168472
01:00:0A:00:00:00:00;1723162021;09/08/24;00:07:01;1.006;-0.025;0.076;-0.10262535512447357;-0.004886921960860491;0.042760565876960754
01:00:0A:00:00:00:00;1723162022;09/08/24;00:07:02;1.001;-0.013;0.106;-0.080634206533432;0.036651913076639175;-0.04642575979232788
01:00:0A:00:00:00:00;1723162023;09/08/24;00:07:03;1.008;-0.021;0.101;-0.11728612333536148;-0.059864792972803116;-0.021991148591041565
01:00:0A:00:00:00:00;1723162024;09/08/24;00:07:04;1.014;-0.037;0.061;-0.1014036238193512;0.012217304669320583;-0.009773843921720982
01:00:0A:00:00:00:00;1723162025;09/08/24;00:07:05;1.021;-0.032;0.118;-0.09896016865968704;-0.025656338781118393;-0.012217304669320583
01:00:0A:00:00:00:00;1723162026;09/08/24;00:07:06;1.021;-0.021;0.082;-0.11484266817569733;-0.030543262138962746;-0.0012217304902151227
01:00:0A:00:00:00:00;1723162027;09/08/24;00:07:07;1.005;-0.029;0.085;-0.10995574295520782;0.015882495790719986;0.0354301817715168
01:00:0A:00:00:00:00;1723162028;09/08/24;00:07:08;0.997;-0.024;0.092;-0.09896016865968704;-0.03298672288656235;-0.02687807008624077
01:00:0A:00:00:00:00;1723162029;09/08/24;00:07:09;0.999;-0.016;0.094;-0.11239919811487198;-0.05497787147760391;0.0
01:00:0A:00:00:00:00;1723162030;09/08/24;00:07:10;1.018;-0.04;0.105;-0.10262535512447357;-0.0012217304902151227;-0.015882495790719986
01:00:0A:00:00:00:00;1723162031;09/08/24;00:07:11;1.031;-0.02;0.127;-0.1062905490398407;-0.015882495790719986;-0.006108652334660292
01:00:0A:00:00:00:00;1723162032;09/08/24;00:07:12;1.034;-0.023;0.103;-0.11239919811487198;-0.00855211354792118;-0.006108652334660292
01:00:0A:00:00:00:00;1723162033;09/08/24;00:07:13;1.021;-0.038;0.113;-0.09773843735456467;0.03298672288656235;0.00855211354792118
01:00:0A:00:00:00:00;1723162034;09/08/24;00:07:14;0.997;-0.028;0.107;-0.1014036238193512;-0.006108652334660292;-0.015882495790719986
01:00:0A:00:00:00:00;1723162035;09/08/24;00:07:15;0.993;-0.033;0.095;-0.09773843735456467;-0.00855211354792118;-0.02321287989616394
01:00:0A:00:00:00:00;1723162036;09/08/24;00:07:16;1.001;-0.023;0.102;-0.10262535512447357;-0.021991148591041565;-0.025656338781118393
01:00:0A:00:00:00:00;1723162037;09/08/24;00:07:17;1.011;-0.033;0.103;-0.11484266817569733;-0.02932153083384037;0.00855211354792118
01:00:0A:00:00:00:00;1723162038;09/08/24;00:07:18;1.02;-0.023;0.11;-0.10995574295520782;-0.030543262138962746;-0.012217304669320583
01:00:0A:00:00:00:00;1723162039;09/08/24;00:07:19;1.021;-0.033;0.096;-0.10751228034496307;-0.014660765416920185;0.010995574295520782
01:00:0A:00:00:00:00;1723162040;09/08/24;00:07:20;1.018;-0.034;0.11;-0.09529497474431992;0.0;-0.0036651913542300463
01:00:0A:00:00:00:00;1723162041;09/08/24;00:07:21;1.013;-0.019;0.092;-0.10384709388017654;-0.02076941914856434;0.013439035043120384
01:00:0A:00:00:00:00;1723162042;09/08/24;00:07:22;1.014;-0.036;0.076;-0.08429940044879913;-0.010995574295520782;0.00855211354792118
01:00:0A:00:00:00:00;1723162043;09/08/24;00:07:23;1.014;-0.023;0.103;-0.06963863223791122;-0.024434609338641167;-0.009773843921720982
01:00:0A:00:00:00:00;1723162044;09/08/24;00:07:24;1.016;-0.029;0.093;-0.0659734457731247;-0.021991148591041565;-0.00855211354792118
01:00:0A:00:00:00:00;1723162045;09/08/24;00:07:25;1.015;-0.013;0.105;-0.06841690838336945;0.010995574295520782;-0.00855211354792118
01:00:0A:00:00:00:00;1723162046;09/08/24;00:07:26;1.01;-0.025;0.106;-0.08674286305904388;-0.018325956538319588;0.01710422709584236
01:00:0A:00:00:00:00;1723162047;09/08/24;00:07:27;1.013;-0.02;0.105;-0.08307767659425735;-0.006108652334660292;-0.030543262138962746
01:00:0A:00:00:00:00;1723162048;09/08/24;00:07:28;1.017;-0.014;0.116;-0.10995574295520782;-0.0036651913542300463;0.012217304669320583
01:00:0A:00:00:00:00;1723162049;09/08/24;00:07:29;1.024;-0.023;0.103;-0.11484266817569733;0.0012217304902151227;-0.004886921960860491
01:00:0A:00:00:00:00;1723162050;09/08/24;00:07:30;1.01;-0.025;0.108;-0.11972958594560623;-0.006108652334660292;-0.010995574295520782
01:00:0A:00:00:00:00;1723162051;09/08/24;00:07:31;1.003;-0.023;0.101;-0.1270599663257599;-0.014660765416920185;-0.02076941914856434
01:00:0A:00:00:00:00;1723162052;09/08/24;00:07:32;1.009;-0.035;0.096;-0.13439035415649414;-0.03420845419168472;0.004886921960860491
01:00:0A:00:00:00:00;1723162053;09/08/24;00:07:33;1.016;-0.028;0.108;-0.12095131725072861;-0.021991148591041565;-0.02076941914856434
01:00:0A:00:00:00:00;1723162054;09/08/24;00:07:34;1.02;-0.02;0.109;-0.13439035415649414;-0.010995574295520782;0.009773843921720982
01:00:0A:00:00:00:00;1723162055;09/08/24;00:07:35;1.01;-0.044;0.095;-0.12461651116609573;0.010995574295520782;-0.0024434609804302454
01:00:0A:00:00:00:00;1723162056;09/08/24;00:07:36;1.002;-0.022;0.086;-0.1160643920302391;-0.0012217304902151227;-0.012217304669320583
01:00:0A:00:00:00:00;1723162057;09/08/24;00:07:37;1.01;-0.028;0.092;-0.11484266817569733;-0.01710422709584236;0.0
01:00:0A:00:00:00:00;1723162058;09/08/24;00:07:38;1.021;-0.044;0.108;-0.09896016865968704;-0.02932153083384037;-0.0073303827084600925
01:00:0A:00:00:00:00;1723162059;09/08/24;00:07:39;1.027;-0.027;0.094;-0.08307767659425735;0.01710422709584236;0.0024434609804302454
01:00:0A:00:00:00:00;1723162060;09/08/24;00:07:40;1.017;-0.034;0.103;-0.07208210229873657;0.018325956538319588;-0.0036651913542300463
01:00:0A:00:00:00:00;1723162061;09/08/24;00:07:41;1.009;-0.022;0.084;-0.07208210229873657;-0.024434609338641167;-0.012217304669320583
01:00:0A:00:00:00:00;1723162062;09/08/24;00:07:42;1.013;-0.031;0.097;-0.06719517707824707;-0.021991148591041565;-0.013439035043120384
01:00:0A:00:00:00:00;1723162063;09/08/24;00:07:43;1.018;-0.024;0.104;-0.07452555745840073;-0.021991148591041565;-0.0024434609804302454
01:00:0A:00:00:00:00;1723162064;09/08/24;00:07:44;1.013;-0.033;0.1;-0.080634206533432;-0.00855211354792118;0.009773843921720982
01:00:0A:00:00:00:00;1723162065;09/08/24;00:07:45;1.009;-0.002;0.075;-0.09285151958465576;-0.15027284622192383;-0.19303341209888458
01:00:0A:00:00:00:00;1723162066;09/08/24;00:07:46;0.997;0.155;-0.01;-0.23335053026676178;-0.059864792972803116;-0.06963863223791122
01:00:0A:00:00:00:00;1723162067;09/08/24;00:07:47;1.024;0.01;0.097;-0.40072759985923767;0.08796459436416626;0.34086278080940247
01:00:0A:00:00:00:00;1723162068;09/08/24;00:07:48;0.993;-0.219;0.097;-0.21013763546943665;-0.0036651913542300463;-0.042760565876960754
01:00:0A:00:00:00:00;1723162069;09/08/24;00:07:49;1.001;0.122;0.088;-0.1270599663257599;-0.012217304669320583;-0.3017674386501312
01:00:0A:00:00:00:00;1723162070;09/08/24;00:07:50;1.005;0.029;0.118;-0.38606682419776917;-0.07452555745840073;0.3335324227809906
01:00:0A:00:00:00:00;1723162071;09/08/24;00:07:51;1.0;-0.155;0.04;-0.17348572611808777;0.03787364438176155;-0.13805554807186127
01:00:0A:00:00:00:00;1723162072;09/08/24;00:07:52;1.016;0.066;0.149;-0.13439035415649414;0.05497787147760391;-0.16982054710388184
01:00:0A:00:00:00:00;1723162073;09/08/24;00:07:53;1.021;0.006;0.135;-0.31642818450927734;-0.1111774742603302;0.13561207056045532
01:00:0A:00:00:00:00;1723162074;09/08/24;00:07:54;1.014;-0.103;0.014;-0.20036379992961884;0.0;0.018325956538319588
01:00:0A:00:00:00:00;1723162075;09/08/24;00:07:55;0.999;0.012;0.147;-0.11239919811487198;0.1563815027475357;-0.15393804013729095
01:00:0A:00:00:00:00;1723162076;09/08/24;00:07:56;1.004;-0.014;0.125;-0.28466320037841797;-0.2076941877603531;0.10018189996480942
01:00:0A:00:00:00:00;1723162077;09/08/24;00:07:57;1.011;-0.086;0.009;-0.161268413066864;0.040317103266716;-0.03298672288656235
01:00:0A:00:00:00:00;1723162078;09/08/24;00:07:58;1.004;-0.005;0.167;-0.1160643920302391;0.08796459436416626;-0.07208210229873657
01:00:0A:00:00:00:00;1723162079;09/08/24;00:07:59;1.015;-0.027;0.119;-0.2223549485206604;-0.16859880089759827;0.059864792972803116
01:00:0A:00:00:00:00;1723162080;09/08/24;00:08:00;1.02;-0.062;0.021;-0.12461651116609573;0.030543262138962746;-0.02687807008624077
01:00:0A:00:00:00:00;1723162081;09/08/24;00:08:01;1.016;-0.005;0.163;-0.10506881773471832;0.07696902006864548;-0.03176499158143997
01:00:0A:00:00:00:00;1723162082;09/08/24;00:08:02;1.016;-0.045;0.108;-0.17592918872833252;-0.12950342893600464;0.03787364438176155
01:00:0A:00:00:00:00;1723162083;09/08/24;00:08:03;1.014;-0.028;0.042;-0.09651670604944229;0.036651913076639175;-0.028099799528717995
01:00:0A:00:00:00:00;1723162084;09/08/24;00:08:04;1.003;-0.019;0.137;-0.10506881773471832;0.06963863223791122;0.01710422709584236
01:00:0A:00:00:00:00;1723162085;09/08/24;00:08:05;1.008;-0.029;0.097;-0.1368338167667389;-0.12095131725072861;-0.02076941914856434
01:00:0A:00:00:00:00;1723162086;09/08/24;00:08:06;1.008;-0.023;0.055;-0.10018189996480942;0.030543262138962746;-0.010995574295520782
01:00:0A:00:00:00:00;1723162087;09/08/24;00:08:07;1.005;-0.027;0.132;-0.10995574295520782;0.03176499158143997;0.0036651913542300463
01:00:0A:00:00:00:00;1723162088;09/08/24;00:08:08;1.015;-0.032;0.105;-0.13805554807186127;-0.09407324343919754;-0.004886921960860491
01:00:0A:00:00:00:00;1723162089;09/08/24;00:08:09;1.02;-0.007;0.059;-0.10995574295520782;0.021991148591041565;-0.019547687843441963
01:00:0A:00:00:00:00;1723162090;09/08/24;00:08:10;1.016;-0.023;0.14;-0.13316862285137177;0.025656338781118393;0.028099799528717995
01:00:0A:00:00:00:00;1723162091;09/08/24;00:08:11;1.019;-0.033;0.096;-0.1417207270860672;-0.08185594528913498;-0.03420845419168472
01:00:0A:00:00:00:00;1723162092;09/08/24;00:08:12;1.017;-0.004;0.08;-0.13805554807186127;0.03176499158143997;0.006108652334660292
01:00:0A:00:00:00:00;1723162093;09/08/24;00:08:13;1.006;-0.033;0.126;-0.1563815027475357;0.028099799528717995;0.02932153083384037
01:00:0A:00:00:00:00;1723162094;09/08/24;00:08:14;1.009;-0.02;0.09;-0.15515977144241333;-0.06108652427792549;-0.04153883829712868
01:00:0A:00:00:00:00;1723162095;09/08/24;00:08:15;1.009;-0.007;0.088;-0.1563815027475357;0.02932153083384037;0.010995574295520782
01:00:0A:00:00:00:00;1723162096;09/08/24;00:08:16;1.008;-0.038;0.12;-0.1673770695924759;-0.025656338781118393;0.0036651913542300463
01:00:0A:00:00:00:00;1723162097;09/08/24;00:08:17;1.015;-0.025;0.087;-0.15027284622192383;-0.028099799528717995;-0.04153883829712868
01:00:0A:00:00:00:00;1723162098;09/08/24;00:08:18;1.016;-0.009;0.105;-0.1563815027475357;0.01710422709584236;0.014660765416920185
01:00:0A:00:00:00:00;1723162099;09/08/24;00:08:19;1.014;-0.047;0.109;-0.1576032191514969;-0.018325956538319588;0.009773843921720982
01:00:0A:00:00:00:00;1723162100;09/08/24;00:08:20;1.016;-0.026;0.094;-0.13561207056045532;-0.01710422709584236;-0.03420845419168472
01:00:0A:00:00:00:00;1723162101;09/08/24;00:08:21;1.017;-0.014;0.104;-0.14782939851284027;0.0073303827084600925;0.025656338781118393
01:00:0A:00:00:00:00;1723162102;09/08/24;00:08:22;1.011;-0.053;0.101;-0.13316862285137177;-0.0073303827084600925;0.0073303827084600925
01:00:0A:00:00:00:00;1723162103;09/08/24;00:08:23;1.009;-0.016;0.089;-0.10262535512447357;-0.0012217304902151227;-0.04398229718208313
01:00:0A:00:00:00:00;1723162104;09/08/24;00:08:24;1.007;-0.02;0.093;-0.12095131725072861;-0.0073303827084600925;0.03298672288656235
01:00:0A:00:00:00:00;1723162105;09/08/24;00:08:25;1.01;-0.044;0.093;-0.09285151958465576;-0.019547687843441963;-0.024434609338641167
01:00:0A:00:00:00:00;1723162106;09/08/24;00:08:26;1.018;-0.019;0.099;-0.08307767659425735;-0.013439035043120384;-0.028099799528717995
01:00:0A:00:00:00:00;1723162107;09/08/24;00:08:27;1.02;-0.03;0.096;-0.09407324343919754;-0.012217304669320583;0.021991148591041565
01:00:0A:00:00:00:00;1723162108;09/08/24;00:08:28;1.017;-0.037;0.099;-0.07819075137376785;-0.0024434609804302454;0.006108652334660292
01:00:0A:00:00:00:00;1723162109;09/08/24;00:08:29;1.01;-0.017;0.089;-0.06719517707824707;-0.00855211354792118;-0.019547687843441963
01:00:0A:00:00:00:00;1723162110;09/08/24;00:08:30;1.01;-0.017;0.094;-0.0757472887635231;-0.0024434609804302454;0.013439035043120384
01:00:0A:00:00:00:00;1723162111;09/08/24;00:08:31;1.014;-0.035;0.092;-0.0659734457731247;-0.02076941914856434;-0.018325956538319588
01:00:0A:00:00:00:00;1723162112;09/08/24;00:08:32;1.016;-0.014;0.087;-0.06475171446800232;-0.0036651913542300463;-0.010995574295520782
01:00:0A:00:00:00:00;1723162113;09/08/24;00:08:33;1.013;-0.024;0.099;-0.07941248267889023;-0.006108652334660292;0.02321287989616394
01:00:0A:00:00:00:00;1723162114;09/08/24;00:08:34;1.013;-0.021;0.087;-0.07330382615327835;-0.014660765416920185;-0.0073303827084600925
01:00:0A:00:00:00:00;1723162115;09/08/24;00:08:35;1.012;-0.017;0.101;-0.0757472887635231;-0.0024434609804302454;-0.015882495790719986
01:00:0A:00:00:00:00;1723162116;09/08/24;00:08:36;1.014;-0.018;0.101;-0.09773843735456467;-0.019547687843441963;0.0024434609804302454
01:00:0A:00:00:00:00;1723162117;09/08/24;00:08:37;1.016;-0.03;0.097;-0.10018189996480942;-0.004886921960860491;-0.0036651913542300463
01:00:0A:00:00:00:00;1723162118;09/08/24;00:08:38;1.012;-0.014;0.109;-0.10873401165008545;-0.006108652334660292;-0.0073303827084600925
01:00:0A:00:00:00:00;1723162119;09/08/24;00:08:39;1.013;-0.023;0.098;-0.12461651116609573;-0.01710422709584236;0.012217304669320583
01:00:0A:00:00:00:00;1723162120;09/08/24;00:08:40;1.013;-0.03;0.105;-0.11362093687057495;-0.0012217304902151227;-0.018325956538319588
01:00:0A:00:00:00:00;1723162121;09/08/24;00:08:41;1.017;-0.02;0.101;-0.12339477241039276;-0.009773843921720982;-0.006108652334660292
01:00:0A:00:00:00:00;1723162122;09/08/24;00:08:42;1.014;-0.028;0.103;-0.12950342893600464;-0.006108652334660292;0.00855211354792118
01:00:0A:00:00:00:00;1723162123;09/08/24;00:08:43;1.006;-0.025;0.097;-0.12461651116609573;-0.01710422709584236;-0.010995574295520782
01:00:0A:00:00:00:00;1723162124;09/08/24;00:08:44;1.006;-0.021;0.107;-0.1270599663257599;-0.0073303827084600925;-0.004886921960860491
01:00:0A:00:00:00:00;1723162125;09/08/24;00:08:45;1.012;-0.027;0.091;-0.13072516024112701;-0.028099799528717995;-0.0073303827084600925
01:00:0A:00:00:00:00;1723162126;09/08/24;00:08:46;0.996;-0.099;0.22;-0.11972958594560623;0.07941248267889023;0.05009094998240471
01:00:0A:00:00:00:00;1723162127;09/08/24;00:08:47;0.99;-0.127;0.213;-0.08796459436416626;-0.0659734457731247;0.006108652334660292
01:00:0A:00:00:00:00;1723162128;09/08/24;00:08:48;1.005;-0.121;0.173;0.024434609338641167;-0.042760565876960754;-0.080634206533432
01:00:0A:00:00:00:00;1723162129;09/08/24;00:08:49;1.012;-0.025;0.133;0.040317103266716;-0.07330382615327835;-0.07330382615327835
01:00:0A:00:00:00:00;1723162130;09/08/24;00:08:50;1.016;-0.003;0.072;0.0036651913542300463;-0.014660765416920185;0.042760565876960754
01:00:0A:00:00:00:00;1723162131;09/08/24;00:08:51;1.013;-0.05;0.119;0.015882495790719986;0.045204028487205505;0.0354301817715168
01:00:0A:00:00:00:00;1723162132;09/08/24;00:08:52;1.008;-0.019;0.116;0.014660765416920185;-0.05497787147760391;-0.05009094998240471
01:00:0A:00:00:00:00;1723162133;09/08/24;00:08:53;1.009;-0.002;0.079;-0.019547687843441963;-0.012217304669320583;0.04153883829712868
01:00:0A:00:00:00:00;1723162134;09/08/24;00:08:54;1.009;-0.04;0.11;-0.009773843921720982;0.030543262138962746;0.009773843921720982
01:00:0A:00:00:00:00;1723162135;09/08/24;00:08:55;1.011;-0.01;0.113;-0.021991148591041565;-0.06108652427792549;-0.04398229718208313
01:00:0A:00:00:00:00;1723162136;09/08/24;00:08:56;1.016;-0.01;0.076;-0.04764748737215996;-0.018325956538319588;0.03787364438176155
01:00:0A:00:00:00:00;1723162137;09/08/24;00:08:57;1.011;-0.042;0.119;-0.030543262138962746;0.02076941914856434;-0.0012217304902151227
01:00:0A:00:00:00:00;1723162138;09/08/24;00:08:58;1.016;-0.011;0.113;-0.045204028487205505;-0.051312677562236786;-0.028099799528717995
01:00:0A:00:00:00:00;1723162139;09/08/24;00:08:59;1.021;-0.015;0.081;-0.059864792972803116;0.0036651913542300463;0.025656338781118393
01:00:0A:00:00:00:00;1723162140;09/08/24;00:09:00;1.016;-0.038;0.117;-0.051312677562236786;0.024434609338641167;0.0036651913542300463
01:00:0A:00:00:00:00;1723162141;09/08/24;00:09:01;1.011;-0.017;0.105;-0.06108652427792549;-0.039095375686883926;-0.024434609338641167
01:00:0A:00:00:00:00;1723162142;09/08/24;00:09:02;1.009;-0.014;0.086;-0.07208210229873657;-0.0036651913542300463;0.018325956538319588
01:00:0A:00:00:00:00;1723162143;09/08/24;00:09:03;1.01;-0.036;0.111;-0.06352998316287994;0.013439035043120384;0.0024434609804302454
01:00:0A:00:00:00:00;1723162144;09/08/24;00:09:04;1.014;-0.019;0.105;-0.0659734457731247;-0.040317103266716;-0.03176499158143997
01:00:0A:00:00:00:00;1723162145;09/08/24;00:09:05;1.016;-0.012;0.09;-0.080634206533432;-0.004886921960860491;0.02321287989616394
01:00:0A:00:00:00:00;1723162146;09/08/24;00:09:06;1.011;-0.04;0.109;-0.06841690838336945;0.006108652334660292;-0.0036651913542300463
01:00:0A:00:00:00:00;1723162147;09/08/24;00:09:07;1.01;-0.018;0.104;-0.06963863223791122;-0.025656338781118393;-0.02687807008624077
01:00:0A:00:00:00:00;1723162148;09/08/24;00:09:08;1.013;-0.023;0.09;-0.08307767659425735;-0.015882495790719986;0.01710422709584236
01:00:0A:00:00:00:00;1723162149;09/08/24;00:09:09;1.015;-0.037;0.106;-0.06841690838336945;0.006108652334660292;-0.004886921960860491
01:00:0A:00:00:00:00;1723162150;09/08/24;00:09:10;1.016;-0.024;0.107;-0.06963863223791122;-0.02687807008624077;-0.021991148591041565
01:00:0A:00:00:00:00;1723162151;09/08/24;00:09:11;1.016;-0.022;0.089;-0.07696902006864548;-0.004886921960860491;0.01710422709584236
01:00:0A:00:00:00:00;1723162152;09/08/24;00:09:12;1.014;-0.04;0.11;-0.0659734457731247;0.004886921960860491;0.0024434609804302454
01:00:0A:00:00:00:00;1723162153;09/08/24;00:09:13;1.013;-0.017;0.097;-0.0659734457731247;-0.021991148591041565;-0.015882495790719986
01:00:0A:00:00:00:00;1723162154;09/08/24;00:09:14;1.01;-0.027;0.091;-0.0708603635430336;-0.0036651913542300463;0.018325956538319588
01:00:0A:00:00:00:00;1723162155;09/08/24;00:09:15;1.009;-0.032;0.099;-0.059864792972803116;-0.010995574295520782;-0.009773843921720982
01:00:0A:00:00:00:00;1723162156;09/08/24;00:09:16;1.012;-0.024;0.098;-0.05742133408784866;-0.02321287989616394;-0.013439035043120384
01:00:0A:00:00:00:00;1723162157;09/08/24;00:09:17;1.015;-0.025;0.099;-0.06352998316287994;-0.010995574295520782;0.009773843921720982
01:00:0A:00:00:00:00;1723162158;09/08/24;00:09:18;1.016;-0.037;0.098;-0.05375614017248154;-0.0024434609804302454;0.0
01:00:0A:00:00:00:00;1723162159;09/08/24;00:09:19;1.015;-0.02;0.102;-0.05253440886735916;-0.01710422709584236;-0.012217304669320583
01:00:0A:00:00:00:00;1723162160;09/08/24;00:09:20;1.014;-0.027;0.092;-0.059864792972803116;-0.014660765416920185;0.015882495790719986
01:00:0A:00:00:00:00;1723162161;09/08/24;00:09:21;1.015;-0.032;0.101;-0.04642575979232788;0.0024434609804302454;-0.009773843921720982
01:00:0A:00:00:00:00;1723162162;09/08/24;00:09:22;1.015;-0.022;0.1;-0.05375614017248154;-0.025656338781118393;-0.004886921960860491
01:00:0A:00:00:00:00;1723162163;09/08/24;00:09:23;1.015;-0.026;0.092;-0.05497787147760391;-0.004886921960860491;0.009773843921720982
01:00:0A:00:00:00:00;1723162164;09/08/24;00:09:24;1.012;-0.031;0.102;-0.05009094998240471;-0.00855211354792118;-0.0024434609804302454
01:00:0A:00:00:00:00;1723162165;09/08/24;00:09:25;1.012;-0.018;0.094;-0.051312677562236786;-0.01710422709584236;-0.0073303827084600925
01:00:0A:00:00:00:00;1723162166;09/08/24;00:09:26;1.013;-0.025;0.097;-0.05742133408784866;-0.009773843921720982;0.010995574295520782
01:00:0A:00:00:00:00;1723162167;09/08/24;00:09:27;1.013;-0.029;0.099;-0.05009094998240471;-0.013439035043120384;-0.012217304669320583
01:00:0A:00:00:00:00;1723162168;09/08/24;00:09:28;1.015;-0.019;0.1;-0.05619959905743599;-0.014660765416920185;0.0
01:00:0A:00:00:00:00;1723162169;09/08/24;00:09:29;1.016;-0.027;0.097;-0.05864306166768074;-0.009773843921720982;0.0024434609804302454
01:00:0A:00:00:00:00;1723162170;09/08/24;00:09:30;1.016;-0.024;0.101;-0.05864306166768074;-0.0036651913542300463;-0.0036651913542300463
01:00:0A:00:00:00:00;1723162171;09/08/24;00:09:31;1.014;-0.025;0.101;-0.06475171446800232;-0.01710422709584236;0.0
01:00:0A:00:00:00:00;1723162172;09/08/24;00:09:32;1.012;-0.022;0.098;-0.06841690838336945;-0.009773843921720982;0.0012217304902151227
01:00:0A:00:00:00:00;1723162173;09/08/24;00:09:33;1.013;-0.026;0.102;-0.06841690838336945;-0.006108652334660292;-0.0036651913542300463
01:00:0A:00:00:00:00;1723162174;09/08/24;00:09:34;1.014;-0.02;0.1;-0.0708603635430336;-0.014660765416920185;-0.010995574295520782
01:00:0A:00:00:00:00;1723162175;09/08/24;00:09:35;1.015;-0.025;0.096;-0.07819075137376785;-0.012217304669320583;0.009773843921720982
01:00:0A:00:00:00:00;1723162176;09/08/24;00:09:36;1.013;-0.027;0.104;-0.07208210229873657;-0.00855211354792118;-0.00855211354792118
01:00:0A:00:00:00:00;1723162177;09/08/24;00:09:37;1.014;-0.018;0.101;-0.07819075137376785;-0.01710422709584236;-0.0036651913542300463
01:00:0A:00:00:00:00;1723162178;09/08/24;00:09:38;1.014;-0.028;0.1;-0.07941248267889023;-0.0012217304902151227;0.0036651913542300463
01:00:0A:00:00:00:00;1723162179;09/08/24;00:09:39;1.014;-0.022;0.101;-0.07696902006864548;-0.010995574295520782;-0.009773843921720982
01:00:0A:00:00:00:00;1723162180;09/08/24;00:09:40;1.015;-0.025;0.1;-0.08185594528913498;-0.010995574295520782;0.0012217304902151227
01:00:0A:00:00:00:00;1723162181;09/08/24;00:09:41;1.013;-0.026;0.101;-0.080634206533432;-0.009773843921720982;-0.0024434609804302454
01:00:0A:00:00:00:00;1723162182;09/08/24;00:09:42;1.011;-0.023;0.102;-0.080634206533432;-0.0036651913542300463;0.0012217304902151227
01:00:0A:00:00:00:00;1723162183;09/08/24;00:09:43;1.013;-0.026;0.1;-0.080634206533432;-0.014660765416920185;-0.004886921960860491
01:00:0A:00:00:00:00;1723162184;09/08/24;00:09:44;1.015;-0.02;0.099;-0.08185594528913498;-0.00855211354792118;0.0
01:00:0A:00:00:00:00;1723162185;09/08/24;00:09:45;1.013;-0.029;0.101;-0.08185594528913498;-0.012217304669320583;-0.0036651913542300463
01:00:0A:00:00:00:00;1723162186;09/08/24;00:09:46;1.012;-0.022;0.101;-0.080634206533432;-0.009773843921720982;-0.006108652334660292
01:00:0A:00:00:00:00;1723162187;09/08/24;00:09:47;1.013;-0.029;0.101;-0.08429940044879913;-0.012217304669320583;0.0036651913542300463
01:00:0A:00:00:00:00;1723162188;09/08/24;00:09:48;1.015;-0.025;0.099;-0.07941248267889023;-0.006108652334660292;-0.0036651913542300463
01:00:0A:00:00:00:00;1723162189;09/08/24;00:09:49;1.015;-0.021;0.103;-0.08307767659425735;-0.015882495790719986;-0.0024434609804302454
01:00:0A:00:00:00:00;1723162190;09/08/24;00:09:50;1.011;-0.023;0.095;-0.08185594528913498;-0.009773843921720982;-0.0012217304902151227
01:00:0A:00:00:00:00;1723162191;09/08/24;00:09:51;1.01;-0.027;0.105;-0.07941248267889023;-0.0073303827084600925;-0.004886921960860491
01:00:0A:00:00:00:00;1723162192;09/08/24;00:09:52;1.012;-0.023;0.097;-0.08185594528913498;-0.018325956538319588;-0.0036651913542300463
01:00:0A:00:00:00:00;1723162193;09/08/24;00:09:53;1.015;-0.027;0.099;-0.080634206533432;-0.009773843921720982;0.0012217304902151227
01:00:0A:00:00:00:00;1723162194;09/08/24;00:09:54;1.014;-0.025;0.101;-0.07696902006864548;-0.010995574295520782;-0.0036651913542300463
01:00:0A:00:00:00:00;1723162195;09/08/24;00:09:55;1.013;-0.026;0.098;-0.07696902006864548;-0.009773843921720982;0.0
01:00:0A:00:00:00:00;1723162196;09/08/24;00:09:56;1.012;-0.024;0.1;-0.0757472887635231;-0.014660765416920185;-0.0024434609804302454
01:00:0A:00:00:00:00;1723162197;09/08/24;00:09:57;1.014;-0.026;0.1;-0.07452555745840073;-0.010995574295520782;0.0
01:00:0A:00:00:00:00;1723162198;09/08/24;00:09:58;1.015;-0.025;0.102;-0.07208210229873657;-0.010995574295520782;-0.004886921960860491
01:00:0A:00:00:00:00;1723162199;09/08/24;00:09:59;1.013;-0.025;0.096;-0.07330382615327835;-0.012217304669320583;0.0036651913542300463
01:00:0A:00:00:00:00;1723162200;09/08/24;00:10:00;1.011;-0.025;0.099;-0.06841690838336945;-0.0073303827084600925;-0.004886921960860491
01:00:0A:00:00:00:00;1723162201;09/08/24;00:10:01;1.014;-0.026;0.1;-0.06963863223791122;-0.019547687843441963;-0.0024434609804302454
01:00:0A:00:00:00:00;1723162202;09/08/24;00:10:02;1.016;-0.025;0.098;-0.0659734457731247;-0.0073303827084600925;-0.0012217304902151227
01:00:0A:00:00:00:00;1723162203;09/08/24;00:10:03;1.016;-0.027;0.103;-0.06475171446800232;-0.009773843921720982;0.0012217304902151227
01:00:0A:00:00:00:00;1723162204;09/08/24;00:10:04;1.012;-0.025;0.098;-0.06475171446800232;-0.012217304669320583;0.0
01:00:0A:00:00:00:00;1723162205;09/08/24;00:10:05;1.013;-0.024;0.101;-0.06108652427792549;-0.00855211354792118;0.0
01:00:0A:00:00:00:00;1723162206;09/08/24;00:10:06;1.013;-0.027;0.1;-0.059864792972803116;-0.014660765416920185;-0.006108652334660292
01:00:0A:00:00:00:00;1723162207;09/08/24;00:10:07;1.015;-0.024;0.099;-0.05864306166768074;-0.009773843921720982;0.0
01:00:0A:00:00:00:00;1723162208;09/08/24;00:10:08;1.015;-0.028;0.099;-0.05864306166768074;-0.013439035043120384;0.0024434609804302454
01:00:0A:00:00:00:00;1723162209;09/08/24;00:10:09;1.011;-0.023;0.1;-0.05742133408784866;-0.0073303827084600925;0.0012217304902151227
01:00:0A:00:00:00:00;1723162210;09/08/24;00:10:10;1.012;-0.025;0.1;-0.05742133408784866;-0.012217304669320583;0.0
01:00:0A:00:00:00:00;1723162211;09/08/24;00:10:11;1.013;-0.023;0.098;-0.05497787147760391;-0.00855211354792118;-0.004886921960860491
01:00:0A:00:00:00:00;1723162212;09/08/24;00:10:12;1.014;-0.026;0.099;-0.05619959905743599;-0.010995574295520782;0.0024434609804302454
01:00:0A:00:00:00:00;1723162213;09/08/24;00:10:13;1.015;-0.025;0.1;-0.05497787147760391;-0.012217304669320583;-0.0024434609804302454
01:00:0A:00:00:00:00;1723162214;09/08/24;00:10:14;1.014;-0.024;0.099;-0.05864306166768074;-0.012217304669320583;0.006108652334660292
01:00:0A:00:00:00:00;1723162215;09/08/24;00:10:15;1.013;-0.027;0.101;-0.05375614017248154;-0.00855211354792118;-0.004886921960860491
01:00:0A:00:00:00:00;1723162216;09/08/24;00:10:16;1.014;-0.024;0.098;-0.05619959905743599;-0.013439035043120384;0.0024434609804302454
01:00:0A:00:00:00:00;1723162217;09/08/24;00:10:17;1.013;-0.026;0.099;-0.05375614017248154;-0.006108652334660292;0.0036651913542300463
01:00:0A:00:00:00:00;1723162218;09/08/24;00:10:18;1.014;-0.025;0.099;-0.05253440886735916;-0.01710422709584236;-0.0036651913542300463
01:00:0A:00:00:00:00;1723162219;09/08/24;00:10:19;1.012;-0.026;0.097;-0.05009094998240471;-0.006108652334660292;0.0036651913542300463
01:00:0A:00:00:00:00;1723162220;09/08/24;00:10:20;1.013;-0.027;0.1;-0.04642575979232788;-0.013439035043120384;-0.0036651913542300463
01:00:0A:00:00:00:00;1723162221;09/08/24;00:10:21;1.015;-0.024;0.098;-0.04642575979232788;-0.00855211354792118;0.004886921960860491
01:00:0A:00:00:00:00;1723162222;09/08/24;00:10:22;1.014;-0.026;0.099;-0.042760565876960754;-0.013439035043120384;-0.0012217304902151227
01:00:0A:00:00:00:00;1723162223;09/08/24;00:10:23;1.013;-0.024;0.098;-0.04153883829712868;-0.009773843921720982;0.0
01:00:0A:00:00:00:00;1723162224;09/08/24;00:10:24;1.015;-0.028;0.1;-0.04153883829712868;-0.012217304669320583;0.004886921960860491
01:00:0A:00:00:00:00;1723162225;09/08/24;00:10:25;1.014;-0.023;0.098;-0.036651913076639175;-0.0073303827084600925;-0.0036651913542300463
01:00:0A:00:00:00:00;1723162226;09/08/24;00:10:26;1.013;-0.025;0.1;-0.040317103266716;-0.009773843921720982;0.0073303827084600925
01:00:0A:00:00:00:00;1723162227;09/08/24;00:10:27;1.013;-0.026;0.097;-0.036651913076639175;-0.012217304669320583;-0.0036651913542300463
01:00:0A:00:00:00:00;1723162228;09/08/24;00:10:28;1.013;-0.024;0.1;-0.03787364438176155;-0.012217304669320583;0.0024434609804302454
01:00:0A:00:00:00:00;1723162229;09/08/24;00:10:29;1.013;-0.027;0.099;-0.036651913076639175;-0.013439035043120384;0.0012217304902151227
01:00:0A:00:00:00:00;1723162230;09/08/24;00:10:30;1.014;-0.023;0.101;-0.0354301817715168;-0.009773843921720982;-0.0012217304902151227
01:00:0A:00:00:00:00;1723162231;09/08/24;00:10:31;1.014;-0.027;0.099;-0.039095375686883926;-0.014660765416920185;0.004886921960860491
01:00:0A:00:00:00:00;1723162232;09/08/24;00:10:32;1.013;-0.026;0.102;-0.03420845419168472;-0.0073303827084600925;-0.0024434609804302454
01:00:0A:00:00:00:00;1723162233;09/08/24;00:10:33;1.014;-0.024;0.1;-0.03787364438176155;-0.015882495790719986;0.0036651913542300463
01:00:0A:00:00:00:00;1723162234;09/08/24;00:10:34;1.014;-0.025;0.099;-0.03420845419168472;-0.0073303827084600925;0.0
01:00:0A:00:00:00:00;1723162235;09/08/24;00:10:35;1.013;-0.024;0.101;-0.036651913076639175;-0.014660765416920185;0.0
01:00:0A:00:00:00:00;1723162236;09/08/24;00:10:36;1.014;-0.027;0.1;-0.0354301817715168;-0.012217304669320583;0.0024434609804302454
01:00:0A:00:00:00:00;1723162237;09/08/24;00:10:37;1.014;-0.025;0.101;-0.03298672288656235;-0.009773843921720982;-0.0012217304902151227
01:00:0A:00:00:00:00;1723162238;09/08/24;00:10:38;1.014;-0.025;0.099;-0.0354301817715168;-0.013439035043120384;0.0036651913542300463
01:00:0A:00:00:00:00;1723162239;09/08/24;00:10:39;1.014;-0.026;0.101;-0.030543262138962746;-0.009773843921720982;-0.0024434609804302454
01:00:0A:00:00:00:00;1723162240;09/08/24;00:10:40;1.014;-0.025;0.099;-0.03176499158143997;-0.013439035043120384;0.004886921960860491
01:00:0A:00:00:00:00;1723162241;09/08/24;00:10:41;1.014;-0.027;0.1;-0.028099799528717995;-0.010995574295520782;0.0012217304902151227
01:00:0A:00:00:00:00;1723162242;09/08/24;00:10:42;1.014;-0.024;0.1;-0.02687807008624077;-0.009773843921720982;0.0012217304902151227
01:00:0A:00:00:00:00;1723162243;09/08/24;00:10:43;1.013;-0.026;0.099;-0.025656338781118393;-0.013439035043120384;0.0024434609804302454
01:00:0A:00:00:00:00;1723162244;09/08/24;00:10:44;1.013;-0.025;0.1;-0.021991148591041565;-0.009773843921720982;0.0012217304902151227
01:00:0A:00:00:00:00;1723162245;09/08/24;00:10:45;1.013;-0.027;0.099;-0.021991148591041565;-0.014660765416920185;0.004886921960860491
01:00:0A:00:00:00:00;1723162246;09/08/24;00:10:46;1.014;-0.026;0.099;-0.01710422709584236;-0.0073303827084600925;0.0
01:00:0A:00:00:00:00;1723162247;09/08/24;00:10:47;1.015;-0.026;0.1;-0.01710422709584236;-0.010995574295520782;0.0036651913542300463
01:00:0A:00:00:00:00;1723162248;09/08/24;00:10:48;1.014;-0.025;0.096;-0.014660765416920185;-0.012217304669320583;0.0
01:00:0A:00:00:00:00;1723162249;09/08/24;00:10:49;1.013;-0.025;0.101;-0.014660765416920185;-0.00855211354792118;0.004886921960860491
01:00:0A:00:00:00:00;1723162250;09/08/24;00:10:50;1.013;-0.023;0.098;-0.013439035043120384;-0.013439035043120384;0.0012217304902151227
01:00:0A:00:00:00:00;1723162251;09/08/24;00:10:51;1.014;-0.025;0.1;-0.012217304669320583;-0.006108652334660292;0.004886921960860491
01:00:0A:00:00:00:00;1723162252;09/08/24;00:10:52;1.015;-0.023;0.099;-0.013439035043120384;-0.014660765416920185;0.0
01:00:0A:00:00:00:00;1723162253;09/08/24;00:10:53;1.012;-0.025;0.098;-0.014660765416920185;-0.00855211354792118;0.0036651913542300463
01:00:0A:00:00:00:00;1723162254;09/08/24;00:10:54;1.013;-0.025;0.101;-0.015882495790719986;-0.012217304669320583;0.0
01:00:0A:00:00:00:00;1723162255;09/08/24;00:10:55;1.014;-0.023;0.099;-0.018325956538319588;-0.010995574295520782;0.004886921960860491
01:00:0A:00:00:00:00;1723162256;09/08/24;00:10:56;1.015;-0.025;0.101;-0.018325956538319588;-0.009773843921720982;0.0
01:00:0A:00:00:00:00;1723162257;09/08/24;00:10:57;1.015;-0.024;0.102;-0.021991148591041565;-0.013439035043120384;0.0036651913542300463
01:00:0A:00:00:00:00;1723162258;09/08/24;00:10:58;1.013;-0.025;0.101;-0.02321287989616394;-0.00855211354792118;0.0012217304902151227
01:00:0A:00:00:00:00;1723162259;09/08/24;00:10:59;1.013;-0.024;0.1;-0.025656338781118393;-0.013439035043120384;0.0036651913542300463
01:00:0A:00:00:00:00;1723162260;09/08/24;00:11:00;1.014;-0.026;0.1;-0.024434609338641167;-0.009773843921720982;0.0012217304902151227
01:00:0A:00:00:00:00;1723162261;09/08/24;00:11:01;1.014;-0.024;0.101;-0.02687807008624077;-0.010995574295520782;0.0024434609804302454
01:00:0A:00:00:00:00;1723162262;09/08/24;00:11:02;1.013;-0.026;0.1;-0.02687807008624077;-0.014660765416920185;0.0012217304902151227
01:00:0A:00:00:00:00;1723162263;09/08/24;00:11:03;1.014;-0.025;0.102;-0.02687807008624077;-0.010995574295520782;0.0012217304902151227
01:00:0A:00:00:00:00;1723162264;09/08/24;00:11:04;1.014;-0.027;0.101;-0.028099799528717995;-0.012217304669320583;0.0024434609804302454
01:00:0A:00:00:00:00;1723162265;09/08/24;00:11:05;1.014;-0.025;0.101;-0.02687807008624077;-0.00855211354792118;0.0012217304902151227
01:00:0A:00:00:00:00;1723162266;09/08/24;00:11:06;1.013;-0.026;0.101;-0.028099799528717995;-0.012217304669320583;0.0036651913542300463
01:00:0A:00:00:00:00;1723162267;09/08/24;00:11:07;1.013;-0.024;0.098;-0.02687807008624077;-0.012217304669320583;0.0
01:00:0A:00:00:00:00;1723162268;09/08/24;00:11:08;1.014;-0.025;0.1;-0.02687807008624077;-0.010995574295520782;0.0024434609804302454
01:00:0A:00:00:00:00;1723162269;09/08/24;00:11:09;1.015;-0.025;0.1;-0.025656338781118393;-0.010995574295520782;-0.0012217304902151227
01:00:0A:00:00:00:00;1723162270;09/08/24;00:11:10;1.014;-0.026;0.1;-0.02687807008624077;-0.009773843921720982;0.004886921960860491
01:00:0A:00:00:00:00;1723162271;09/08/24;00:11:11;1.014;-0.024;0.1;-0.025656338781118393;-0.012217304669320583;0.0
01:00:0A:00:00:00:00;1723162272;09/08/24;00:11:12;1.013;-0.025;0.099;-0.025656338781118393;-0.010995574295520782;0.0036651913542300463
01:00:0A:00:00:00:00;1723162273;09/08/24;00:11:13;1.013;-0.026;0.101;-0.02321287989616394;-0.009773843921720982;-0.0012217304902151227
01:00:0A:00:00:00:00;1723162274;09/08/24;00:11:14;1.013;-0.024;0.099;-0.02321287989616394;-0.012217304669320583;0.0036651913542300463
01:00:0A:00:00:00:00;1723162275;09/08/24;00:11:15;1.015;-0.027;0.101;-0.02076941914856434;-0.009773843921720982;0.0012217304902151227
01:00:0A:00:00:00:00;1723162276;09/08/24;00:11:16;1.013;-0.024;0.098;-0.02076941914856434;-0.013439035043120384;0.0024434609804302454
01:00:0A:00:00:00:00;1723162277;09/08/24;00:11:17;1.013;-0.026;0.099;-0.018325956538319588;-0.009773843921720982;0.0012217304902151227
01:00:0A:00:00:00:00;1723162278;09/08/24;00:11:18;1.013;-0.025;0.1;-0.018325956538319588;-0.010995574295520782;0.0024434609804302454
01:00:0A:00:00:00:00;1723162279;09/08/24;00:11:19;1.014;-0.027;0.099;-0.015882495790719986;-0.010995574295520782;0.0024434609804302454
01:00:0A:00:00:00:00;1723162280;09/08/24;00:11:20;1.013;-0.023;0.1;-0.015882495790719986;-0.012217304669320583;0.0024434609804302454
01:00:0A:00:00:00:00;1723162281;09/08/24;00:11:21;1.012;-0.026;0.098;-0.014660765416920185;-0.013439035043120384;0.0024434609804302454
01:00:0A:00:00:00:00;1723162282;09/08/24;00:11:22;1.014;-0.025;0.1;-0.012217304669320583;-0.009773843921720982;0.0024434609804302454
01:00:0A:00:00:00:00;1723162283;09/08/24;00:11:23;1.012;-0.026;0.099;-0.012217304669320583;-0.010995574295520782;0.004886921960860491
01:00:0A:00:00:00:00;1723162284;09/08/24;00:11:24;1.013;-0.025;0.1;-0.009773843921720982;-0.012217304669320583;0.0024434609804302454
01:00:0A:00:00:00:00;1723162285;09/08/24;00:11:25;1.013;-0.026;0.099;-0.009773843921720982;-0.012217304669320583;0.0036651913542300463
01:00:0A:00:00:00:00;1723162286;09/08/24;00:11:26;1.014;-0.025;0.1;-0.0073303827084600925;-0.010995574295520782;0.0
01:00:0A:00:00:00:00;1723162287;09/08/24;00:11:27;1.014;-0.025;0.099;-0.0073303827084600925;-0.010995574295520782;0.004886921960860491
01:00:0A:00:00:00:00;1723162288;09/08/24;00:11:28;1.013;-0.026;0.099;-0.004886921960860491;-0.010995574295520782;0.0036651913542300463
01:00:0A:00:00:00:00;1723162289;09/08/24;00:11:29;1.012;-0.025;0.1;-0.004886921960860491;-0.013439035043120384;0.004886921960860491
01:00:0A:00:00:00:00;1723162290;09/08/24;00:11:30;1.013;-0.026;0.1;-0.0024434609804302454;-0.010995574295520782;0.0024434609804302454
01:00:0A:00:00:00:00;1723162291;09/08/24;00:11:31;1.013;-0.025;0.099;-0.0012217304902151227;-0.013439035043120384;0.0036651913542300463
01:00:0A:00:00:00:00;1723162292;09/08/24;00:11:32;1.013;-0.026;0.099;0.0012217304902151227;-0.009773843921720982;0.0036651913542300463
01:00:0A:00:00:00:00;1723162293;09/08/24;00:11:33;1.013;-0.026;0.1;0.0012217304902151227;-0.013439035043120384;0.006108652334660292
01:00:0A:00:00:00:00;1723162294;09/08/24;00:11:34;1.015;-0.025;0.098;0.0036651913542300463;-0.012217304669320583;0.0024434609804302454
01:00:0A:00:00:00:00;1723162295;09/08/24;00:11:35;1.013;-0.025;0.1;0.0036651913542300463;-0.010995574295520782;0.004886921960860491
01:00:0A:00:00:00:00;1723162296;09/08/24;00:11:36;1.013;-0.027;0.099;0.006108652334660292;-0.010995574295520782;0.0024434609804302454
01:00:0A:00:00:00:00;1723162297;09/08/24;00:11:37;1.014;-0.024;0.099;0.006108652334660292;-0.009773843921720982;0.006108652334660292
01:00:0A:00:00:00:00;1723162298;09/08/24;00:11:38;1.013;-0.026;0.099;0.0073303827084600925;-0.012217304669320583;0.0036651913542300463
01:00:0A:00:00:00:00;1723162299;09/08/24;00:11:39;1.014;-0.024;0.1;0.0073303827084600925;-0.010995574295520782;0.0036651913542300463
01:00:0A:00:00:00:00;1723162300;09/08/24;00:11:40;1.014;-0.026;0.098;0.00855211354792118;-0.010995574295520782;0.004886921960860491
01:00:0A:00:00:00:00;1723162301;09/08/24;00:11:41;1.014;-0.024;0.099;0.00855211354792118;-0.010995574295520782;0.0036651913542300463
01:00:0A:00:00:00:00;1723162302;09/08/24;00:11:42;1.013;-0.026;0.099;0.00855211354792118;-0.012217304669320583;0.006108652334660292
01:00:0A:00:00:00:00;1723162303;09/08/24;00:11:43;1.013;-0.024;0.101;0.010995574295520782;-0.010995574295520782;0.0024434609804302454
01:00:0A:00:00:00:00;1723162304;09/08/24;00:11:44;1.013;-0.025;0.099;0.009773843921720982;-0.010995574295520782;0.006108652334660292
01:00:0A:00:00:00:00;1723162305;09/08/24;00:11:45;1.014;-0.026;0.101;0.012217304669320583;-0.009773843921720982;0.0024434609804302454
01:00:0A:00:00:00:00;1723162306;09/08/24;00:11:46;1.013;-0.024;0.099;0.010995574295520782;-0.013439035043120384;0.006108652334660292
01:00:0A:00:00:00:00;1723162307;09/08/24;00:11:47;1.013;-0.025;0.101;0.013439035043120384;-0.009773843921720982;0.004886921960860491
01:00:0A:00:00:00:00;1723162308;09/08/24;00:11:48;1.015;-0.024;0.099;0.012217304669320583;-0.013439035043120384;0.004886921960860491
01:00:0A:00:00:00:00;1723162309;09/08/24;00:11:49;1.013;-0.025;0.1;0.014660765416920185;-0.00855211354792118;0.004886921960860491
01:00:0A:00:00:00:00;1723162310;09/08/24;00:11:50;1.015;-0.026;0.099;0.013439035043120384;-0.013439035043120384;0.004886921960860491
01:00:0A:00:00:00:00;1723162311;09/08/24;00:11:51;1.015;-0.026;0.098;0.014660765416920185;-0.009773843921720982;0.004886921960860491
01:00:0A:00:00:00:00;1723162312;09/08/24;00:11:52;1.015;-0.025;0.1;0.014660765416920185;-0.013439035043120384;0.004886921960860491
01:00:0A:00:00:00:00;1723162313;09/08/24;00:11:53;1.013;-0.025;0.099;0.015882495790719986;-0.010995574295520782;0.0036651913542300463
01:00:0A:00:00:00:00;1723162314;09/08/24;00:11:54;1.013;-0.026;0.1;0.015882495790719986;-0.010995574295520782;0.006108652334660292
01:00:0A:00:00:00:00;1723162315;09/08/24;00:11:55;1.013;-0.026;0.098;0.01710422709584236;-0.012217304669320583;0.0036651913542300463
01:00:0A:00:00:00:00;1723162316;09/08/24;00:11:56;1.014;-0.025;0.099;0.015882495790719986;-0.010995574295520782;0.006108652334660292
01:00:0A:00:00:00:00;1723162317;09/08/24;00:11:57;1.014;-0.026;0.1;0.01710422709584236;-0.013439035043120384;0.0036651913542300463
01:00:0A:00:00:00:00;1723162318;09/08/24;00:11:58;1.014;-0.024;0.099;0.01710422709584236;-0.009773843921720982;0.006108652334660292
01:00:0A:00:00:00:00;1723162319;09/08/24;00:11:59;1.013;-0.027;0.1;0.01710422709584236;-0.010995574295520782;0.006108652334660292
01:00:0A:00:00:00:00;1723162320;09/08/24;00:12:00;1.013;-0.024;0.099;0.018325956538319588;-0.012217304669320583;0.0036651913542300463
01:00:0A:00:00:00:00;1723162321;09/08/24;00:12:01;1.013;-0.027;0.099;0.01710422709584236;-0.010995574295520782;0.006108652334660292
01:00:0A:00:00:00:00;1723162322;09/08/24;00:12:02;1.015;-0.024;0.1;0.019547687843441963;-0.012217304669320583;0.0024434609804302454
01:00:0A:00:00:00:00;1723162323;09/08/24;00:12:03;1.014;-0.025;0.099;0.018325956538319588;-0.010995574295520782;0.0073303827084600925
01:00:0A:00:00:00:00;1723162324;09/08/24;00:12:04;1.013;-0.026;0.1;0.019547687843441963;-0.012217304669320583;0.0036651913542300463
01:00:0A:00:00:00:00;1723162325;09/08/24;00:12:05;1.015;-0.024;0.098;0.019547687843441963;-0.012217304669320583;0.0073303827084600925
01:00:0A:00:00:00:00;1723162326;09/08/24;00:12:06;1.014;-0.025;0.1;0.02076941914856434;-0.009773843921720982;0.0036651913542300463
01:00:0A:00:00:00:00;1723162327;09/08/24;00:12:07;1.014;-0.025;0.099;0.019547687843441963;-0.013439035043120384;0.006108652334660292
01:00:0A:00:00:00:00;1723162328;09/08/24;00:12:08;1.013;-0.026;0.099;0.021991148591041565;-0.00855211354792118;0.006108652334660292
01:00:0A:00:00:00:00;1723162329;09/08/24;00:12:09;1.012;-0.025;0.098;0.02076941914856434;-0.014660765416920185;0.004886921960860491
01:00:0A:00:00:00:00;1723162330;09/08/24;00:12:10;1.014;-0.025;0.098;0.02321287989616394;-0.010995574295520782;0.004886921960860491
01:00:0A:00:00:00:00;1723162331;09/08/24;00:12:11;1.015;-0.025;0.1;0.02321287989616394;-0.012217304669320583;0.006108652334660292
01:00:0A:00:00:00:00;1723162332;09/08/24;00:12:12;1.014;-0.025;0.098;0.024434609338641167;-0.010995574295520782;0.004886921960860491
01:00:0A:00:00:00:00;1723162333;09/08/24;00:12:13;1.012;-0.025;0.101;0.025656338781118393;-0.009773843921720982;0.006108652334660292
01:00:0A:00:00:00:00;1723162334;09/08/24;00:12:14;1.013;-0.026;0.097;0.025656338781118393;-0.013439035043120384;0.0036651913542300463
01:00:0A:00:00:00:00;1723162335;09/08/24;00:12:15;1.014;-0.026;0.1;0.02687807008624077;-0.009773843921720982;0.006108652334660292
01:00:0A:00:00:00:00;1723162336;09/08/24;00:12:16;1.013;-0.025;0.099;0.02687807008624077;-0.013439035043120384;0.004886921960860491
01:00:0A:00:00:00:00;1723162337;09/08/24;00:12:17;1.014;-0.025;0.098;0.028099799528717995;-0.009773843921720982;0.006108652334660292
01:00:0A:00:00:00:00;1723162338;09/08/24;00:12:18;1.012;-0.025;0.099;0.028099799528717995;-0.012217304669320583;0.006108652334660292
01:00:0A:00:00:00:00;1723162339;09/08/24;00:12:19;1.014;-0.022;0.098;0.028099799528717995;-0.012217304669320583;0.0036651913542300463
01:00:0A:00:00:00:00;1723162340;09/08/24;00:12:20;1.013;-0.026;0.099;0.028099799528717995;-0.009773843921720982;0.0073303827084600925
01:00:0A:00:00:00:00;1723162341;09/08/24;00:12:21;1.015;-0.024;0.099;0.02932153083384037;-0.013439035043120384;0.004886921960860491
01:00:0A:00:00:00:00;1723162342;09/08/24;00:12:22;1.013;-0.026;0.099;0.02932153083384037;-0.009773843921720982;0.00855211354792118
01:00:0A:00:00:00:00;1723162343;09/08/24;00:12:23;1.013;-0.024;0.1;0.030543262138962746;-0.013439035043120384;0.0036651913542300463
01:00:0A:00:00:00:00;1723162344;09/08/24;00:12:24;1.014;-0.026;0.097;0.02932153083384037;-0.010995574295520782;0.0073303827084600925
01:00:0A:00:00:00:00;1723162345;09/08/24;00:12:25;1.014;-0.025;0.101;0.030543262138962746;-0.010995574295520782;0.0036651913542300463
01:00:0A:00:00:00:00;1723162346;09/08/24;00:12:26;1.014;-0.024;0.097;0.02932153083384037;-0.012217304669320583;0.0073303827084600925
01:00:0A:00:00:00:00;1723162347;09/08/24;00:12:27;1.014;-0.026;0.101;0.03176499158143997;-0.009773843921720982;0.004886921960860491
01:00:0A:00:00:00:00;1723162348;09/08/24;00:12:28;1.014;-0.024;0.099;0.030543262138962746;-0.014660765416920185;0.006108652334660292
01:00:0A:00:00:00:00;1723162349;09/08/24;00:12:29;1.014;-0.025;0.098;0.03176499158143997;-0.009773843921720982;0.004886921960860491
01:00:0A:00:00:00:00;1723162350;09/08/24;00:12:30;1.014;-0.026;0.099;0.030543262138962746;-0.012217304669320583;0.006108652334660292
01:00:0A:00:00:00:00;1723162351;09/08/24;00:12:31;1.012;-0.026;0.098;0.030543262138962746;-0.010995574295520782;0.006108652334660292
01:00:0A:00:00:00:00;1723162352;09/08/24;00:12:32;1.013;-0.025;0.1;0.030543262138962746;-0.010995574295520782;0.006108652334660292
01:00:0A:00:00:00:00;1723162353;09/08/24;00:12:33;1.013;-0.025;0.098;0.02932153083384037;-0.014660765416920185;0.004886921960860491
01:00:0A:00:00:00:00;1723162354;09/08/24;00:12:34;1.014;-0.024;0.1;0.02932153083384037;-0.009773843921720982;0.006108652334660292
01:00:0A:00:00:00:00;1723162355;09/08/24;00:12:35;1.013;-0.027;0.1;0.028099799528717995;-0.013439035043120384;0.006108652334660292
01:00:0A:00:00:00:00;1723162356;09/08/24;00:12:36;1.014;-0.024;0.099;0.02932153083384037;-0.009773843921720982;0.006108652334660292
01:00:0A:00:00:00:00;1723162357;09/08/24;00:12:37;1.014;-0.026;0.101;0.028099799528717995;-0.012217304669320583;0.006108652334660292
01:00:0A:00:00:00:00;1723162358;09/08/24;00:12:38;1.013;-0.024;0.098;0.028099799528717995;-0.013439035043120384;0.0036651913542300463
01:00:0A:00:00:00:00;1723162359;09/08/24;00:12:39;1.014;-0.026;0.1;0.028099799528717995;-0.009773843921720982;0.0073303827084600925
01:00:0A:00:00:00:00;1723162360;09/08/24;00:12:40;1.013;-0.025;0.099;0.028099799528717995;-0.013439035043120384;0.004886921960860491
01:00:0A:00:00:00:00;1723162361;09/08/24;00:12:41;1.013;-0.025;0.1;0.028099799528717995;-0.009773843921720982;0.0073303827084600925
01:00:0A:00:00:00:00;1723162362;09/08/24;00:12:42;1.013;-0.025;0.099;0.028099799528717995;-0.014660765416920185;0.0036651913542300463
01:00:0A:00:00:00:00;1723162363;09/08/24;00:12:43;1.013;-0.025;0.096;0.028099799528717995;-0.009773843921720982;0.0073303827084600925
01:00:0A:00:00:00:00;1723162364;09/08/24;00:12:44;1.013;-0.026;0.101;0.028099799528717995;-0.012217304669320583;0.004886921960860491
01:00:0A:00:00:00:00;1723162365;09/08/24;00:12:45;1.015;-0.022;0.092;0.0354301817715168;-0.042760565876960754;-0.006108652334660292
01:00:0A:00:00:00:00;1723162366;09/08/24;00:12:46;1.014;-0.019;0.084;0.021991148591041565;-0.015882495790719986;0.0
01:00:0A:00:00:00:00;1723162367;09/08/24;00:12:47;1.015;-0.021;0.091;0.02932153083384037;-0.0012217304902151227;0.014660765416920185
01:00:0A:00:00:00:00;1723162368;09/08/24;00:12:48;1.012;-0.029;0.104;0.0354301817715168;-0.006108652334660292;0.004886921960860491
01:00:0A:00:00:00:00;1723162369;09/08/24;00:12:49;1.015;-0.022;0.098;0.03176499158143997;-0.021991148591041565;0.0012217304902151227
01:00:0A:00:00:00:00;1723162370;09/08/24;00:12:50;1.013;-0.025;0.094;0.03298672288656235;-0.004886921960860491;0.010995574295520782
01:00:0A:00:00:00:00;1723162371;09/08/24;00:12:51;1.014;-0.026;0.103;0.03298672288656235;-0.00855211354792118;0.006108652334660292
01:00:0A:00:00:00:00;1723162372;09/08/24;00:12:52;1.014;-0.025;0.097;0.03176499158143997;-0.02076941914856434;0.0024434609804302454
01:00:0A:00:00:00:00;1723162373;09/08/24;00:12:53;1.013;-0.024;0.096;0.03298672288656235;-0.0036651913542300463;0.009773843921720982
01:00:0A:00:00:00:00;1723162374;09/08/24;00:12:54;1.013;-0.028;0.103;0.03298672288656235;-0.013439035043120384;0.006108652334660292
01:00:0A:00:00:00:00;1723162375;09/08/24;00:12:55;1.013;-0.023;0.095;0.03298672288656235;-0.01710422709584236;0.0024434609804302454
01:00:0A:00:00:00:00;1723162376;09/08/24;00:12:56;1.012;-0.025;0.098;0.03176499158143997;-0.006108652334660292;0.010995574295520782
01:00:0A:00:00:00:00;1723162377;09/08/24;00:12:57;1.013;-0.027;0.101;0.03420845419168472;-0.012217304669320583;0.0036651913542300463
01:00:0A:00:00:00:00;1723162378;09/08/24;00:12:58;1.014;-0.024;0.097;0.03298672288656235;-0.015882495790719986;0.004886921960860491
01:00:0A:00:00:00:00;1723162379;09/08/24;00:12:59;1.013;-0.024;0.096;0.03298672288656235;-0.00855211354792118;0.00855211354792118
01:00:0A:00:00:00:00;1723162380;09/08/24;00:13:00;1.014;-0.025;0.102;0.03420845419168472;-0.009773843921720982;0.004886921960860491
01:00:0A:00:00:00:00;1723162381;09/08/24;00:13:01;1.014;-0.024;0.097;0.03298672288656235;-0.018325956538319588;0.004886921960860491
01:00:0A:00:00:00:00;1723162382;09/08/24;00:13:02;1.014;-0.026;0.098;0.0354301817715168;-0.0036651913542300463;0.00855211354792118
01:00:0A:00:00:00:00;1723162383;09/08/24;00:13:03;1.014;-0.026;0.102;0.03420845419168472;-0.014660765416920185;0.004886921960860491
01:00:0A:00:00:00:00;1723162384;09/08/24;00:13:04;1.014;-0.026;0.096;0.03298672288656235;-0.015882495790719986;0.0073303827084600925
01:00:0A:00:00:00:00;1723162385;09/08/24;00:13:05;1.013;-0.026;0.099;0.0354301817715168;-0.006108652334660292;0.006108652334660292
01:00:0A:00:00:00:00;1723162386;09/08/24;00:13:06;1.013;-0.026;0.09;0.02321287989616394;-0.015882495790719986;0.0073303827084600925
01:00:0A:00:00:00:00;1723162387;09/08/24;00:13:07;1.015;-0.027;0.093;0.02687807008624077;-0.0012217304902151227;0.0036651913542300463
01:00:0A:00:00:00:00;1723162388;09/08/24;00:13:08;1.012;-0.024;0.105;0.021991148591041565;-0.00855211354792118;0.0073303827084600925
01:00:0A:00:00:00:00;1723162389;09/08/24;00:13:09;1.013;-0.026;0.098;0.02076941914856434;-0.021991148591041565;0.006108652334660292
01:00:0A:00:00:00:00;1723162390;09/08/24;00:13:10;1.014;-0.024;0.095;0.025656338781118393;-0.004886921960860491;0.004886921960860491
01:00:0A:00:00:00:00;1723162391;09/08/24;00:13:11;1.013;-0.026;0.103;0.024434609338641167;-0.00855211354792118;0.0073303827084600925
01:00:0A:00:00:00:00;1723162392;09/08/24;00:13:12;1.014;-0.024;0.097;0.02321287989616394;-0.019547687843441963;0.004886921960860491
01:00:0A:00:00:00:00;1723162393;09/08/24;00:13:13;1.014;-0.026;0.096;0.02687807008624077;-0.006108652334660292;0.006108652334660292
01:00:0A:00:00:00:00;1723162394;09/08/24;00:13:14;1.013;-0.025;0.103;0.02687807008624077;-0.00855211354792118;0.0036651913542300463
01:00:0A:00:00:00:00;1723162395;09/08/24;00:13:15;1.014;-0.025;0.098;0.024434609338641167;-0.018325956538319588;0.0073303827084600925
01:00:0A:00:00:00:00;1723162396;09/08/24;00:13:16;1.014;-0.026;0.096;0.028099799528717995;-0.0073303827084600925;0.0036651913542300463
01:00:0A:00:00:00:00;1723162397;09/08/24;00:13:17;1.013;-0.024;0.103;0.025656338781118393;-0.009773843921720982;0.006108652334660292
01:00:0A:00:00:00:00;1723162398;09/08/24;00:13:18;1.014;-0.027;0.098;0.024434609338641167;-0.019547687843441963;0.0073303827084600925
01:00:0A:00:00:00:00;1723162399;09/08/24;00:13:19;1.014;-0.024;0.098;0.030543262138962746;-0.0036651913542300463;0.0036651913542300463
01:00:0A:00:00:00:00;1723162400;09/08/24;00:13:20;1.013;-0.026;0.102;0.02687807008624077;-0.013439035043120384;0.00855211354792118
01:00:0A:00:00:00:00;1723162401;09/08/24;00:13:21;1.014;-0.028;0.093;0.0354301817715168;-0.009773843921720982;0.0036651913542300463
01:00:0A:00:00:00:00;1723162402;09/08/24;00:13:22;1.014;-0.022;0.103;0.036651913076639175;-0.0036651913542300463;0.0036651913542300463
01:00:0A:00:00:00:00;1723162403;09/08/24;00:13:23;1.013;-0.025;0.101;0.030543262138962746;-0.019547687843441963;0.010995574295520782
01:00:0A:00:00:00:00;1723162404;09/08/24;00:13:24;1.014;-0.027;0.096;0.0354301817715168;-0.010995574295520782;0.0024434609804302454
01:00:0A:00:00:00:00;1723162405;09/08/24;00:13:25;1.014;-0.027;0.096;0.04153883829712868;-0.013439035043120384;0.010995574295520782
01:00:0A:00:00:00:00;1723162406;09/08/24;00:13:26;1.013;-0.026;0.101;0.045204028487205505;-0.0073303827084600925;0.0012217304902151227
01:00:0A:00:00:00:00;1723162407;09/08/24;00:13:27;1.014;-0.023;0.1;0.039095375686883926;-0.01710422709584236;0.009773843921720982
01:00:0A:00:00:00:00;1723162408;09/08/24;00:13:28;1.013;-0.028;0.097;0.04153883829712868;-0.012217304669320583;0.0073303827084600925
01:00:0A:00:00:00:00;1723162409;09/08/24;00:13:29;1.013;-0.025;0.1;0.04398229718208313;-0.0073303827084600925;0.0036651913542300463
01:00:0A:00:00:00:00;1723162410;09/08/24;00:13:30;1.013;-0.025;0.1;0.039095375686883926;-0.015882495790719986;0.009773843921720982
01:00:0A:00:00:00:00;1723162411;09/08/24;00:13:31;1.013;-0.027;0.097;0.040317103266716;-0.010995574295520782;0.006108652334660292
01:00:0A:00:00:00:00;1723162412;09/08/24;00:13:32;1.013;-0.026;0.1;0.04153883829712868;-0.00855211354792118;0.006108652334660292
01:00:0A:00:00:00:00;1723162413;09/08/24;00:13:33;1.014;-0.024;0.099;0.039095375686883926;-0.014660765416920185;0.006108652334660292
01:00:0A:00:00:00:00;1723162414;09/08/24;00:13:34;1.013;-0.026;0.098;0.039095375686883926;-0.010995574295520782;0.00855211354792118
01:00:0A:00:00:00:00;1723162415;09/08/24;00:13:35;1.013;-0.026;0.1;0.040317103266716;-0.010995574295520782;0.004886921960860491
01:00:0A:00:00:00:00;1723162416;09/08/24;00:13:36;1.014;-0.023;0.099;0.03787364438176155;-0.013439035043120384;0.0073303827084600925
01:00:0A:00:00:00:00;1723162417;09/08/24;00:13:37;1.013;-0.028;0.096;0.039095375686883926;-0.012217304669320583;0.00855211354792118
01:00:0A:00:00:00:00;1723162418;09/08/24;00:13:38;1.013;-0.025;0.101;0.04153883829712868;-0.00855211354792118;0.0024434609804302454
01:00:0A:00:00:00:00;1723162419;09/08/24;00:13:39;1.014;-0.028;0.099;0.04642575979232788;-0.014660765416920185;0.012217304669320583
01:00:0A:00:00:00:00;1723162420;09/08/24;00:13:40;1.013;-0.027;0.099;0.04886921867728233;-0.00855211354792118;0.0
01:00:0A:00:00:00:00;1723162421;09/08/24;00:13:41;1.012;-0.022;0.101;0.04398229718208313;-0.012217304669320583;0.00855211354792118
01:00:0A:00:00:00:00;1723162422;09/08/24;00:13:42;1.013;-0.03;0.098;0.04886921867728233;-0.014660765416920185;0.012217304669320583
01:00:0A:00:00:00:00;1723162423;09/08/24;00:13:43;1.013;-0.027;0.098;0.051312677562236786;-0.012217304669320583;0.0024434609804302454
01:00:0A:00:00:00:00;1723162424;09/08/24;00:13:44;1.013;-0.026;0.098;0.04642575979232788;-0.0073303827084600925;0.006108652334660292
01:00:0A:00:00:00:00;1723162425;09/08/24;00:13:45;1.014;-0.025;0.102;0.04398229718208313;-0.012217304669320583;0.00855211354792118
01:00:0A:00:00:00:00;1723162426;09/08/24;00:13:46;1.013;-0.027;0.097;0.04398229718208313;-0.014660765416920185;0.00855211354792118
01:00:0A:00:00:00:00;1723162427;09/08/24;00:13:47;1.013;-0.026;0.099;0.04642575979232788;-0.00855211354792118;0.0024434609804302454
01:00:0A:00:00:00:00;1723162428;09/08/24;00:13:48;1.013;-0.026;0.101;0.042760565876960754;-0.012217304669320583;0.009773843921720982
01:00:0A:00:00:00:00;1723162429;09/08/24;00:13:49;1.014;-0.029;0.099;0.042760565876960754;-0.013439035043120384;0.0073303827084600925
01:00:0A:00:00:00:00;1723162430;09/08/24;00:13:50;1.014;-0.024;0.099;0.04398229718208313;-0.009773843921720982;0.0036651913542300463
01:00:0A:00:00:00:00;1723162431;09/08/24;00:13:51;1.014;-0.025;0.102;0.04153883829712868;-0.010995574295520782;0.009773843921720982
01:00:0A:00:00:00:00;1723162432;09/08/24;00:13:52;1.013;-0.029;0.099;0.04642575979232788;-0.014660765416920185;0.0073303827084600925
01:00:0A:00:00:00:00;1723162433;09/08/24;00:13:53;1.013;-0.025;0.099;0.04398229718208313;-0.00855211354792118;0.0024434609804302454
01:00:0A:00:00:00:00;1723162434;09/08/24;00:13:54;1.013;-0.025;0.1;0.039095375686883926;-0.012217304669320583;0.00855211354792118
01:00:0A:00:00:00:00;1723162435;09/08/24;00:13:55;1.014;-0.026;0.099;0.03787364438176155;-0.013439035043120384;0.0073303827084600925
01:00:0A:00:00:00:00;1723162436;09/08/24;00:13:56;1.014;-0.029;0.1;0.042760565876960754;-0.010995574295520782;0.012217304669320583
01:00:0A:00:00:00:00;1723162437;09/08/24;00:13:57;1.014;-0.026;0.099;0.04642575979232788;-0.010995574295520782;0.0
01:00:0A:00:00:00:00;1723162438;09/08/24;00:13:58;1.013;-0.023;0.099;0.040317103266716;-0.013439035043120384;0.010995574295520782
01:00:0A:00:00:00:00;1723162439;09/08/24;00:13:59;1.014;-0.028;0.1;0.042760565876960754;-0.010995574295520782;0.0073303827084600925
01:00:0A:00:00:00:00;1723162440;09/08/24;00:14:00;1.014;-0.025;0.1;0.042760565876960754;-0.012217304669320583;0.0036651913542300463
01:00:0A:00:00:00:00;1723162441;09/08/24;00:14:01;1.014;-0.028;0.1;0.04764748737215996;-0.010995574295520782;0.012217304669320583
01:00:0A:00:00:00:00;1723162442;09/08/24;00:14:02;1.013;-0.025;0.099;0.04886921867728233;-0.012217304669320583;0.0036651913542300463
01:00:0A:00:00:00:00;1723162443;09/08/24;00:14:03;1.013;-0.024;0.1;0.04764748737215996;-0.010995574295520782;0.0073303827084600925
01:00:0A:00:00:00:00;1723162444;09/08/24;00:14:04;1.014;-0.027;0.1;0.045204028487205505;-0.012217304669320583;0.010995574295520782
01:00:0A:00:00:00:00;1723162445;09/08/24;00:14:05;1.013;-0.027;0.099;0.04764748737215996;-0.010995574295520782;0.0036651913542300463
01:00:0A:00:00:00:00;1723162446;09/08/24;00:14:06;1.012;-0.028;0.101;0.04886921867728233;-0.012217304669320583;0.0073303827084600925
01:00:0A:00:00:00:00;1723162447;09/08/24;00:14:07;1.013;-0.025;0.098;0.04886921867728233;-0.013439035043120384;0.004886921960860491
01:00:0A:00:00:00:00;1723162448;09/08/24;00:14:08;1.013;-0.025;0.1;0.04764748737215996;-0.009773843921720982;0.009773843921720982
01:00:0A:00:00:00:00;1723162449;09/08/24;00:14:09;1.013;-0.027;0.1;0.04764748737215996;-0.012217304669320583;0.0073303827084600925
01:00:0A:00:00:00:00;1723162450;09/08/24;00:14:10;1.012;-0.028;0.102;0.05619959905743599;-0.010995574295520782;0.00855211354792118
01:00:0A:00:00:00:00;1723162451;09/08/24;00:14:11;1.014;-0.026;0.098;0.051312677562236786;-0.015882495790719986;0.0036651913542300463
01:00:0A:00:00:00:00;1723162452;09/08/24;00:14:12;1.014;-0.023;0.098;0.051312677562236786;-0.00855211354792118;0.0073303827084600925
01:00:0A:00:00:00:00;1723162453;09/08/24;00:14:13;1.013;-0.028;0.102;0.04886921867728233;-0.012217304669320583;0.010995574295520782
01:00:0A:00:00:00:00;1723162454;09/08/24;00:14:14;1.013;-0.028;0.101;0.05619959905743599;-0.009773843921720982;0.00855211354792118
01:00:0A:00:00:00:00;1723162455;09/08/24;00:14:15;1.013;-0.029;0.103;0.051312677562236786;-0.013439035043120384;0.0073303827084600925
01:00:0A:00:00:00:00;1723162456;09/08/24;00:14:16;1.013;-0.024;0.097;0.04886921867728233;-0.015882495790719986;0.0024434609804302454
01:00:0A:00:00:00:00;1723162457;09/08/24;00:14:17;1.014;-0.024;0.1;0.04764748737215996;-0.004886921960860491;0.012217304669320583
01:00:0A:00:00:00:00;1723162458;09/08/24;00:14:18;1.013;-0.028;0.103;0.04642575979232788;-0.015882495790719986;0.006108652334660292
01:00:0A:00:00:00:00;1723162459;09/08/24;00:14:19;1.014;-0.027;0.1;0.05253440886735916;-0.0073303827084600925;0.00855211354792118
01:00:0A:00:00:00:00;1723162460;09/08/24;00:14:20;1.013;-0.028;0.102;0.05009094998240471;-0.014660765416920185;0.006108652334660292
01:00:0A:00:00:00:00;1723162461;09/08/24;00:14:21;1.014;-0.025;0.097;0.04886921867728233;-0.013439035043120384;0.0073303827084600925
01:00:0A:00:00:00:00;1723162462;09/08/24;00:14:22;1.013;-0.027;0.102;0.04886921867728233;-0.004886921960860491;0.009773843921720982
01:00:0A:00:00:00:00;1723162463;09/08/24;00:14:23;1.013;-0.027;0.104;0.05009094998240471;-0.014660765416920185;0.0073303827084600925
01:00:0A:00:00:00:00;1723162464;09/08/24;00:14:24;1.013;-0.028;0.101;0.05009094998240471;-0.014660765416920185;0.0073303827084600925
01:00:0A:00:00:00:00;1723162465;09/08/24;00:14:25;1.013;-0.025;0.096;0.05009094998240471;-0.013439035043120384;0.004886921960860491
01:00:0A:00:00:00:00;1723162466;09/08/24;00:14:26;1.013;-0.025;0.101;0.04886921867728233;-0.006108652334660292;0.009773843921720982
01:00:0A:00:00:00:00;1723162467;09/08/24;00:14:27;1.013;-0.026;0.102;0.04642575979232788;-0.015882495790719986;0.006108652334660292
01:00:0A:00:00:00:00;1723162468;09/08/24;00:14:28;1.014;-0.025;0.097;0.04642575979232788;-0.012217304669320583;0.006108652334660292
01:00:0A:00:00:00:00;1723162469;09/08/24;00:14:29;1.014;-0.025;0.102;0.045204028487205505;-0.0073303827084600925;0.00855211354792118
01:00:0A:00:00:00:00;1723162470;09/08/24;00:14:30;1.013;-0.027;0.101;0.040317103266716;-0.014660765416920185;0.00855211354792118
01:00:0A:00:00:00:00;1723162471;09/08/24;00:14:31;1.014;-0.026;0.1;0.04764748737215996;-0.00855211354792118;0.0036651913542300463
01:00:0A:00:00:00:00;1723162472;09/08/24;00:14:32;1.014;-0.024;0.105;0.045204028487205505;-0.013439035043120384;0.009773843921720982
01:00:0A:00:00:00:00;1723162473;09/08/24;00:14:33;1.014;-0.027;0.098;0.04764748737215996;-0.01710422709584236;0.0073303827084600925
01:00:0A:00:00:00:00;1723162474;09/08/24;00:14:34;1.014;-0.026;0.099;0.04886921867728233;-0.0073303827084600925;0.006108652334660292
01:00:0A:00:00:00:00;1723162475;09/08/24;00:14:35;1.013;-0.023;0.102;0.04642575979232788;-0.010995574295520782;0.00855211354792118
01:00:0A:00:00:00:00;1723162476;09/08/24;00:14:36;1.013;-0.025;0.1;0.04398229718208313;-0.013439035043120384;0.00855211354792118
01:00:0A:00:00:00:00;1723162477;09/08/24;00:14:37;1.014;-0.024;0.101;0.04398229718208313;-0.012217304669320583;0.004886921960860491
01:00:0A:00:00:00:00;1723162478;09/08/24;00:14:38;1.014;-0.024;0.1;0.040317103266716;-0.009773843921720982;0.00855211354792118
01:00:0A:00:00:00:00;1723162479;09/08/24;00:14:39;1.014;-0.026;0.101;0.039095375686883926;-0.013439035043120384;0.006108652334660292
01:00:0A:00:00:00:00;1723162480;09/08/24;00:14:40;1.014;-0.026;0.099;0.039095375686883926;-0.010995574295520782;0.004886921960860491
01:00:0A:00:00:00:00;1723162481;09/08/24;00:14:41;1.013;-0.023;0.105;0.04398229718208313;-0.009773843921720982;0.0073303827084600925
01:00:0A:00:00:00:00;1723162482;09/08/24;00:14:42;1.014;-0.025;0.101;0.040317103266716;-0.018325956538319588;0.010995574295520782
01:00:0A:00:00:00:00;1723162483;09/08/24;00:14:43;1.013;-0.026;0.098;0.040317103266716;-0.009773843921720982;0.0036651913542300463
01:00:0A:00:00:00:00;1723162484;09/08/24;00:14:44;1.014;-0.023;0.1;0.03787364438176155;-0.009773843921720982;0.006108652334660292
01:00:0A:00:00:00:00;1723162485;09/08/24;00:14:45;1.014;-0.026;0.1;0.0354301817715168;-0.014660765416920185;0.009773843921720982
01:00:0A:00:00:00:00;1723162486;09/08/24;00:14:46;1.013;-0.023;0.101;0.042760565876960754;-0.009773843921720982;0.0036651913542300463
01:00:0A:00:00:00:00;1723162487;09/08/24;00:14:47;1.014;-0.026;0.1;0.0354301817715168;-0.012217304669320583;0.009773843921720982
01:00:0A:00:00:00:00;1723162488;09/08/24;00:14:48;1.014;-0.025;0.1;0.040317103266716;-0.010995574295520782;0.004886921960860491
01:00:0A:00:00:00:00;1723162489;09/08/24;00:14:49;1.013;-0.025;0.101;0.036651913076639175;-0.010995574295520782;0.006108652334660292
01:00:0A:00:00:00:00;1723162490;09/08/24;00:14:50;1.013;-0.021;0.102;0.04642575979232788;-0.010995574295520782;0.006108652334660292
01:00:0A:00:00:00:00;1723162491;09/08/24;00:14:51;1.014;-0.025;0.101;0.04153883829712868;-0.014660765416920185;0.010995574295520782
01:00:0A:00:00:00:00;1723162492;09/08/24;00:14:52;1.014;-0.028;0.098;0.042760565876960754;-0.013439035043120384;0.006108652334660292
01:00:0A:00:00:00:00;1723162493;09/08/24;00:14:53;1.013;-0.024;0.101;0.04398229718208313;-0.0073303827084600925;0.0036651913542300463
01:00:0A:00:00:00:00;1723162494;09/08/24;00:14:54;1.013;-0.025;0.102;0.03787364438176155;-0.014660765416920185;0.010995574295520782
01:00:0A:00:00:00:00;1723162495;09/08/24;00:14:55;1.013;-0.023;0.102;0.04642575979232788;-0.009773843921720982;0.0036651913542300463
01:00:0A:00:00:00:00;1723162496;09/08/24;00:14:56;1.014;-0.023;0.101;0.036651913076639175;-0.014660765416920185;0.010995574295520782
01:00:0A:00:00:00:00;1723162497;09/08/24;00:14:57;1.014;-0.027;0.098;0.040317103266716;-0.010995574295520782;0.004886921960860491
01:00:0A:00:00:00:00;1723162498;09/08/24;00:14:58;1.013;-0.024;0.102;0.040317103266716;-0.009773843921720982;0.004886921960860491
01:00:0A:00:00:00:00;1723162499;09/08/24;00:14:59;1.014;-0.023;0.101;0.04642575979232788;-0.010995574295520782;0.006108652334660292
01:00:0A:00:00:00:00;1723162500;09/08/24;00:15:00;1.013;-0.022;0.102;0.04398229718208313;-0.013439035043120384;0.010995574295520782
01:00:0A:00:00:00:00;1723162501;09/08/24;00:15:01;1.014;-0.028;0.097;0.04398229718208313;-0.013439035043120384;0.009773843921720982
01:00:0A:00:00:00:00;1723162502;09/08/24;00:15:02;1.012;-0.024;0.101;0.04764748737215996;-0.0073303827084600925;0.0
01:00:0A:00:00:00:00;1723162503;09/08/24;00:15:03;1.014;-0.022;0.101;0.040317103266716;-0.014660765416920185;0.012217304669320583
01:00:0A:00:00:00:00;1723162504;09/08/24;00:15:04;1.013;-0.025;0.099;0.042760565876960754;-0.00855211354792118;0.0012217304902151227
01:00:0A:00:00:00:00;1723162505;09/08/24;00:15:05;1.013;-0.022;0.101;0.03787364438176155;-0.013439035043120384;0.0073303827084600925
01:00:0A:00:00:00:00;1723162506;09/08/24;00:15:06;1.014;-0.027;0.098;0.03787364438176155;-0.013439035043120384;0.009773843921720982
01:00:0A:00:00:00:00;1723162507;09/08/24;00:15:07;1.014;-0.025;0.1;0.040317103266716;-0.009773843921720982;0.0012217304902151227
01:00:0A:00:00:00:00;1723162508;09/08/24;00:15:08;1.013;-0.022;0.102;0.045204028487205505;-0.010995574295520782;0.0036651913542300463
01:00:0A:00:00:00:00;1723162509;09/08/24;00:15:09;1.014;-0.022;0.101;0.04764748737215996;-0.013439035043120384;0.00855211354792118
01:00:0A:00:00:00:00;1723162510;09/08/24;00:15:10;1.015;-0.025;0.099;0.042760565876960754;-0.010995574295520782;0.010995574295520782
01:00:0A:00:00:00:00;1723162511;09/08/24;00:15:11;1.014;-0.027;0.099;0.04642575979232788;-0.012217304669320583;0.0024434609804302454
01:00:0A:00:00:00:00;1723162512;09/08/24;00:15:12;1.013;-0.022;0.099;0.04398229718208313;-0.010995574295520782;0.0073303827084600925
01:00:0A:00:00:00:00;1723162513;09/08/24;00:15:13;1.014;-0.023;0.1;0.05009094998240471;-0.012217304669320583;0.0073303827084600925
01:00:0A:00:00:00:00;1723162514;09/08/24;00:15:14;1.014;-0.023;0.1;0.04642575979232788;-0.010995574295520782;0.00855211354792118
01:00:0A:00:00:00:00;1723162515;09/08/24;00:15:15;1.014;-0.025;0.1;0.04398229718208313;-0.012217304669320583;0.009773843921720982
01:00:0A:00:00:00:00;1723162516;09/08/24;00:15:16;1.014;-0.025;0.099;0.04642575979232788;-0.010995574295520782;0.0036651913542300463
01:00:0A:00:00:00:00;1723162517;09/08/24;00:15:17;1.014;-0.02;0.099;0.051312677562236786;-0.010995574295520782;0.0073303827084600925
01:00:0A:00:00:00:00;1723162518;09/08/24;00:15:18;1.014;-0.024;0.1;0.051312677562236786;-0.012217304669320583;0.009773843921720982
01:00:0A:00:00:00:00;1723162519;09/08/24;00:15:19;1.013;-0.026;0.1;0.04886921867728233;-0.012217304669320583;0.00855211354792118
01:00:0A:00:00:00:00;1723162520;09/08/24;00:15:20;1.014;-0.026;0.1;0.05009094998240471;-0.012217304669320583;0.004886921960860491
01:00:0A:00:00:00:00;1723162521;09/08/24;00:15:21;1.014;-0.022;0.1;0.04764748737215996;-0.012217304669320583;0.0073303827084600925
