Source;Epoch timestamp (UTC);Date;Time (UTC);Accel X (G);Accel Y (G);Accel Z (G);Gyro X (rad/s);Gyro Y (rad/s);Gyro Z (rad/s)
01:00:0A:00:00:00:00;1723852804;17/08/24;00:00:04;0.923;-0.06;0.282;-0.7061601877212524;-0.11484266817569733;-0.09162978082895279
01:00:0A:00:00:00:00;1723852805;17/08/24;00:00:05;0.948;-0.104;-0.124;-0.6035348773002625;0.06230825558304787;-0.322536826133728
01:00:0A:00:00:00:00;1723852806;17/08/24;00:00:06;0.974;0.166;0.255;-0.5241223573684692;0.6976081132888794;-0.22968533635139465
01:00:0A:00:00:00:00;1723852807;17/08/24;00:00:07;0.73;0.036;0.677;-1.2131783962249756;-0.48258352279663086;-0.7073819637298584
01:00:0A:00:00:00:00;1723852808;17/08/24;00:00:08;0.957;0.307;0.063;-1.5625932216644287;-1.0629055500030518;-0.9578366875648499
01:00:0A:00:00:00:00;1723852809;17/08/24;00:00:09;0.86;0.508;0.144;-2.0451767444610596;-1.0665706396102905;0.18570303916931152
01:00:0A:00:00:00:00;1723852810;17/08/24;00:00:10;0.905;0.222;0.155;-3.015230655670166;-0.2919935882091522;0.7953465580940247
01:00:0A:00:00:00:00;1723852811;17/08/24;00:00:11;0.945;0.056;-0.227;-2.4923300743103027;0.08185594528913498;0.12950342893600464
01:00:0A:00:00:00:00;1723852812;17/08/24;00:00:12;0.87;-0.61;-0.303;-1.7617353200912476;-0.28099802136421204;2.27852725982666
01:00:0A:00:00:00:00;1723852813;17/08/24;00:00:13;0.944;-0.018;0.552;-1.2791517972946167;0.6084217429161072;-0.17104226350784302
01:00:0A:00:00:00:00;1723852814;17/08/24;00:00:14;1.073;-0.188;-0.073;-1.0751228332519531;-0.36651912331581116;-0.4508185386657715
01:00:0A:00:00:00:00;1723852815;17/08/24;00:00:15;0.771;-0.398;-0.523;-1.6468926668167114;0.8955284357070923;0.7305948734283447
01:00:0A:00:00:00:00;1723852816;17/08/24;00:00:16;0.9;0.097;0.47;-1.1068878173828125;0.5925393104553223;-1.2583823204040527
01:00:0A:00:00:00:00;1723852817;17/08/24;00:00:17;0.955;0.017;0.397;-2.054950714111328;-0.8967502117156982;-0.9175195693969727
01:00:0A:00:00:00:00;1723852818;17/08/24;00:00:18;0.963;0.338;-0.098;-2.113593816757202;-0.7745770812034607;-0.1514945775270462
01:00:0A:00:00:00:00;1723852819;17/08/24;00:00:19;0.854;-0.22;-0.263;-1.2021827697753906;1.5809191465377808;-0.6609562039375305
01:00:0A:00:00:00:00;1723852820;17/08/24;00:00:20;0.478;0.924;-0.405;-0.8210028409957886;-1.5906931161880493;-0.5412266254425049
01:00:0A:00:00:00:00;1723852821;17/08/24;00:00:21;0.747;0.634;-0.189;-0.616973876953125;0.5693264007568359;1.2095131874084473
01:00:0A:00:00:00:00;1723852822;17/08/24;00:00:22;0.762;-0.32;0.12;-0.4801400899887085;-0.28588491678237915;-0.1466076523065567
01:00:0A:00:00:00:00;1723852823;17/08/24;00:00:23;1.027;0.191;0.108;-0.5522221922874451;-0.35552355647087097;-0.9004153609275818
01:00:0A:00:00:00:00;1723852824;17/08/24;00:00:24;1.033;0.187;-0.208;-1.2486084699630737;-0.21624629199504852;1.3048081398010254
01:00:0A:00:00:00:00;1723852825;17/08/24;00:00:25;0.772;-0.432;0.367;-0.50335294008255;1.5210543870925903;-0.9370672702789307
01:00:0A:00:00:00:00;1723852826;17/08/24;00:00:26;0.902;-0.092;0.454;-1.2168434858322144;-0.02076941914856434;-0.485027015209198
01:00:0A:00:00:00:00;1723852827;17/08/24;00:00:27;0.961;0.193;-0.369;-1.007927656173706;-0.44226640462875366;-0.3176499307155609
01:00:0A:00:00:00:00;1723852828;17/08/24;00:00:28;0.831;-0.553;0.238;-0.4337143301963806;1.2302825450897217;-0.2736676335334778
01:00:0A:00:00:00:00;1723852829;17/08/24;00:00:29;1.009;0.185;0.248;-0.7061601877212524;-0.8319984674453735;-0.7489207983016968
01:00:0A:00:00:00:00;1723852830;17/08/24;00:00:30;0.763;0.398;-0.478;-0.5106833577156067;-0.9162978529930115;-0.24678954482078552
01:00:0A:00:00:00:00;1723852831;17/08/24;00:00:31;0.989;0.153;-0.283;0.05253440886735916;0.18814648687839508;0.7916813492774963
01:00:0A:00:00:00:00;1723852832;17/08/24;00:00:32;0.908;-0.455;-0.121;0.8136724829673767;0.15271630883216858;0.08185594528913498
01:00:0A:00:00:00:00;1723852833;17/08/24;00:00:33;1.016;0.138;-0.32;0.7672467231750488;-0.17104226350784302;0.2565633952617645
01:00:0A:00:00:00:00;1723852834;17/08/24;00:00:34;1.021;0.113;0.307;0.6181955933570862;0.7220427393913269;0.28588491678237915
01:00:0A:00:00:00:00;1723852835;17/08/24;00:00:35;0.93;-0.422;-0.139;0.5119050741195679;-0.37140607833862305;0.6487389206886292
01:00:0A:00:00:00:00;1723852836;17/08/24;00:00:36;0.897;0.447;-0.113;0.807563841342926;0.0012217304902151227;-1.350012183189392
01:00:0A:00:00:00:00;1723852837;17/08/24;00:00:37;1.011;0.036;0.246;0.2675589621067047;0.27977627515792847;0.9431759119033813
01:00:0A:00:00:00:00;1723852838;17/08/24;00:00:38;0.981;-0.17;0.265;0.24190263450145721;-0.5326744914054871;-1.0433577299118042
01:00:0A:00:00:00:00;1723852839;17/08/24;00:00:39;0.962;0.01;0.052;-0.322536826133728;-0.7562511563301086;0.7489207983016968
01:00:0A:00:00:00:00;1723852840;17/08/24;00:00:40;0.995;0.011;-0.014;0.3188716471195221;0.03787364438176155;-0.7159340977668762
01:00:0A:00:00:00:00;1723852841;17/08/24;00:00:41;0.759;0.059;0.774;0.5803219676017761;2.3127357959747314;0.012217304669320583
01:00:0A:00:00:00:00;1723852842;17/08/24;00:00:42;0.964;0.19;-0.56;0.322536826133728;-0.8478808999061584;0.09285151958465576
01:00:0A:00:00:00:00;1723852843;17/08/24;00:00:43;0.868;0.373;0.403;0.7623597979545593;0.22602014243602753;-0.23457224667072296
01:00:0A:00:00:00:00;1723852844;17/08/24;00:00:44;0.94;-0.325;0.192;-0.4202752709388733;-0.11972958594560623;0.6511822938919067
01:00:0A:00:00:00:00;1723852845;17/08/24;00:00:45;0.955;0.07;0.34;-0.7843509316444397;0.3946189284324646;-1.0824532508850098
01:00:0A:00:00:00:00;1723852846;17/08/24;00:00:46;0.987;0.211;0.111;-1.2754865884780884;-0.7159340977668762;0.17470745742321014
01:00:0A:00:00:00:00;1723852847;17/08/24;00:00:47;0.943;-0.208;-0.442;-2.389704942703247;-0.05619959905743599;1.1044443845748901
01:00:0A:00:00:00:00;1723852848;17/08/24;00:00:48;0.969;-0.523;0.074;-1.4856243133544922;0.6084217429161072;0.2528982162475586
01:00:0A:00:00:00:00;1723852849;17/08/24;00:00:49;0.968;-0.138;0.35;-1.323134183883667;0.2382374405860901;-0.4508185386657715
01:00:0A:00:00:00:00;1723852850;17/08/24;00:00:50;1.009;-0.097;-0.056;-2.919935703277588;-0.18081611394882202;0.28466320037841797
01:00:0A:00:00:00:00;1723852851;17/08/24;00:00:51;0.878;-0.334;-0.433;-1.4355332851409912;0.8491026759147644;0.8124507665634155
01:00:0A:00:00:00:00;1723852852;17/08/24;00:00:52;0.913;-0.434;0.391;-0.9615018963813782;0.6646214127540588;-0.4862487316131592
01:00:0A:00:00:00:00;1723852853;17/08/24;00:00:53;0.86;-0.459;0.438;-0.836885392665863;-0.3347541391849518;-0.960280179977417
01:00:0A:00:00:00:00;1723852854;17/08/24;00:00:54;0.92;0.332;-0.092;-0.7648032903671265;-0.2590068578720093;0.5167919993400574
01:00:0A:00:00:00:00;1723852855;17/08/24;00:00:55;0.987;-0.05;-0.226;-0.4703662395477295;0.42149701714515686;0.2626720666885376
01:00:0A:00:00:00:00;1723852856;17/08/24;00:00:56;0.751;0.033;0.858;-0.15271630883216858;0.13561207056045532;-0.7281513810157776
01:00:0A:00:00:00:00;1723852857;17/08/24;00:00:57;0.76;-0.197;-0.698;-0.37629297375679016;-0.49846604466438293;0.7599163055419922
01:00:0A:00:00:00:00;1723852858;17/08/24;00:00:58;0.863;-0.44;-0.103;0.8735373020172119;0.9053022265434265;-0.8185594081878662
01:00:0A:00:00:00:00;1723852859;17/08/24;00:00:59;0.916;0.251;-0.031;0.43249258399009705;-0.6927211880683899;0.5265658497810364
01:00:0A:00:00:00:00;1723852860;17/08/24;00:01:00;0.919;-0.333;0.173;0.5387831330299377;0.7244861721992493;0.3017674386501312
01:00:0A:00:00:00:00;1723852861;17/08/24;00:01:01;0.949;0.283;-0.111;0.04153883829712868;-0.9932668209075928;-0.3152064383029938
01:00:0A:00:00:00:00;1723852862;17/08/24;00:01:02;0.978;-0.249;0.162;-0.16004669666290283;1.0030406713485718;0.3933972120285034
01:00:0A:00:00:00:00;1723852863;17/08/24;00:01:03;1.013;0.199;0.169;-0.8356636166572571;-0.10751228034496307;1.0592403411865234
01:00:0A:00:00:00:00;1723852864;17/08/24;00:01:04;0.916;-0.421;-0.237;-0.15393804013729095;-0.10384709388017654;-0.4312708377838135
01:00:0A:00:00:00:00;1723852865;17/08/24;00:01:05;1.029;0.071;0.2;0.2541199326515198;0.2125810980796814;-0.5412266254425049
01:00:0A:00:00:00:00;1723852866;17/08/24;00:01:06;0.976;0.217;0.383;-0.1869247555732727;-0.19547687470912933;0.42271876335144043
01:00:0A:00:00:00:00;1723852867;17/08/24;00:01:07;0.894;0.112;-0.39;0.04886921867728233;-0.20525071024894714;-0.35185837745666504
01:00:0A:00:00:00:00;1723852868;17/08/24;00:01:08;0.883;0.09;0.617;0.20525071024894714;1.5344934463500977;-0.21624629199504852
01:00:0A:00:00:00:00;1723852869;17/08/24;00:01:09;0.982;-0.271;0.189;-0.07941248267889023;-0.5962044596672058;-0.35063666105270386
01:00:0A:00:00:00:00;1723852870;17/08/24;00:01:10;0.994;0.188;-0.127;-0.07330382615327835;0.33597588539123535;-0.18936821818351746
01:00:0A:00:00:00:00;1723852871;17/08/24;00:01:11;0.863;-0.639;0.085;0.5180137157440186;0.20525071024894714;0.1258382350206375
01:00:0A:00:00:00:00;1723852872;17/08/24;00:01:12;1.013;0.171;-0.158;0.7904595732688904;0.030543262138962746;-0.42760565876960754
01:00:0A:00:00:00:00;1723852873;17/08/24;00:01:13;0.921;0.225;0.351;0.48747044801712036;0.36529743671417236;0.3017674386501312
01:00:0A:00:00:00:00;1723852874;17/08/24;00:01:14;0.954;-0.192;-0.227;0.3995058536529541;-0.17959438264369965;0.014660765416920185
01:00:0A:00:00:00:00;1723852875;17/08/24;00:01:15;1.017;-0.097;0.075;0.7464773058891296;0.5265658497810364;-0.22602014243602753
01:00:0A:00:00:00:00;1723852876;17/08/24;00:01:16;0.901;0.317;-0.095;-0.35552355647087097;-0.2528982162475586;1.4025466442108154
01:00:0A:00:00:00:00;1723852877;17/08/24;00:01:17;0.927;-0.228;0.068;-0.06841690838336945;-0.08429940044879913;-0.5448917746543884
01:00:0A:00:00:00:00;1723852878;17/08/24;00:01:18;0.865;-0.273;-0.469;0.30054569244384766;0.7733554244041443;-0.7855727076530457
01:00:0A:00:00:00:00;1723852879;17/08/24;00:01:19;0.991;0.304;0.148;0.29688048362731934;0.5009095072746277;0.2382374405860901
01:00:0A:00:00:00:00;1723852880;17/08/24;00:01:20;1.111;-0.155;-0.008;0.18570303916931152;-0.2687807083129883;0.18936821818351746
01:00:0A:00:00:00:00;1723852881;17/08/24;00:01:21;0.97;0.06;0.182;0.24434609711170197;0.20525071024894714;-0.05253440886735916
01:00:0A:00:00:00:00;1723852882;17/08/24;00:01:22;0.938;-0.039;0.012;0.13439035415649414;-0.32009339332580566;0.14049901068210602
01:00:0A:00:00:00:00;1723852883;17/08/24;00:01:23;0.995;0.025;0.009;0.3286454975605011;0.5351179242134094;-0.1319468915462494
01:00:0A:00:00:00:00;1723852884;17/08/24;00:01:24;0.894;0.148;0.45;-0.3188716471195221;-0.48380526900291443;0.10873401165008545
01:00:0A:00:00:00:00;1723852885;17/08/24;00:01:25;0.99;0.038;0.247;0.09773843735456467;-0.07452555745840073;0.10506881773471832
01:00:0A:00:00:00:00;1723852886;17/08/24;00:01:26;0.981;0.043;0.0;-0.021991148591041565;-0.15271630883216858;-0.3543018400669098
01:00:0A:00:00:00:00;1723852887;17/08/24;00:01:27;0.995;0.081;0.084;-0.06230825558304787;0.251676470041275;0.0036651913542300463
01:00:0A:00:00:00:00;1723852888;17/08/24;00:01:28;1.01;-0.108;0.085;-0.19425514340400696;-0.19547687470912933;0.080634206533432
01:00:0A:00:00:00:00;1723852889;17/08/24;00:01:29;0.996;-0.103;-0.084;-0.04153883829712868;-0.028099799528717995;0.07819075137376785
01:00:0A:00:00:00:00;1723852890;17/08/24;00:01:30;0.986;-0.012;0.063;0.09896016865968704;0.24556782841682434;-0.1918116807937622
01:00:0A:00:00:00:00;1723852891;17/08/24;00:01:31;1.013;0.101;0.063;-0.08918632566928864;-0.26511549949645996;0.17470745742321014
01:00:0A:00:00:00:00;1723852892;17/08/24;00:01:32;1.033;-0.137;-0.068;0.0659734457731247;0.14416420459747314;-0.0354301817715168
01:00:0A:00:00:00:00;1723852893;17/08/24;00:01:33;1.03;0.104;0.136;0.02932153083384037;0.03298672288656235;-0.13439035415649414
01:00:0A:00:00:00:00;1723852894;17/08/24;00:01:34;1.024;-0.019;0.004;-0.08674286305904388;-0.0757472887635231;0.1563815027475357
01:00:0A:00:00:00:00;1723852895;17/08/24;00:01:35;1.009;-0.058;0.071;0.01710422709584236;0.18081611394882202;-0.06108652427792549
01:00:0A:00:00:00:00;1723852896;17/08/24;00:01:36;1.027;0.02;0.111;-0.10873401165008545;-0.08552113175392151;0.03420845419168472
01:00:0A:00:00:00:00;1723852897;17/08/24;00:01:37;1.033;-0.079;0.019;-0.11728612333536148;-0.05009094998240471;0.07208210229873657
01:00:0A:00:00:00:00;1723852898;17/08/24;00:01:38;1.005;-0.037;0.088;-0.0757472887635231;0.08185594528913498;-0.059864792972803116
01:00:0A:00:00:00:00;1723852899;17/08/24;00:01:39;0.976;-0.04;0.071;-0.14905111491680145;-0.15271630883216858;-0.006108652334660292
01:00:0A:00:00:00:00;1723852900;17/08/24;00:01:40;1.022;-0.078;0.044;-0.09896016865968704;-0.0012217304902151227;-0.015882495790719986
01:00:0A:00:00:00:00;1723852901;17/08/24;00:01:41;1.048;-0.012;0.162;-0.6133087277412415;-0.014660765416920185;-0.039095375686883926
01:00:0A:00:00:00:00;1723852902;17/08/24;00:01:42;1.05;-0.045;0.071;-0.5913175940513611;-0.013439035043120384;0.010995574295520782
01:00:0A:00:00:00:00;1723852903;17/08/24;00:01:43;1.011;0.127;-0.018;-0.5864306092262268;-0.11484266817569733;-0.3494149148464203
01:00:0A:00:00:00:00;1723852904;17/08/24;00:01:44;0.994;0.034;0.126;-0.6670648455619812;-0.021991148591041565;0.47769662737846375
01:00:0A:00:00:00:00;1723852905;17/08/24;00:01:45;1.002;-0.17;-0.024;-0.39828410744667053;0.1014036238193512;-0.322536826133728
01:00:0A:00:00:00:00;1723852906;17/08/24;00:01:46;1.012;0.122;0.251;-0.4288274049758911;0.06230825558304787;-0.05009094998240471
01:00:0A:00:00:00:00;1723852907;17/08/24;00:01:47;1.035;-0.13;0.017;-0.5070181488990784;-0.19303341209888458;0.07941248267889023
01:00:0A:00:00:00:00;1723852908;17/08/24;00:01:48;1.004;-0.026;0.035;-0.31642818450927734;0.2272418737411499;-0.05009094998240471
01:00:0A:00:00:00:00;1723852909;17/08/24;00:01:49;0.979;-0.064;0.124;-0.39217546582221985;-0.09285151958465576;0.07941248267889023
01:00:0A:00:00:00:00;1723852910;17/08/24;00:01:50;1.0;-0.06;0.045;-0.3445279896259308;-0.09773843735456467;-0.18814648687839508
01:00:0A:00:00:00:00;1723852911;17/08/24;00:01:51;1.022;-0.006;0.082;-0.313984751701355;0.05864306166768074;0.10506881773471832
01:00:0A:00:00:00:00;1723852912;17/08/24;00:01:52;1.017;-0.122;0.109;-0.32620203495025635;-0.05009094998240471;0.036651913076639175
01:00:0A:00:00:00:00;1723852913;17/08/24;00:01:53;1.027;-0.002;0.05;-0.2626720666885376;0.009773843921720982;-0.10751228034496307
01:00:0A:00:00:00:00;1723852914;17/08/24;00:01:54;1.026;-0.001;0.11;-0.294437050819397;0.05742133408784866;0.045204028487205505
01:00:0A:00:00:00:00;1723852915;17/08/24;00:01:55;1.023;-0.103;0.043;-0.29565879702568054;-0.021991148591041565;0.013439035043120384
01:00:0A:00:00:00:00;1723852916;17/08/24;00:01:56;1.01;0.019;0.064;-0.26022857427597046;0.012217304669320583;-0.09040805697441101
01:00:0A:00:00:00:00;1723852917;17/08/24;00:01:57;0.985;-0.01;0.114;-0.3384193480014801;-0.09285151958465576;0.10018189996480942
01:00:0A:00:00:00:00;1723852918;17/08/24;00:01:58;0.997;-0.047;0.078;-0.2871066629886627;0.006108652334660292;-0.12828169763088226
01:00:0A:00:00:00:00;1723852919;17/08/24;00:01:59;1.031;-0.002;0.107;-0.31154125928878784;0.014660765416920185;-0.0073303827084600925
01:00:0A:00:00:00:00;1723852920;17/08/24;00:02:00;1.053;-0.062;0.071;-0.3298672139644623;0.01710422709584236;0.04398229718208313
01:00:0A:00:00:00:00;1723852921;17/08/24;00:02:01;1.027;-0.018;0.073;-0.2993239760398865;0.018325956538319588;-0.05619959905743599
01:00:0A:00:00:00:00;1723852922;17/08/24;00:02:02;0.976;-0.029;0.081;-0.3066543638706207;0.0012217304902151227;0.02321287989616394
01:00:0A:00:00:00:00;1723852923;17/08/24;00:02:03;0.975;-0.029;0.07;-0.2871066629886627;-0.02932153083384037;-0.06841690838336945
01:00:0A:00:00:00:00;1723852924;17/08/24;00:02:04;1.027;-0.022;0.07;-0.27977627515792847;-0.04886921867728233;0.03420845419168472
01:00:0A:00:00:00:00;1723852925;17/08/24;00:02:05;1.052;-0.102;0.084;-0.24556782841682434;-0.015882495790719986;-0.03787364438176155
01:00:0A:00:00:00:00;1723852926;17/08/24;00:02:06;1.048;0.011;0.098;-0.2480112910270691;0.0;-0.02932153083384037
01:00:0A:00:00:00:00;1723852927;17/08/24;00:02:07;1.001;-0.067;0.062;-0.27488934993743896;-0.06475171446800232;0.15027284622192383
01:00:0A:00:00:00:00;1723852928;17/08/24;00:02:08;0.978;-0.024;0.077;-0.2028072476387024;0.036651913076639175;-0.09162978082895279
01:00:0A:00:00:00:00;1723852929;17/08/24;00:02:09;0.984;-0.005;0.08;-0.24434609711170197;-0.07452555745840073;0.024434609338641167
01:00:0A:00:00:00:00;1723852930;17/08/24;00:02:10;1.016;-0.057;0.069;-0.19547687470912933;0.015882495790719986;-0.05253440886735916
01:00:0A:00:00:00:00;1723852931;17/08/24;00:02:11;1.044;-0.04;0.105;-0.1869247555732727;0.036651913076639175;-0.021991148591041565
01:00:0A:00:00:00:00;1723852932;17/08/24;00:02:12;1.049;-0.038;0.083;-0.2125810980796814;-0.0354301817715168;0.0073303827084600925
01:00:0A:00:00:00:00;1723852933;17/08/24;00:02:13;1.021;-0.035;0.053;-0.2028072476387024;-0.025656338781118393;0.03787364438176155
01:00:0A:00:00:00:00;1723852934;17/08/24;00:02:14;1.002;-0.046;0.098;-0.19425514340400696;-0.004886921960860491;-0.010995574295520782
01:00:0A:00:00:00:00;1723852935;17/08/24;00:02:15;0.997;-0.048;0.092;-0.21135938167572021;-0.09773843735456467;-0.07330382615327835
01:00:0A:00:00:00:00;1723852936;17/08/24;00:02:16;1.024;0.003;-0.009;0.1820378452539444;-0.05619959905743599;0.006108652334660292
01:00:0A:00:00:00:00;1723852937;17/08/24;00:02:17;1.057;-0.053;0.11;0.4813618063926697;0.161268413066864;0.039095375686883926
01:00:0A:00:00:00:00;1723852938;17/08/24;00:02:18;1.011;-0.005;0.059;0.4141666293144226;-0.05009094998240471;0.018325956538319588
01:00:0A:00:00:00:00;1723852939;17/08/24;00:02:19;1.006;-0.05;0.073;0.375071257352829;-0.02321287989616394;0.05619959905743599
01:00:0A:00:00:00:00;1723852940;17/08/24;00:02:20;1.007;-0.037;0.078;0.34697145223617554;-0.05253440886735916;0.006108652334660292
01:00:0A:00:00:00:00;1723852941;17/08/24;00:02:21;1.013;-0.046;0.05;0.33719760179519653;-0.018325956538319588;0.028099799528717995
01:00:0A:00:00:00:00;1723852942;17/08/24;00:02:22;1.017;-0.052;0.084;0.3286454975605011;0.0073303827084600925;0.04642575979232788
01:00:0A:00:00:00:00;1723852943;17/08/24;00:02:23;1.018;-0.034;0.083;0.2932153046131134;-0.039095375686883926;0.08674286305904388
01:00:0A:00:00:00:00;1723852944;17/08/24;00:02:24;1.017;-0.03;0.072;0.2981022298336029;0.02076941914856434;0.039095375686883926
01:00:0A:00:00:00:00;1723852945;17/08/24;00:02:25;1.023;-0.018;0.074;0.29688048362731934;-0.009773843921720982;-0.045204028487205505
01:00:0A:00:00:00:00;1723852946;17/08/24;00:02:26;1.028;-0.037;0.085;0.2541199326515198;-0.0354301817715168;0.03420845419168472
01:00:0A:00:00:00:00;1723852947;17/08/24;00:02:27;1.017;-0.064;0.075;0.24923302233219147;-0.004886921960860491;0.036651913076639175
01:00:0A:00:00:00:00;1723852948;17/08/24;00:02:28;0.998;-0.029;0.087;0.23945917189121246;0.006108652334660292;0.004886921960860491
01:00:0A:00:00:00:00;1723852949;17/08/24;00:02:29;0.988;-0.029;0.07;0.2076941877603531;-0.030543262138962746;0.04153883829712868
01:00:0A:00:00:00:00;1723852950;17/08/24;00:02:30;1.002;-0.041;0.071;0.21380282938480377;-0.04764748737215996;-0.039095375686883926
01:00:0A:00:00:00:00;1723852951;17/08/24;00:02:31;1.029;-0.019;0.073;0.20036379992961884;-0.025656338781118393;-0.013439035043120384
01:00:0A:00:00:00:00;1723852952;17/08/24;00:02:32;1.029;-0.054;0.084;0.18325956165790558;-0.01710422709584236;0.009773843921720982
01:00:0A:00:00:00:00;1723852953;17/08/24;00:02:33;1.019;-0.045;0.081;0.16859880089759827;-0.04398229718208313;0.009773843921720982
01:00:0A:00:00:00:00;1723852954;17/08/24;00:02:34;1.016;-0.034;0.081;0.16859880089759827;-0.0012217304902151227;0.02076941914856434
01:00:0A:00:00:00:00;1723852955;17/08/24;00:02:35;1.015;-0.043;0.084;0.1563815027475357;-0.004886921960860491;0.025656338781118393
01:00:0A:00:00:00:00;1723852956;17/08/24;00:02:36;1.007;-0.04;0.085;0.14905111491680145;-0.012217304669320583;0.02076941914856434
01:00:0A:00:00:00:00;1723852957;17/08/24;00:02:37;1.0;-0.028;0.081;0.13805554807186127;-0.02076941914856434;0.012217304669320583
01:00:0A:00:00:00:00;1723852958;17/08/24;00:02:38;1.008;-0.025;0.084;0.14294245839118958;0.004886921960860491;-0.05009094998240471
01:00:0A:00:00:00:00;1723852959;17/08/24;00:02:39;1.025;-0.037;0.088;0.11728612333536148;-0.01710422709584236;-0.024434609338641167
01:00:0A:00:00:00:00;1723852960;17/08/24;00:02:40;1.033;-0.066;0.077;0.10873401165008545;-0.019547687843441963;0.018325956538319588
01:00:0A:00:00:00:00;1723852961;17/08/24;00:02:41;1.023;-0.039;0.088;0.10506881773471832;0.0012217304902151227;0.05742133408784866
01:00:0A:00:00:00:00;1723852962;17/08/24;00:02:42;1.006;-0.02;0.081;0.08796459436416626;-0.018325956538319588;0.04398229718208313
01:00:0A:00:00:00:00;1723852963;17/08/24;00:02:43;1.007;-0.02;0.07;0.09773843735456467;0.004886921960860491;-0.03787364438176155
01:00:0A:00:00:00:00;1723852964;17/08/24;00:02:44;1.011;-0.034;0.069;0.08918632566928864;-0.02932153083384037;-0.04153883829712868
01:00:0A:00:00:00:00;1723852965;17/08/24;00:02:45;1.02;-0.046;0.068;0.07696902006864548;-0.02687807008624077;0.01710422709584236
01:00:0A:00:00:00:00;1723852966;17/08/24;00:02:46;1.017;-0.04;0.076;0.07452555745840073;-0.021991148591041565;0.0073303827084600925
01:00:0A:00:00:00:00;1723852967;17/08/24;00:02:47;1.014;-0.022;0.072;0.06719517707824707;-0.045204028487205505;-0.019547687843441963
01:00:0A:00:00:00:00;1723852968;17/08/24;00:02:48;1.01;-0.037;0.078;0.06475171446800232;-0.03787364438176155;-0.028099799528717995
01:00:0A:00:00:00:00;1723852969;17/08/24;00:02:49;1.013;-0.05;0.09;0.05864306166768074;-0.024434609338641167;-0.0073303827084600925
01:00:0A:00:00:00:00;1723852970;17/08/24;00:02:50;1.016;-0.048;0.081;0.05253440886735916;0.0073303827084600925;0.02687807008624077
01:00:0A:00:00:00:00;1723852971;17/08/24;00:02:51;1.023;-0.024;0.071;0.045204028487205505;-0.010995574295520782;0.02687807008624077
01:00:0A:00:00:00:00;1723852972;17/08/24;00:02:52;1.025;-0.037;0.077;0.04398229718208313;-0.03176499158143997;-0.009773843921720982
01:00:0A:00:00:00:00;1723852973;17/08/24;00:02:53;1.024;-0.039;0.077;0.04398229718208313;-0.02932153083384037;-0.02687807008624077
01:00:0A:00:00:00:00;1723852974;17/08/24;00:02:54;1.015;-0.056;0.088;0.036651913076639175;0.0024434609804302454;0.045204028487205505
01:00:0A:00:00:00:00;1723852975;17/08/24;00:02:55;1.007;-0.042;0.073;0.03787364438176155;0.00855211354792118;0.05009094998240471
01:00:0A:00:00:00:00;1723852976;17/08/24;00:02:56;0.995;-0.02;0.063;0.039095375686883926;-0.015882495790719986;0.006108652334660292
01:00:0A:00:00:00:00;1723852977;17/08/24;00:02:57;1.004;-0.026;0.075;0.040317103266716;-0.025656338781118393;-0.024434609338641167
01:00:0A:00:00:00:00;1723852978;17/08/24;00:02:58;1.03;-0.039;0.086;0.036651913076639175;-0.02932153083384037;-0.019547687843441963
01:00:0A:00:00:00:00;1723852979;17/08/24;00:02:59;1.036;-0.045;0.084;0.036651913076639175;-0.00855211354792118;0.006108652334660292
01:00:0A:00:00:00:00;1723852980;17/08/24;00:03:00;1.02;-0.03;0.079;0.036651913076639175;0.012217304669320583;0.01710422709584236
01:00:0A:00:00:00:00;1723852981;17/08/24;00:03:01;1.005;-0.037;0.081;0.030543262138962746;-0.006108652334660292;0.00855211354792118
01:00:0A:00:00:00:00;1723852982;17/08/24;00:03:02;1.01;-0.029;0.074;0.03298672288656235;-0.006108652334660292;-0.012217304669320583
01:00:0A:00:00:00:00;1723852983;17/08/24;00:03:03;1.016;-0.025;0.078;0.030543262138962746;-0.004886921960860491;-0.0024434609804302454
01:00:0A:00:00:00:00;1723852984;17/08/24;00:03:04;1.016;-0.04;0.079;0.02687807008624077;-0.012217304669320583;0.004886921960860491
01:00:0A:00:00:00:00;1723852985;17/08/24;00:03:05;1.013;-0.035;0.078;0.028099799528717995;-0.010995574295520782;-0.013439035043120384
01:00:0A:00:00:00:00;1723852986;17/08/24;00:03:06;1.015;-0.036;0.078;0.024434609338641167;-0.0024434609804302454;0.014660765416920185
01:00:0A:00:00:00:00;1723852987;17/08/24;00:03:07;1.014;-0.037;0.077;0.02076941914856434;-0.0036651913542300463;0.02076941914856434
01:00:0A:00:00:00:00;1723852988;17/08/24;00:03:08;1.01;-0.031;0.074;0.018325956538319588;-0.03420845419168472;-0.0073303827084600925
01:00:0A:00:00:00:00;1723852989;17/08/24;00:03:09;1.009;-0.036;0.084;0.018325956538319588;-0.0012217304902151227;0.009773843921720982
01:00:0A:00:00:00:00;1723852990;17/08/24;00:03:10;1.012;-0.039;0.085;0.013439035043120384;-0.006108652334660292;-0.006108652334660292
01:00:0A:00:00:00:00;1723852991;17/08/24;00:03:11;1.019;-0.039;0.074;0.013439035043120384;0.02321287989616394;0.0012217304902151227
01:00:0A:00:00:00:00;1723852992;17/08/24;00:03:12;1.023;-0.035;0.072;0.0036651913542300463;-0.009773843921720982;0.0036651913542300463
01:00:0A:00:00:00:00;1723852993;17/08/24;00:03:13;1.021;-0.047;0.078;-0.006108652334660292;-0.025656338781118393;0.010995574295520782
01:00:0A:00:00:00:00;1723852994;17/08/24;00:03:14;1.019;-0.035;0.083;-0.00855211354792118;-0.02076941914856434;0.004886921960860491
01:00:0A:00:00:00:00;1723852995;17/08/24;00:03:15;1.02;-0.039;0.088;-0.013439035043120384;0.00855211354792118;0.025656338781118393
01:00:0A:00:00:00:00;1723852996;17/08/24;00:03:16;1.015;-0.04;0.08;-0.014660765416920185;0.0;0.010995574295520782
01:00:0A:00:00:00:00;1723852997;17/08/24;00:03:17;1.005;-0.026;0.078;-0.013439035043120384;-0.0024434609804302454;-0.00855211354792118
01:00:0A:00:00:00:00;1723852998;17/08/24;00:03:18;1.005;-0.038;0.081;-0.02321287989616394;-0.012217304669320583;0.014660765416920185
01:00:0A:00:00:00:00;1723852999;17/08/24;00:03:19;1.01;-0.035;0.081;-0.019547687843441963;0.0024434609804302454;-0.012217304669320583
01:00:0A:00:00:00:00;1723853000;17/08/24;00:03:20;1.017;-0.029;0.08;-0.025656338781118393;-0.0073303827084600925;-0.009773843921720982
01:00:0A:00:00:00:00;1723853001;17/08/24;00:03:21;1.024;-0.037;0.075;-0.02932153083384037;-0.012217304669320583;-0.006108652334660292
01:00:0A:00:00:00:00;1723853002;17/08/24;00:03:22;1.023;-0.044;0.083;-0.030543262138962746;-0.015882495790719986;-0.013439035043120384
01:00:0A:00:00:00:00;1723853003;17/08/24;00:03:23;1.019;-0.04;0.079;-0.0354301817715168;-0.012217304669320583;0.013439035043120384
01:00:0A:00:00:00:00;1723853004;17/08/24;00:03:24;1.018;-0.039;0.081;-0.036651913076639175;0.006108652334660292;0.028099799528717995
01:00:0A:00:00:00:00;1723853005;17/08/24;00:03:25;1.017;-0.034;0.074;-0.036651913076639175;-0.015882495790719986;0.009773843921720982
01:00:0A:00:00:00:00;1723853006;17/08/24;00:03:26;1.009;-0.03;0.082;-0.03420845419168472;-0.0024434609804302454;0.0012217304902151227
01:00:0A:00:00:00:00;1723853007;17/08/24;00:03:27;1.004;-0.032;0.076;-0.040317103266716;-0.014660765416920185;0.0024434609804302454
01:00:0A:00:00:00:00;1723853008;17/08/24;00:03:28;1.005;-0.038;0.077;-0.03787364438176155;-0.0024434609804302454;-0.006108652334660292
01:00:0A:00:00:00:00;1723853009;17/08/24;00:03:29;1.01;-0.031;0.079;-0.04642575979232788;-0.021991148591041565;-0.004886921960860491
01:00:0A:00:00:00:00;1723853010;17/08/24;00:03:30;1.013;-0.036;0.074;-0.051312677562236786;-0.025656338781118393;-0.004886921960860491
01:00:0A:00:00:00:00;1723853011;17/08/24;00:03:31;1.01;-0.033;0.08;-0.04642575979232788;-0.014660765416920185;-0.013439035043120384
01:00:0A:00:00:00:00;1723853012;17/08/24;00:03:32;1.018;-0.032;0.08;-0.04886921867728233;-0.021991148591041565;-0.0024434609804302454
01:00:0A:00:00:00:00;1723853013;17/08/24;00:03:33;1.025;-0.042;0.077;-0.04398229718208313;-0.010995574295520782;-0.0036651913542300463
01:00:0A:00:00:00:00;1723853014;17/08/24;00:03:34;1.027;-0.039;0.084;-0.045204028487205505;0.0;0.01710422709584236
01:00:0A:00:00:00:00;1723853015;17/08/24;00:03:35;1.012;-0.033;0.08;-0.04764748737215996;-0.012217304669320583;0.019547687843441963
01:00:0A:00:00:00:00;1723853016;17/08/24;00:03:36;1.008;-0.024;0.076;-0.045204028487205505;-0.0073303827084600925;0.010995574295520782
01:00:0A:00:00:00:00;1723853017;17/08/24;00:03:37;1.008;-0.033;0.079;-0.042760565876960754;-0.015882495790719986;-0.02321287989616394
01:00:0A:00:00:00:00;1723853018;17/08/24;00:03:38;1.013;-0.04;0.08;-0.04398229718208313;-0.019547687843441963;-0.00855211354792118
01:00:0A:00:00:00:00;1723853019;17/08/24;00:03:39;1.014;-0.042;0.078;-0.042760565876960754;-0.010995574295520782;0.013439035043120384
01:00:0A:00:00:00:00;1723853020;17/08/24;00:03:40;1.01;-0.031;0.078;-0.04153883829712868;-0.010995574295520782;0.015882495790719986
01:00:0A:00:00:00:00;1723853021;17/08/24;00:03:41;1.014;-0.024;0.084;-0.04153883829712868;-0.02076941914856434;-0.00855211354792118
01:00:0A:00:00:00:00;1723853022;17/08/24;00:03:42;1.017;-0.029;0.079;-0.03420845419168472;-0.015882495790719986;-0.028099799528717995
01:00:0A:00:00:00:00;1723853023;17/08/24;00:03:43;1.019;-0.04;0.086;-0.036651913076639175;-0.010995574295520782;-0.0036651913542300463
01:00:0A:00:00:00:00;1723853024;17/08/24;00:03:44;1.018;-0.037;0.081;-0.036651913076639175;-0.00855211354792118;0.013439035043120384
01:00:0A:00:00:00:00;1723853025;17/08/24;00:03:45;1.013;-0.033;0.081;-0.03176499158143997;-0.004886921960860491;0.010995574295520782
01:00:0A:00:00:00:00;1723853026;17/08/24;00:03:46;1.011;-0.032;0.081;-0.02932153083384037;-0.010995574295520782;-0.015882495790719986
01:00:0A:00:00:00:00;1723853027;17/08/24;00:03:47;1.01;-0.059;0.069;-0.021991148591041565;-0.021991148591041565;0.039095375686883926
01:00:0A:00:00:00:00;1723853028;17/08/24;00:03:48;1.01;-0.103;0.099;0.1270599663257599;0.0036651913542300463;0.04764748737215996
01:00:0A:00:00:00:00;1723853029;17/08/24;00:03:49;1.012;-0.058;0.115;0.28099802136421204;-0.025656338781118393;0.004886921960860491
01:00:0A:00:00:00:00;1723853030;17/08/24;00:03:50;1.016;-0.006;0.057;0.25534167885780334;-0.07941248267889023;-0.006108652334660292
01:00:0A:00:00:00:00;1723853031;17/08/24;00:03:51;1.015;-0.04;0.068;0.2724458873271942;0.05864306166768074;0.03420845419168472
01:00:0A:00:00:00:00;1723853032;17/08/24;00:03:52;1.009;-0.038;0.115;0.2382374405860901;-0.03298672288656235;0.0036651913542300463
01:00:0A:00:00:00:00;1723853033;17/08/24;00:03:53;1.014;-0.028;0.051;0.21502456068992615;-0.05619959905743599;0.04153883829712868
01:00:0A:00:00:00:00;1723853034;17/08/24;00:03:54;1.016;-0.046;0.066;0.2528982162475586;0.04764748737215996;-0.004886921960860491
01:00:0A:00:00:00:00;1723853035;17/08/24;00:03:55;1.016;-0.016;0.1;0.2076941877603531;-0.05742133408784866;0.012217304669320583
01:00:0A:00:00:00:00;1723853036;17/08/24;00:03:56;1.015;-0.05;0.063;0.1918116807937622;-0.05253440886735916;0.051312677562236786
01:00:0A:00:00:00:00;1723853037;17/08/24;00:03:57;1.012;-0.037;0.09;0.22357667982578278;0.039095375686883926;-0.030543262138962746
01:00:0A:00:00:00:00;1723853038;17/08/24;00:03:58;1.011;-0.015;0.086;0.1771509200334549;-0.03298672288656235;0.02076941914856434
01:00:0A:00:00:00:00;1723853039;17/08/24;00:03:59;1.012;-0.061;0.059;0.17470745742321014;-0.021991148591041565;0.036651913076639175
01:00:0A:00:00:00:00;1723853040;17/08/24;00:04:00;1.012;-0.036;0.084;0.18570303916931152;-0.018325956538319588;-0.025656338781118393
01:00:0A:00:00:00:00;1723853041;17/08/24;00:04:01;1.013;-0.015;0.086;0.15515977144241333;-0.036651913076639175;0.042760565876960754
01:00:0A:00:00:00:00;1723853042;17/08/24;00:04:02;1.016;-0.051;0.076;0.16371189057826996;0.0024434609804302454;0.018325956538319588
01:00:0A:00:00:00:00;1723853043;17/08/24;00:04:03;1.016;-0.036;0.086;0.16371189057826996;-0.015882495790719986;-0.03298672288656235
01:00:0A:00:00:00:00;1723853044;17/08/24;00:04:04;1.017;-0.023;0.072;0.14049901068210602;-0.025656338781118393;0.04398229718208313
01:00:0A:00:00:00:00;1723853045;17/08/24;00:04:05;1.016;-0.049;0.082;0.1466076523065567;0.0012217304902151227;0.028099799528717995
01:00:0A:00:00:00:00;1723853046;17/08/24;00:04:06;1.014;-0.022;0.085;0.14416420459747314;-0.021991148591041565;-0.02932153083384037
01:00:0A:00:00:00:00;1723853047;17/08/24;00:04:07;1.012;-0.028;0.066;0.1319468915462494;-0.01710422709584236;0.02687807008624077
01:00:0A:00:00:00:00;1723853048;17/08/24;00:04:08;1.007;-0.052;0.088;0.13805554807186127;0.0036651913542300463;0.0073303827084600925
01:00:0A:00:00:00:00;1723853049;17/08/24;00:04:09;1.009;-0.029;0.076;0.12339477241039276;-0.036651913076639175;0.0036651913542300463
01:00:0A:00:00:00:00;1723853050;17/08/24;00:04:10;1.015;-0.026;0.068;0.1258382350206375;-0.0036651913542300463;0.02687807008624077
01:00:0A:00:00:00:00;1723853051;17/08/24;00:04:11;1.016;-0.04;0.085;0.1270599663257599;-0.0073303827084600925;-0.004886921960860491
01:00:0A:00:00:00:00;1723853052;17/08/24;00:04:12;1.017;-0.03;0.08;0.11362093687057495;-0.045204028487205505;-0.009773843921720982
01:00:0A:00:00:00:00;1723853053;17/08/24;00:04:13;1.018;-0.037;0.074;0.11850785464048386;0.0036651913542300463;0.02687807008624077
01:00:0A:00:00:00:00;1723853054;17/08/24;00:04:14;1.016;-0.041;0.089;0.1160643920302391;-0.004886921960860491;0.0073303827084600925
01:00:0A:00:00:00:00;1723853055;17/08/24;00:04:15;1.017;-0.027;0.074;0.10384709388017654;-0.030543262138962746;0.0073303827084600925
01:00:0A:00:00:00:00;1723853056;17/08/24;00:04:16;1.015;-0.038;0.074;0.10873401165008545;0.0012217304902151227;0.02076941914856434
01:00:0A:00:00:00:00;1723853057;17/08/24;00:04:17;1.011;-0.036;0.087;0.10506881773471832;-0.013439035043120384;0.0
01:00:0A:00:00:00:00;1723853058;17/08/24;00:04:18;1.012;-0.029;0.075;0.09529497474431992;-0.021991148591041565;0.010995574295520782
01:00:0A:00:00:00:00;1723853059;17/08/24;00:04:19;1.011;-0.035;0.071;0.10018189996480942;-0.0036651913542300463;0.00855211354792118
01:00:0A:00:00:00:00;1723853060;17/08/24;00:04:20;1.012;-0.033;0.088;0.09529497474431992;-0.013439035043120384;0.0
01:00:0A:00:00:00:00;1723853061;17/08/24;00:04:21;1.011;-0.032;0.071;0.08429940044879913;-0.030543262138962746;0.00855211354792118
01:00:0A:00:00:00:00;1723853062;17/08/24;00:04:22;1.016;-0.036;0.079;0.09285151958465576;0.006108652334660292;0.0024434609804302454
01:00:0A:00:00:00:00;1723853063;17/08/24;00:04:23;1.016;-0.033;0.082;0.08185594528913498;-0.01710422709584236;0.0024434609804302454
01:00:0A:00:00:00:00;1723853064;17/08/24;00:04:24;1.013;-0.033;0.073;0.07696902006864548;-0.02687807008624077;0.013439035043120384
01:00:0A:00:00:00:00;1723853065;17/08/24;00:04:25;1.01;-0.034;0.078;0.08429940044879913;-0.0024434609804302454;0.0036651913542300463
01:00:0A:00:00:00:00;1723853066;17/08/24;00:04:26;1.01;-0.03;0.083;0.07696902006864548;-0.018325956538319588;0.0012217304902151227
01:00:0A:00:00:00:00;1723853067;17/08/24;00:04:27;1.016;-0.036;0.073;0.07330382615327835;-0.021991148591041565;0.0073303827084600925
01:00:0A:00:00:00:00;1723853068;17/08/24;00:04:28;1.019;-0.04;0.077;0.080634206533432;-0.0012217304902151227;0.0024434609804302454
01:00:0A:00:00:00:00;1723853069;17/08/24;00:04:29;1.015;-0.03;0.081;0.07208210229873657;-0.018325956538319588;0.012217304669320583
01:00:0A:00:00:00:00;1723853070;17/08/24;00:04:30;1.012;-0.038;0.071;0.07330382615327835;-0.015882495790719986;0.012217304669320583
01:00:0A:00:00:00:00;1723853071;17/08/24;00:04:31;1.012;-0.036;0.078;0.07819075137376785;-0.00855211354792118;0.0024434609804302454
01:00:0A:00:00:00:00;1723853072;17/08/24;00:04:32;1.013;-0.032;0.081;0.07208210229873657;-0.014660765416920185;0.0012217304902151227
01:00:0A:00:00:00:00;1723853073;17/08/24;00:04:33;1.015;-0.04;0.075;0.0708603635430336;-0.01710422709584236;0.009773843921720982
01:00:0A:00:00:00:00;1723853074;17/08/24;00:04:34;1.014;-0.038;0.079;0.0757472887635231;-0.006108652334660292;-0.006108652334660292
01:00:0A:00:00:00:00;1723853075;17/08/24;00:04:35;1.019;-0.036;0.081;0.06719517707824707;-0.02076941914856434;0.010995574295520782
01:00:0A:00:00:00:00;1723853076;17/08/24;00:04:36;1.02;-0.04;0.076;0.06719517707824707;-0.01710422709584236;0.012217304669320583
01:00:0A:00:00:00:00;1723853077;17/08/24;00:04:37;1.018;-0.036;0.08;0.07208210229873657;-0.0024434609804302454;-0.0024434609804302454
01:00:0A:00:00:00:00;1723853078;17/08/24;00:04:38;1.013;-0.034;0.079;0.06475171446800232;-0.013439035043120384;0.010995574295520782
01:00:0A:00:00:00:00;1723853079;17/08/24;00:04:39;1.014;-0.04;0.075;0.0659734457731247;-0.012217304669320583;0.009773843921720982
01:00:0A:00:00:00:00;1723853080;17/08/24;00:04:40;1.015;-0.036;0.078;0.0659734457731247;-0.013439035043120384;0.009773843921720982
01:00:0A:00:00:00:00;1723853081;17/08/24;00:04:41;1.015;-0.029;0.079;0.06230825558304787;-0.014660765416920185;0.0073303827084600925
01:00:0A:00:00:00:00;1723853082;17/08/24;00:04:42;1.013;-0.039;0.076;0.06230825558304787;-0.009773843921720982;0.0
01:00:0A:00:00:00:00;1723853083;17/08/24;00:04:43;1.01;-0.036;0.08;0.06108652427792549;-0.013439035043120384;-0.004886921960860491
01:00:0A:00:00:00:00;1723853084;17/08/24;00:04:44;1.013;-0.038;0.079;0.05375614017248154;-0.015882495790719986;0.01710422709584236
01:00:0A:00:00:00:00;1723853085;17/08/24;00:04:45;1.016;-0.039;0.08;0.05375614017248154;-0.012217304669320583;0.01710422709584236
01:00:0A:00:00:00:00;1723853086;17/08/24;00:04:46;1.018;-0.029;0.082;0.05253440886735916;-0.010995574295520782;0.0012217304902151227
01:00:0A:00:00:00:00;1723853087;17/08/24;00:04:47;1.016;-0.038;0.079;0.05009094998240471;-0.013439035043120384;0.0012217304902151227
01:00:0A:00:00:00:00;1723853088;17/08/24;00:04:48;1.015;-0.04;0.08;0.04886921867728233;-0.009773843921720982;0.00855211354792118
01:00:0A:00:00:00:00;1723853089;17/08/24;00:04:49;1.013;-0.037;0.08;0.04764748737215996;-0.00855211354792118;0.010995574295520782
01:00:0A:00:00:00:00;1723853090;17/08/24;00:04:50;1.011;-0.028;0.078;0.042760565876960754;-0.013439035043120384;0.018325956538319588
01:00:0A:00:00:00:00;1723853091;17/08/24;00:04:51;1.014;-0.034;0.078;0.045204028487205505;-0.012217304669320583;-0.004886921960860491
01:00:0A:00:00:00:00;1723853092;17/08/24;00:04:52;1.014;-0.035;0.081;0.04153883829712868;-0.013439035043120384;-0.0012217304902151227
01:00:0A:00:00:00:00;1723853093;17/08/24;00:04:53;1.016;-0.04;0.079;0.040317103266716;-0.012217304669320583;0.009773843921720982
01:00:0A:00:00:00:00;1723853094;17/08/24;00:04:54;1.014;-0.032;0.072;0.11239919811487198;-0.04398229718208313;-0.021991148591041565
01:00:0A:00:00:00:00;1723853095;17/08/24;00:04:55;1.018;-0.007;0.038;0.2382374405860901;-0.03176499158143997;0.01710422709584236
01:00:0A:00:00:00:00;1723853096;17/08/24;00:04:56;1.016;-0.042;0.063;0.3481931686401367;0.02687807008624077;0.018325956538319588
01:00:0A:00:00:00:00;1723853097;17/08/24;00:04:57;1.013;-0.027;0.109;0.30543261766433716;-0.019547687843441963;0.018325956538319588
01:00:0A:00:00:00:00;1723853098;17/08/24;00:04:58;1.014;-0.04;0.063;0.27488934993743896;-0.04764748737215996;0.045204028487205505
01:00:0A:00:00:00:00;1723853099;17/08/24;00:04:59;1.014;-0.042;0.073;0.2993239760398865;0.028099799528717995;-0.009773843921720982
01:00:0A:00:00:00:00;1723853100;17/08/24;00:05:00;1.012;-0.016;0.086;0.2638937830924988;-0.036651913076639175;0.02321287989616394
01:00:0A:00:00:00:00;1723853101;17/08/24;00:05:01;1.014;-0.046;0.072;0.251676470041275;-0.02932153083384037;0.04764748737215996
01:00:0A:00:00:00:00;1723853102;17/08/24;00:05:02;1.015;-0.038;0.081;0.26633724570274353;-0.0012217304902151227;-0.024434609338641167
01:00:0A:00:00:00:00;1723853103;17/08/24;00:05:03;1.016;-0.016;0.079;0.24434609711170197;-0.018325956538319588;0.018325956538319588
01:00:0A:00:00:00:00;1723853104;17/08/24;00:05:04;1.013;-0.056;0.075;0.23945917189121246;-0.004886921960860491;0.04153883829712868
01:00:0A:00:00:00:00;1723853105;17/08/24;00:05:05;1.013;-0.038;0.083;0.24068090319633484;-0.024434609338641167;-0.00855211354792118
01:00:0A:00:00:00:00;1723853106;17/08/24;00:05:06;1.015;-0.019;0.068;0.22846359014511108;-0.014660765416920185;0.0354301817715168
01:00:0A:00:00:00:00;1723853107;17/08/24;00:05:07;1.013;-0.044;0.083;0.22968533635139465;-0.0012217304902151227;0.02076941914856434
01:00:0A:00:00:00:00;1723853108;17/08/24;00:05:08;1.013;-0.033;0.082;0.21868975460529327;-0.04398229718208313;-0.010995574295520782
01:00:0A:00:00:00:00;1723853109;17/08/24;00:05:09;1.012;-0.034;0.069;0.2174680233001709;-0.006108652334660292;0.025656338781118393
01:00:0A:00:00:00:00;1723853110;17/08/24;00:05:10;1.014;-0.041;0.09;0.21502456068992615;0.0036651913542300463;0.018325956538319588
01:00:0A:00:00:00:00;1723853111;17/08/24;00:05:11;1.014;-0.034;0.079;0.19914205372333527;-0.04398229718208313;0.004886921960860491
01:00:0A:00:00:00:00;1723853112;17/08/24;00:05:12;1.017;-0.037;0.068;0.20525071024894714;-0.006108652334660292;0.01710422709584236
01:00:0A:00:00:00:00;1723853113;17/08/24;00:05:13;1.015;-0.037;0.095;0.20036379992961884;-0.0036651913542300463;0.012217304669320583
01:00:0A:00:00:00:00;1723853114;17/08/24;00:05:14;1.015;-0.034;0.079;0.18448130786418915;-0.03176499158143997;0.014660765416920185
01:00:0A:00:00:00:00;1723853115;17/08/24;00:05:15;1.015;-0.037;0.07;0.19303341209888458;0.004886921960860491;0.013439035043120384
01:00:0A:00:00:00:00;1723853116;17/08/24;00:05:16;1.013;-0.034;0.088;0.18448130786418915;-0.014660765416920185;0.010995574295520782
01:00:0A:00:00:00:00;1723853117;17/08/24;00:05:17;1.013;-0.033;0.076;0.17104226350784302;-0.03176499158143997;0.02321287989616394
01:00:0A:00:00:00:00;1723853118;17/08/24;00:05:18;1.015;-0.04;0.077;0.17959438264369965;0.0;0.004886921960860491
01:00:0A:00:00:00:00;1723853119;17/08/24;00:05:19;1.014;-0.029;0.085;0.16982054710388184;-0.013439035043120384;0.0024434609804302454
01:00:0A:00:00:00:00;1723853120;17/08/24;00:05:20;1.016;-0.039;0.074;0.1576032191514969;-0.02321287989616394;0.028099799528717995
01:00:0A:00:00:00:00;1723853121;17/08/24;00:05:21;1.016;-0.04;0.079;0.16371189057826996;-0.006108652334660292;0.0024434609804302454
01:00:0A:00:00:00:00;1723853122;17/08/24;00:05:22;1.016;-0.027;0.082;0.15271630883216858;-0.01710422709584236;0.012217304669320583
01:00:0A:00:00:00:00;1723853123;17/08/24;00:05:23;1.014;-0.039;0.078;0.14538592100143433;-0.018325956538319588;0.018325956538319588
01:00:0A:00:00:00:00;1723853124;17/08/24;00:05:24;1.014;-0.039;0.079;0.14905111491680145;-0.00855211354792118;-0.0012217304902151227
01:00:0A:00:00:00:00;1723853125;17/08/24;00:05:25;1.016;-0.03;0.081;0.13927726447582245;-0.01710422709584236;0.010995574295520782
01:00:0A:00:00:00:00;1723853126;17/08/24;00:05:26;1.015;-0.039;0.077;0.13439035415649414;-0.010995574295520782;0.02076941914856434
01:00:0A:00:00:00:00;1723853127;17/08/24;00:05:27;1.016;-0.038;0.081;0.1368338167667389;-0.015882495790719986;-0.0036651913542300463
01:00:0A:00:00:00:00;1723853128;17/08/24;00:05:28;1.015;-0.03;0.079;0.12828169763088226;-0.01710422709584236;0.013439035043120384
01:00:0A:00:00:00:00;1723853129;17/08/24;00:05:29;1.016;-0.04;0.08;0.1270599663257599;-0.00855211354792118;0.019547687843441963
01:00:0A:00:00:00:00;1723853130;17/08/24;00:05:30;1.016;-0.034;0.079;0.1258382350206375;-0.012217304669320583;0.0024434609804302454
01:00:0A:00:00:00:00;1723853131;17/08/24;00:05:31;1.016;-0.031;0.077;0.11972958594560623;-0.014660765416920185;0.014660765416920185
01:00:0A:00:00:00:00;1723853132;17/08/24;00:05:32;1.013;-0.037;0.078;0.11972958594560623;-0.012217304669320583;0.013439035043120384
01:00:0A:00:00:00:00;1723853133;17/08/24;00:05:33;1.012;-0.033;0.081;0.1160643920302391;-0.015882495790719986;0.0012217304902151227
01:00:0A:00:00:00:00;1723853134;17/08/24;00:05:34;1.013;-0.033;0.076;0.11362093687057495;-0.013439035043120384;0.010995574295520782
01:00:0A:00:00:00:00;1723853135;17/08/24;00:05:35;1.016;-0.037;0.081;0.11362093687057495;-0.0073303827084600925;0.009773843921720982
01:00:0A:00:00:00:00;1723853136;17/08/24;00:05:36;1.016;-0.035;0.078;0.10873401165008545;-0.021991148591041565;0.004886921960860491
01:00:0A:00:00:00:00;1723853137;17/08/24;00:05:37;1.016;-0.033;0.079;0.10751228034496307;-0.012217304669320583;0.010995574295520782
01:00:0A:00:00:00:00;1723853138;17/08/24;00:05:38;1.015;-0.037;0.08;0.1062905490398407;-0.009773843921720982;0.00855211354792118
01:00:0A:00:00:00:00;1723853139;17/08/24;00:05:39;1.015;-0.035;0.078;0.10384709388017654;-0.01710422709584236;0.0036651913542300463
01:00:0A:00:00:00:00;1723853140;17/08/24;00:05:40;1.015;-0.035;0.075;0.1014036238193512;-0.012217304669320583;0.014660765416920185
01:00:0A:00:00:00:00;1723853141;17/08/24;00:05:41;1.011;-0.037;0.081;0.1014036238193512;-0.010995574295520782;0.00855211354792118
01:00:0A:00:00:00:00;1723853142;17/08/24;00:05:42;1.014;-0.034;0.078;0.09651670604944229;-0.018325956538319588;0.006108652334660292
01:00:0A:00:00:00:00;1723853143;17/08/24;00:05:43;1.016;-0.038;0.077;0.09896016865968704;-0.00855211354792118;0.0073303827084600925
01:00:0A:00:00:00:00;1723853144;17/08/24;00:05:44;1.016;-0.037;0.081;0.09529497474431992;-0.013439035043120384;0.00855211354792118
01:00:0A:00:00:00:00;1723853145;17/08/24;00:05:45;1.015;-0.037;0.078;0.09285151958465576;-0.015882495790719986;0.00855211354792118
01:00:0A:00:00:00:00;1723853146;17/08/24;00:05:46;1.012;-0.034;0.079;0.09407324343919754;-0.010995574295520782;0.010995574295520782
01:00:0A:00:00:00:00;1723853147;17/08/24;00:05:47;1.014;-0.037;0.081;0.09285151958465576;-0.012217304669320583;0.0036651913542300463
01:00:0A:00:00:00:00;1723853148;17/08/24;00:05:48;1.016;-0.036;0.08;0.08918632566928864;-0.015882495790719986;0.00855211354792118
01:00:0A:00:00:00:00;1723853149;17/08/24;00:05:49;1.016;-0.038;0.079;0.09040805697441101;-0.0073303827084600925;0.009773843921720982
01:00:0A:00:00:00:00;1723853150;17/08/24;00:05:50;1.013;-0.035;0.081;0.08674286305904388;-0.009773843921720982;0.00855211354792118
01:00:0A:00:00:00:00;1723853151;17/08/24;00:05:51;1.012;-0.034;0.077;0.08185594528913498;-0.01710422709584236;0.009773843921720982
01:00:0A:00:00:00:00;1723853152;17/08/24;00:05:52;1.014;-0.034;0.079;0.08307767659425735;-0.00855211354792118;0.0036651913542300463
01:00:0A:00:00:00:00;1723853153;17/08/24;00:05:53;1.016;-0.034;0.081;0.07696902006864548;-0.013439035043120384;0.00855211354792118
01:00:0A:00:00:00:00;1723853154;17/08/24;00:05:54;1.016;-0.035;0.077;0.0757472887635231;-0.012217304669320583;0.004886921960860491
01:00:0A:00:00:00:00;1723853155;17/08/24;00:05:55;1.015;-0.035;0.08;0.07452555745840073;-0.00855211354792118;0.00855211354792118
01:00:0A:00:00:00:00;1723853156;17/08/24;00:05:56;1.014;-0.035;0.079;0.0708603635430336;-0.015882495790719986;0.006108652334660292
01:00:0A:00:00:00:00;1723853157;17/08/24;00:05:57;1.016;-0.036;0.078;0.06963863223791122;-0.012217304669320583;0.009773843921720982
01:00:0A:00:00:00:00;1723853158;17/08/24;00:05:58;1.016;-0.033;0.08;0.06841690838336945;-0.010995574295520782;0.0036651913542300463
01:00:0A:00:00:00:00;1723853159;17/08/24;00:05:59;1.014;-0.035;0.078;0.0659734457731247;-0.012217304669320583;0.006108652334660292
01:00:0A:00:00:00:00;1723853160;17/08/24;00:06:00;1.014;-0.035;0.077;0.06352998316287994;-0.013439035043120384;0.006108652334660292
01:00:0A:00:00:00:00;1723853161;17/08/24;00:06:01;1.015;-0.035;0.078;0.06352998316287994;-0.00855211354792118;0.0073303827084600925
01:00:0A:00:00:00:00;1723853162;17/08/24;00:06:02;1.016;-0.036;0.079;0.06108652427792549;-0.013439035043120384;0.006108652334660292
01:00:0A:00:00:00:00;1723853163;17/08/24;00:06:03;1.015;-0.035;0.077;0.05864306166768074;-0.013439035043120384;0.0073303827084600925
01:00:0A:00:00:00:00;1723853164;17/08/24;00:06:04;1.013;-0.035;0.08;0.05864306166768074;-0.012217304669320583;0.0024434609804302454
01:00:0A:00:00:00:00;1723853165;17/08/24;00:06:05;1.013;-0.033;0.079;0.05497787147760391;-0.012217304669320583;0.009773843921720982
01:00:0A:00:00:00:00;1723853166;17/08/24;00:06:06;1.015;-0.036;0.078;0.05375614017248154;-0.009773843921720982;0.004886921960860491
01:00:0A:00:00:00:00;1723853167;17/08/24;00:06:07;1.016;-0.033;0.079;0.05253440886735916;-0.010995574295520782;0.006108652334660292
01:00:0A:00:00:00:00;1723853168;17/08/24;00:06:08;1.016;-0.037;0.08;0.04886921867728233;-0.015882495790719986;0.006108652334660292
01:00:0A:00:00:00:00;1723853169;17/08/24;00:06:09;1.014;-0.036;0.079;0.04764748737215996;-0.010995574295520782;0.006108652334660292
01:00:0A:00:00:00:00;1723853170;17/08/24;00:06:10;1.014;-0.035;0.08;0.04642575979232788;-0.00855211354792118;0.00855211354792118
01:00:0A:00:00:00:00;1723853171;17/08/24;00:06:11;1.016;-0.034;0.077;0.045204028487205505;-0.010995574295520782;0.006108652334660292
01:00:0A:00:00:00:00;1723853172;17/08/24;00:06:12;1.013;-0.034;0.079;0.04398229718208313;-0.012217304669320583;0.0073303827084600925
01:00:0A:00:00:00:00;1723853173;17/08/24;00:06:13;1.014;-0.035;0.079;0.042760565876960754;-0.013439035043120384;0.0036651913542300463
01:00:0A:00:00:00:00;1723853174;17/08/24;00:06:14;1.014;-0.036;0.08;0.04153883829712868;-0.009773843921720982;0.00855211354792118
01:00:0A:00:00:00:00;1723853175;17/08/24;00:06:15;1.014;-0.034;0.078;0.040317103266716;-0.009773843921720982;0.006108652334660292
01:00:0A:00:00:00:00;1723853176;17/08/24;00:06:16;1.015;-0.035;0.077;0.040317103266716;-0.010995574295520782;0.004886921960860491
01:00:0A:00:00:00:00;1723853177;17/08/24;00:06:17;1.013;-0.034;0.078;0.03787364438176155;-0.015882495790719986;0.0073303827084600925
01:00:0A:00:00:00:00;1723853178;17/08/24;00:06:18;1.015;-0.037;0.079;0.03787364438176155;-0.009773843921720982;0.0036651913542300463
01:00:0A:00:00:00:00;1723853179;17/08/24;00:06:19;1.014;-0.034;0.08;0.036651913076639175;-0.009773843921720982;0.006108652334660292
01:00:0A:00:00:00:00;1723853180;17/08/24;00:06:20;1.014;-0.036;0.075;0.036651913076639175;-0.009773843921720982;0.006108652334660292
01:00:0A:00:00:00:00;1723853181;17/08/24;00:06:21;1.015;-0.035;0.077;0.0354301817715168;-0.014660765416920185;0.004886921960860491
01:00:0A:00:00:00:00;1723853182;17/08/24;00:06:22;1.015;-0.034;0.079;0.03420845419168472;-0.013439035043120384;0.006108652334660292
01:00:0A:00:00:00:00;1723853183;17/08/24;00:06:23;1.014;-0.036;0.08;0.03420845419168472;-0.010995574295520782;0.004886921960860491
01:00:0A:00:00:00:00;1723853184;17/08/24;00:06:24;1.015;-0.034;0.078;0.03298672288656235;-0.009773843921720982;0.006108652334660292
01:00:0A:00:00:00:00;1723853185;17/08/24;00:06:25;1.015;-0.036;0.078;0.03298672288656235;-0.012217304669320583;0.0024434609804302454
01:00:0A:00:00:00:00;1723853186;17/08/24;00:06:26;1.014;-0.035;0.078;0.03176499158143997;-0.014660765416920185;0.006108652334660292
01:00:0A:00:00:00:00;1723853187;17/08/24;00:06:27;1.015;-0.036;0.08;0.030543262138962746;-0.010995574295520782;0.004886921960860491
01:00:0A:00:00:00:00;1723853188;17/08/24;00:06:28;1.014;-0.035;0.077;0.030543262138962746;-0.012217304669320583;0.0036651913542300463
01:00:0A:00:00:00:00;1723853189;17/08/24;00:06:29;1.016;-0.034;0.079;0.030543262138962746;-0.010995574295520782;0.006108652334660292
01:00:0A:00:00:00:00;1723853190;17/08/24;00:06:30;1.015;-0.035;0.078;0.02932153083384037;-0.014660765416920185;0.0036651913542300463
01:00:0A:00:00:00:00;1723853191;17/08/24;00:06:31;1.014;-0.035;0.08;0.028099799528717995;-0.012217304669320583;0.006108652334660292
01:00:0A:00:00:00:00;1723853192;17/08/24;00:06:32;1.015;-0.036;0.078;0.028099799528717995;-0.012217304669320583;0.004886921960860491
01:00:0A:00:00:00:00;1723853193;17/08/24;00:06:33;1.014;-0.034;0.078;0.028099799528717995;-0.009773843921720982;0.004886921960860491
01:00:0A:00:00:00:00;1723853194;17/08/24;00:06:34;1.015;-0.035;0.078;0.025656338781118393;-0.013439035043120384;0.004886921960860491
01:00:0A:00:00:00:00;1723853195;17/08/24;00:06:35;1.014;-0.034;0.079;0.025656338781118393;-0.012217304669320583;0.004886921960860491
01:00:0A:00:00:00:00;1723853196;17/08/24;00:06:36;1.015;-0.035;0.08;0.024434609338641167;-0.012217304669320583;0.006108652334660292
01:00:0A:00:00:00:00;1723853197;17/08/24;00:06:37;1.015;-0.035;0.079;0.024434609338641167;-0.00855211354792118;0.0036651913542300463
01:00:0A:00:00:00:00;1723853198;17/08/24;00:06:38;1.014;-0.035;0.079;0.02321287989616394;-0.013439035043120384;0.004886921960860491
01:00:0A:00:00:00:00;1723853199;17/08/24;00:06:39;1.014;-0.036;0.078;0.02321287989616394;-0.010995574295520782;0.004886921960860491
01:00:0A:00:00:00:00;1723853200;17/08/24;00:06:40;1.015;-0.035;0.079;0.021991148591041565;-0.013439035043120384;0.004886921960860491
01:00:0A:00:00:00:00;1723853201;17/08/24;00:06:41;1.015;-0.034;0.08;0.021991148591041565;-0.00855211354792118;0.004886921960860491
01:00:0A:00:00:00:00;1723853202;17/08/24;00:06:42;1.014;-0.035;0.08;0.02076941914856434;-0.012217304669320583;0.0036651913542300463
01:00:0A:00:00:00:00;1723853203;17/08/24;00:06:43;1.013;-0.035;0.078;0.02076941914856434;-0.012217304669320583;0.004886921960860491
01:00:0A:00:00:00:00;1723853204;17/08/24;00:06:44;1.013;-0.036;0.08;0.019547687843441963;-0.012217304669320583;0.004886921960860491
01:00:0A:00:00:00:00;1723853205;17/08/24;00:06:45;1.015;-0.035;0.08;0.018325956538319588;-0.010995574295520782;0.0036651913542300463
01:00:0A:00:00:00:00;1723853206;17/08/24;00:06:46;1.015;-0.035;0.079;0.018325956538319588;-0.009773843921720982;0.0036651913542300463
01:00:0A:00:00:00:00;1723853207;17/08/24;00:06:47;1.015;-0.036;0.078;0.01710422709584236;-0.013439035043120384;0.004886921960860491
01:00:0A:00:00:00:00;1723853208;17/08/24;00:06:48;1.014;-0.035;0.08;0.015882495790719986;-0.012217304669320583;0.004886921960860491
01:00:0A:00:00:00:00;1723853209;17/08/24;00:06:49;1.013;-0.034;0.079;0.014660765416920185;-0.012217304669320583;0.0036651913542300463
01:00:0A:00:00:00:00;1723853210;17/08/24;00:06:50;1.015;-0.035;0.08;0.014660765416920185;-0.00855211354792118;0.0024434609804302454
01:00:0A:00:00:00:00;1723853211;17/08/24;00:06:51;1.015;-0.035;0.078;0.013439035043120384;-0.010995574295520782;0.0036651913542300463
01:00:0A:00:00:00:00;1723853212;17/08/24;00:06:52;1.015;-0.034;0.079;0.012217304669320583;-0.012217304669320583;0.004886921960860491
01:00:0A:00:00:00:00;1723853213;17/08/24;00:06:53;1.013;-0.034;0.08;0.010995574295520782;-0.013439035043120384;0.004886921960860491
01:00:0A:00:00:00:00;1723853214;17/08/24;00:06:54;1.014;-0.034;0.079;0.010995574295520782;-0.009773843921720982;0.0024434609804302454
01:00:0A:00:00:00:00;1723853215;17/08/24;00:06:55;1.014;-0.035;0.08;0.009773843921720982;-0.010995574295520782;0.0024434609804302454
01:00:0A:00:00:00:00;1723853216;17/08/24;00:06:56;1.016;-0.036;0.078;0.00855211354792118;-0.010995574295520782;0.0036651913542300463
01:00:0A:00:00:00:00;1723853217;17/08/24;00:06:57;1.016;-0.035;0.081;0.0073303827084600925;-0.013439035043120384;0.004886921960860491
01:00:0A:00:00:00:00;1723853218;17/08/24;00:06:58;1.015;-0.035;0.078;0.006108652334660292;-0.010995574295520782;0.0036651913542300463
01:00:0A:00:00:00:00;1723853219;17/08/24;00:06:59;1.014;-0.035;0.079;0.004886921960860491;-0.010995574295520782;0.0024434609804302454
01:00:0A:00:00:00:00;1723853220;17/08/24;00:07:00;1.015;-0.035;0.078;0.004886921960860491;-0.009773843921720982;0.0024434609804302454
01:00:0A:00:00:00:00;1723853221;17/08/24;00:07:01;1.015;-0.035;0.079;0.0024434609804302454;-0.012217304669320583;0.004886921960860491
01:00:0A:00:00:00:00;1723853222;17/08/24;00:07:02;1.014;-0.036;0.078;0.0024434609804302454;-0.010995574295520782;0.0036651913542300463
01:00:0A:00:00:00:00;1723853223;17/08/24;00:07:03;1.015;-0.035;0.079;0.0012217304902151227;-0.010995574295520782;0.0036651913542300463
01:00:0A:00:00:00:00;1723853224;17/08/24;00:07:04;1.015;-0.036;0.078;0.0012217304902151227;-0.010995574295520782;0.0036651913542300463
01:00:0A:00:00:00:00;1723853225;17/08/24;00:07:05;1.015;-0.036;0.079;0.0;-0.009773843921720982;0.0036651913542300463
01:00:0A:00:00:00:00;1723853226;17/08/24;00:07:06;1.015;-0.035;0.079;-0.0012217304902151227;-0.012217304669320583;0.004886921960860491
01:00:0A:00:00:00:00;1723853227;17/08/24;00:07:07;1.014;-0.035;0.079;0.0;-0.009773843921720982;0.0036651913542300463
01:00:0A:00:00:00:00;1723853228;17/08/24;00:07:08;1.014;-0.035;0.078;-0.0012217304902151227;-0.013439035043120384;0.0024434609804302454
01:00:0A:00:00:00:00;1723853229;17/08/24;00:07:09;1.016;-0.035;0.081;-0.0012217304902151227;-0.009773843921720982;0.0024434609804302454
01:00:0A:00:00:00:00;1723853230;17/08/24;00:07:10;1.015;-0.036;0.077;-0.0024434609804302454;-0.010995574295520782;0.004886921960860491
01:00:0A:00:00:00:00;1723853231;17/08/24;00:07:11;1.014;-0.034;0.078;-0.0012217304902151227;-0.00855211354792118;0.0036651913542300463
01:00:0A:00:00:00:00;1723853232;17/08/24;00:07:12;1.014;-0.035;0.078;-0.0012217304902151227;-0.012217304669320583;0.0024434609804302454
01:00:0A:00:00:00:00;1723853233;17/08/24;00:07:13;1.015;-0.035;0.079;-0.0012217304902151227;-0.010995574295520782;0.0024434609804302454
01:00:0A:00:00:00:00;1723853234;17/08/24;00:07:14;1.016;-0.036;0.079;-0.0012217304902151227;-0.012217304669320583;0.0036651913542300463
01:00:0A:00:00:00:00;1723853235;17/08/24;00:07:15;1.015;-0.035;0.078;-0.0012217304902151227;-0.009773843921720982;0.0036651913542300463
01:00:0A:00:00:00:00;1723853236;17/08/24;00:07:16;1.013;-0.035;0.079;-0.0012217304902151227;-0.010995574295520782;0.0036651913542300463
01:00:0A:00:00:00:00;1723853237;17/08/24;00:07:17;1.013;-0.035;0.078;-0.0012217304902151227;-0.010995574295520782;0.0024434609804302454
01:00:0A:00:00:00:00;1723853238;17/08/24;00:07:18;1.014;-0.035;0.078;-0.0012217304902151227;-0.013439035043120384;0.0036651913542300463
01:00:0A:00:00:00:00;1723853239;17/08/24;00:07:19;1.015;-0.036;0.079;0.0;-0.009773843921720982;0.0024434609804302454
01:00:0A:00:00:00:00;1723853240;17/08/24;00:07:20;1.015;-0.034;0.079;0.0;-0.010995574295520782;0.0036651913542300463
01:00:0A:00:00:00:00;1723853241;17/08/24;00:07:21;1.014;-0.035;0.077;0.0;-0.009773843921720982;0.0024434609804302454
01:00:0A:00:00:00:00;1723853242;17/08/24;00:07:22;1.014;-0.035;0.079;0.0;-0.012217304669320583;0.0036651913542300463
01:00:0A:00:00:00:00;1723853243;17/08/24;00:07:23;1.015;-0.036;0.079;0.0;-0.010995574295520782;0.0036651913542300463
01:00:0A:00:00:00:00;1723853244;17/08/24;00:07:24;1.014;-0.034;0.078;0.0012217304902151227;-0.009773843921720982;0.0036651913542300463
01:00:0A:00:00:00:00;1723853245;17/08/24;00:07:25;1.014;-0.036;0.078;0.0012217304902151227;-0.010995574295520782;0.0036651913542300463
01:00:0A:00:00:00:00;1723853246;17/08/24;00:07:26;1.014;-0.036;0.078;0.0012217304902151227;-0.010995574295520782;0.0024434609804302454
01:00:0A:00:00:00:00;1723853247;17/08/24;00:07:27;1.014;-0.035;0.078;0.0012217304902151227;-0.013439035043120384;0.0036651913542300463
01:00:0A:00:00:00:00;1723853248;17/08/24;00:07:28;1.014;-0.035;0.08;0.0024434609804302454;-0.00855211354792118;0.0036651913542300463
01:00:0A:00:00:00:00;1723853249;17/08/24;00:07:29;1.015;-0.036;0.078;0.0024434609804302454;-0.010995574295520782;0.0036651913542300463
01:00:0A:00:00:00:00;1723853250;17/08/24;00:07:30;1.014;-0.035;0.078;0.0024434609804302454;-0.009773843921720982;0.0036651913542300463
01:00:0A:00:00:00:00;1723853251;17/08/24;00:07:31;1.015;-0.034;0.078;0.0024434609804302454;-0.013439035043120384;0.0036651913542300463
01:00:0A:00:00:00:00;1723853252;17/08/24;00:07:32;1.014;-0.035;0.079;0.0036651913542300463;-0.012217304669320583;0.0036651913542300463
01:00:0A:00:00:00:00;1723853253;17/08/24;00:07:33;1.015;-0.035;0.078;0.0036651913542300463;-0.009773843921720982;0.0036651913542300463
01:00:0A:00:00:00:00;1723853254;17/08/24;00:07:34;1.015;-0.036;0.078;0.0036651913542300463;-0.009773843921720982;0.0036651913542300463
01:00:0A:00:00:00:00;1723853255;17/08/24;00:07:35;1.014;-0.036;0.079;0.0036651913542300463;-0.012217304669320583;0.0036651913542300463
01:00:0A:00:00:00:00;1723853256;17/08/24;00:07:36;1.014;-0.035;0.077;0.0036651913542300463;-0.012217304669320583;0.0036651913542300463
01:00:0A:00:00:00:00;1723853257;17/08/24;00:07:37;1.014;-0.034;0.08;0.004886921960860491;-0.010995574295520782;0.0036651913542300463
01:00:0A:00:00:00:00;1723853258;17/08/24;00:07:38;1.014;-0.035;0.078;0.004886921960860491;-0.010995574295520782;0.0036651913542300463
01:00:0A:00:00:00:00;1723853259;17/08/24;00:07:39;1.015;-0.036;0.079;0.004886921960860491;-0.012217304669320583;0.0036651913542300463
01:00:0A:00:00:00:00;1723853260;17/08/24;00:07:40;1.015;-0.035;0.078;0.004886921960860491;-0.010995574295520782;0.0036651913542300463
01:00:0A:00:00:00:00;1723853261;17/08/24;00:07:41;1.014;-0.034;0.079;0.004886921960860491;-0.012217304669320583;0.0036651913542300463
01:00:0A:00:00:00:00;1723853262;17/08/24;00:07:42;1.015;-0.036;0.078;0.006108652334660292;-0.010995574295520782;0.0036651913542300463
01:00:0A:00:00:00:00;1723853263;17/08/24;00:07:43;1.014;-0.036;0.079;0.006108652334660292;-0.010995574295520782;0.0036651913542300463
01:00:0A:00:00:00:00;1723853264;17/08/24;00:07:44;1.014;-0.035;0.078;0.006108652334660292;-0.012217304669320583;0.0036651913542300463
01:00:0A:00:00:00:00;1723853265;17/08/24;00:07:45;1.014;-0.035;0.079;0.006108652334660292;-0.010995574295520782;0.0036651913542300463
01:00:0A:00:00:00:00;1723853266;17/08/24;00:07:46;1.015;-0.036;0.078;0.006108652334660292;-0.010995574295520782;0.0036651913542300463
01:00:0A:00:00:00:00;1723853267;17/08/24;00:07:47;1.015;-0.035;0.079;0.006108652334660292;-0.009773843921720982;0.0036651913542300463
01:00:0A:00:00:00:00;1723853268;17/08/24;00:07:48;1.014;-0.036;0.078;0.006108652334660292;-0.013439035043120384;0.0036651913542300463
01:00:0A:00:00:00:00;1723853269;17/08/24;00:07:49;1.013;-0.035;0.08;0.0073303827084600925;-0.010995574295520782;0.0036651913542300463
01:00:0A:00:00:00:00;1723853270;17/08/24;00:07:50;1.014;-0.035;0.079;0.0073303827084600925;-0.012217304669320583;0.0036651913542300463
01:00:0A:00:00:00:00;1723853271;17/08/24;00:07:51;1.02;-0.03;0.1;0.04642575979232788;0.02076941914856434;-0.006108652334660292
01:00:0A:00:00:00:00;1723853272;17/08/24;00:07:52;1.012;-0.008;0.099;0.17470745742321014;-0.02932153083384037;0.015882495790719986
01:00:0A:00:00:00:00;1723853273;17/08/24;00:07:53;1.015;-0.036;0.076;0.2076941877603531;-0.03298672288656235;0.05864306166768074
01:00:0A:00:00:00:00;1723853274;17/08/24;00:07:54;1.015;-0.053;0.079;0.2174680233001709;-0.006108652334660292;-0.009773843921720982
01:00:0A:00:00:00:00;1723853275;17/08/24;00:07:55;1.015;-0.015;0.081;0.2028072476387024;-0.019547687843441963;-0.0073303827084600925
01:00:0A:00:00:00:00;1723853276;17/08/24;00:07:56;1.016;-0.04;0.077;0.18325956165790558;-0.006108652334660292;0.05253440886735916
01:00:0A:00:00:00:00;1723853277;17/08/24;00:07:57;1.014;-0.05;0.084;0.1869247555732727;-0.01710422709584236;-0.009773843921720982
01:00:0A:00:00:00:00;1723853278;17/08/24;00:07:58;1.015;-0.019;0.073;0.1771509200334549;-0.02687807008624077;0.0012217304902151227
01:00:0A:00:00:00:00;1723853279;17/08/24;00:07:59;1.015;-0.04;0.08;0.1722639948129654;0.0073303827084600925;0.039095375686883926
01:00:0A:00:00:00:00;1723853280;17/08/24;00:08:00;1.014;-0.041;0.088;0.1661553531885147;-0.02687807008624077;-0.0073303827084600925
01:00:0A:00:00:00:00;1723853281;17/08/24;00:08:01;1.016;-0.026;0.066;0.16004669666290283;-0.02321287989616394;0.009773843921720982
01:00:0A:00:00:00:00;1723853282;17/08/24;00:08:02;1.015;-0.04;0.081;0.16249015927314758;0.012217304669320583;0.028099799528717995
01:00:0A:00:00:00:00;1723853283;17/08/24;00:08:03;1.014;-0.036;0.087;0.14782939851284027;-0.03298672288656235;0.0
01:00:0A:00:00:00:00;1723853284;17/08/24;00:08:04;1.015;-0.03;0.066;0.1466076523065567;-0.02076941914856434;0.010995574295520782
01:00:0A:00:00:00:00;1723853285;17/08/24;00:08:05;1.014;-0.038;0.083;0.1514945775270462;0.010995574295520782;0.01710422709584236
01:00:0A:00:00:00:00;1723853286;17/08/24;00:08:06;1.013;-0.035;0.086;0.13316862285137177;-0.03420845419168472;0.006108652334660292
01:00:0A:00:00:00:00;1723853287;17/08/24;00:08:07;1.016;-0.035;0.065;0.13561207056045532;-0.014660765416920185;0.014660765416920185
01:00:0A:00:00:00:00;1723853288;17/08/24;00:08:08;1.014;-0.036;0.084;0.13805554807186127;0.004886921960860491;0.0073303827084600925
01:00:0A:00:00:00:00;1723853289;17/08/24;00:08:09;1.014;-0.033;0.083;0.12095131725072861;-0.03298672288656235;0.012217304669320583
01:00:0A:00:00:00:00;1723853290;17/08/24;00:08:10;1.015;-0.038;0.069;0.1258382350206375;-0.010995574295520782;0.010995574295520782
01:00:0A:00:00:00:00;1723853291;17/08/24;00:08:11;1.014;-0.033;0.084;0.1270599663257599;0.0024434609804302454;0.0024434609804302454
01:00:0A:00:00:00:00;1723853292;17/08/24;00:08:12;1.015;-0.032;0.079;0.10995574295520782;-0.02932153083384037;0.01710422709584236
01:00:0A:00:00:00:00;1723853293;17/08/24;00:08:13;1.016;-0.04;0.07;0.11728612333536148;-0.00855211354792118;0.00855211354792118
01:00:0A:00:00:00:00;1723853294;17/08/24;00:08:14;1.015;-0.03;0.084;0.11728612333536148;-0.004886921960860491;0.0024434609804302454
01:00:0A:00:00:00:00;1723853295;17/08/24;00:08:15;1.015;-0.034;0.078;0.10262535512447357;-0.024434609338641167;0.019547687843441963
01:00:0A:00:00:00:00;1723853296;17/08/24;00:08:16;1.015;-0.04;0.073;0.10995574295520782;-0.0073303827084600925;0.006108652334660292
01:00:0A:00:00:00:00;1723853297;17/08/24;00:08:17;1.014;-0.031;0.081;0.10751228034496307;-0.009773843921720982;0.0024434609804302454
01:00:0A:00:00:00:00;1723853298;17/08/24;00:08:18;1.014;-0.034;0.078;0.09651670604944229;-0.021991148591041565;0.02076941914856434
01:00:0A:00:00:00:00;1723853299;17/08/24;00:08:19;1.016;-0.04;0.076;0.10262535512447357;-0.00855211354792118;0.0036651913542300463
01:00:0A:00:00:00:00;1723853300;17/08/24;00:08:20;1.014;-0.03;0.081;0.09896016865968704;-0.010995574295520782;0.0024434609804302454
01:00:0A:00:00:00:00;1723853301;17/08/24;00:08:21;1.014;-0.037;0.076;0.09162978082895279;-0.01710422709584236;0.018325956538319588
01:00:0A:00:00:00:00;1723853302;17/08/24;00:08:22;1.015;-0.04;0.077;0.09651670604944229;-0.00855211354792118;0.0024434609804302454
01:00:0A:00:00:00:00;1723853303;17/08/24;00:08:23;1.015;-0.031;0.08;0.09285151958465576;-0.014660765416920185;0.004886921960860491
01:00:0A:00:00:00:00;1723853304;17/08/24;00:08:24;1.015;-0.036;0.077;0.08796459436416626;-0.013439035043120384;0.01710422709584236
01:00:0A:00:00:00:00;1723853305;17/08/24;00:08:25;1.015;-0.04;0.08;0.09040805697441101;-0.010995574295520782;0.0012217304902151227
01:00:0A:00:00:00:00;1723853306;17/08/24;00:08:26;1.014;-0.032;0.078;0.08674286305904388;-0.014660765416920185;0.006108652334660292
01:00:0A:00:00:00:00;1723853307;17/08/24;00:08:27;1.015;-0.037;0.078;0.08307767659425735;-0.010995574295520782;0.018325956538319588
01:00:0A:00:00:00:00;1723853308;17/08/24;00:08:28;1.016;-0.037;0.08;0.08429940044879913;-0.012217304669320583;0.0012217304902151227
01:00:0A:00:00:00:00;1723853309;17/08/24;00:08:29;1.016;-0.031;0.077;0.08185594528913498;-0.014660765416920185;0.006108652334660292
01:00:0A:00:00:00:00;1723853310;17/08/24;00:08:30;1.015;-0.038;0.079;0.07941248267889023;-0.009773843921720982;0.012217304669320583
01:00:0A:00:00:00:00;1723853311;17/08/24;00:08:31;1.015;-0.037;0.081;0.07941248267889023;-0.013439035043120384;0.0024434609804302454
01:00:0A:00:00:00:00;1723853312;17/08/24;00:08:32;1.015;-0.032;0.079;0.07696902006864548;-0.014660765416920185;0.00855211354792118
01:00:0A:00:00:00:00;1723853313;17/08/24;00:08:33;1.014;-0.037;0.078;0.0757472887635231;-0.00855211354792118;0.012217304669320583
01:00:0A:00:00:00:00;1723853314;17/08/24;00:08:34;1.015;-0.037;0.08;0.07452555745840073;-0.014660765416920185;0.0012217304902151227
01:00:0A:00:00:00:00;1723853315;17/08/24;00:08:35;1.015;-0.034;0.076;0.07208210229873657;-0.013439035043120384;0.00855211354792118
01:00:0A:00:00:00:00;1723853316;17/08/24;00:08:36;1.014;-0.037;0.08;0.07208210229873657;-0.00855211354792118;0.010995574295520782
01:00:0A:00:00:00:00;1723853317;17/08/24;00:08:37;1.014;-0.035;0.079;0.06963863223791122;-0.015882495790719986;0.0024434609804302454
01:00:0A:00:00:00:00;1723853318;17/08/24;00:08:38;1.015;-0.034;0.077;0.06841690838336945;-0.013439035043120384;0.00855211354792118
01:00:0A:00:00:00:00;1723853319;17/08/24;00:08:39;1.014;-0.037;0.08;0.06841690838336945;-0.009773843921720982;0.00855211354792118
01:00:0A:00:00:00:00;1723853320;17/08/24;00:08:40;1.014;-0.036;0.08;0.0659734457731247;-0.015882495790719986;0.004886921960860491
01:00:0A:00:00:00:00;1723853321;17/08/24;00:08:41;1.015;-0.035;0.077;0.06475171446800232;-0.010995574295520782;0.00855211354792118
01:00:0A:00:00:00:00;1723853322;17/08/24;00:08:42;1.014;-0.037;0.081;0.06475171446800232;-0.009773843921720982;0.00855211354792118
01:00:0A:00:00:00:00;1723853323;17/08/24;00:08:43;1.014;-0.035;0.079;0.06230825558304787;-0.01710422709584236;0.0036651913542300463
01:00:0A:00:00:00:00;1723853324;17/08/24;00:08:44;1.014;-0.035;0.077;0.06108652427792549;-0.010995574295520782;0.00855211354792118
01:00:0A:00:00:00:00;1723853325;17/08/24;00:08:45;1.015;-0.036;0.081;0.06108652427792549;-0.009773843921720982;0.0073303827084600925
01:00:0A:00:00:00:00;1723853326;17/08/24;00:08:46;1.014;-0.035;0.078;0.05864306166768074;-0.014660765416920185;0.004886921960860491
01:00:0A:00:00:00:00;1723853327;17/08/24;00:08:47;1.016;-0.035;0.077;0.05864306166768074;-0.010995574295520782;0.0073303827084600925
01:00:0A:00:00:00:00;1723853328;17/08/24;00:08:48;1.016;-0.036;0.08;0.05742133408784866;-0.010995574295520782;0.006108652334660292
01:00:0A:00:00:00:00;1723853329;17/08/24;00:08:49;1.014;-0.036;0.079;0.05497787147760391;-0.014660765416920185;0.006108652334660292
01:00:0A:00:00:00:00;1723853330;17/08/24;00:08:50;1.016;-0.034;0.077;0.05619959905743599;-0.00855211354792118;0.0073303827084600925
01:00:0A:00:00:00:00;1723853331;17/08/24;00:08:51;1.015;-0.035;0.081;0.05375614017248154;-0.012217304669320583;0.006108652334660292
01:00:0A:00:00:00:00;1723853332;17/08/24;00:08:52;1.015;-0.036;0.078;0.05253440886735916;-0.014660765416920185;0.006108652334660292
01:00:0A:00:00:00:00;1723853333;17/08/24;00:08:53;1.015;-0.035;0.077;0.05253440886735916;-0.009773843921720982;0.006108652334660292
01:00:0A:00:00:00:00;1723853334;17/08/24;00:08:54;1.015;-0.035;0.08;0.051312677562236786;-0.010995574295520782;0.006108652334660292
01:00:0A:00:00:00:00;1723853335;17/08/24;00:08:55;1.015;-0.036;0.079;0.05009094998240471;-0.014660765416920185;0.006108652334660292
01:00:0A:00:00:00:00;1723853336;17/08/24;00:08:56;1.014;-0.036;0.078;0.05009094998240471;-0.010995574295520782;0.006108652334660292
01:00:0A:00:00:00:00;1723853337;17/08/24;00:08:57;1.014;-0.037;0.081;0.04886921867728233;-0.012217304669320583;0.006108652334660292
01:00:0A:00:00:00:00;1723853338;17/08/24;00:08:58;1.015;-0.035;0.079;0.04764748737215996;-0.013439035043120384;0.006108652334660292
01:00:0A:00:00:00:00;1723853339;17/08/24;00:08:59;1.014;-0.036;0.078;0.04764748737215996;-0.009773843921720982;0.006108652334660292
01:00:0A:00:00:00:00;1723853340;17/08/24;00:09:00;1.014;-0.037;0.08;0.04642575979232788;-0.013439035043120384;0.006108652334660292
01:00:0A:00:00:00:00;1723853341;17/08/24;00:09:01;1.015;-0.034;0.078;0.045204028487205505;-0.013439035043120384;0.006108652334660292
01:00:0A:00:00:00:00;1723853342;17/08/24;00:09:02;1.015;-0.035;0.079;0.045204028487205505;-0.010995574295520782;0.004886921960860491
01:00:0A:00:00:00:00;1723853343;17/08/24;00:09:03;1.015;-0.034;0.08;0.04398229718208313;-0.010995574295520782;0.006108652334660292
01:00:0A:00:00:00:00;1723853344;17/08/24;00:09:04;1.014;-0.036;0.077;0.042760565876960754;-0.013439035043120384;0.006108652334660292
01:00:0A:00:00:00:00;1723853345;17/08/24;00:09:05;1.015;-0.036;0.079;0.042760565876960754;-0.009773843921720982;0.004886921960860491
01:00:0A:00:00:00:00;1723853346;17/08/24;00:09:06;1.014;-0.035;0.08;0.04153883829712868;-0.013439035043120384;0.006108652334660292
01:00:0A:00:00:00:00;1723853347;17/08/24;00:09:07;1.015;-0.036;0.079;0.040317103266716;-0.012217304669320583;0.004886921960860491
01:00:0A:00:00:00:00;1723853348;17/08/24;00:09:08;1.014;-0.036;0.078;0.040317103266716;-0.010995574295520782;0.004886921960860491
01:00:0A:00:00:00:00;1723853349;17/08/24;00:09:09;1.015;-0.034;0.078;0.039095375686883926;-0.013439035043120384;0.006108652334660292
01:00:0A:00:00:00:00;1723853350;17/08/24;00:09:10;1.015;-0.034;0.077;0.039095375686883926;-0.012217304669320583;0.006108652334660292
01:00:0A:00:00:00:00;1723853351;17/08/24;00:09:11;1.015;-0.035;0.078;0.039095375686883926;-0.010995574295520782;0.004886921960860491
01:00:0A:00:00:00:00;1723853352;17/08/24;00:09:12;1.015;-0.035;0.08;0.036651913076639175;-0.012217304669320583;0.004886921960860491
01:00:0A:00:00:00:00;1723853353;17/08/24;00:09:13;1.016;-0.036;0.078;0.036651913076639175;-0.012217304669320583;0.006108652334660292
01:00:0A:00:00:00:00;1723853354;17/08/24;00:09:14;1.015;-0.036;0.079;0.036651913076639175;-0.010995574295520782;0.004886921960860491
01:00:0A:00:00:00:00;1723853355;17/08/24;00:09:15;1.016;-0.035;0.078;0.0354301817715168;-0.013439035043120384;0.006108652334660292
01:00:0A:00:00:00:00;1723853356;17/08/24;00:09:16;1.016;-0.034;0.078;0.0354301817715168;-0.010995574295520782;0.004886921960860491
01:00:0A:00:00:00:00;1723853357;17/08/24;00:09:17;1.013;-0.036;0.078;0.0354301817715168;-0.010995574295520782;0.004886921960860491
01:00:0A:00:00:00:00;1723853358;17/08/24;00:09:18;1.015;-0.036;0.079;0.03420845419168472;-0.012217304669320583;0.004886921960860491
01:00:0A:00:00:00:00;1723853359;17/08/24;00:09:19;1.015;-0.035;0.077;0.03420845419168472;-0.012217304669320583;0.004886921960860491
01:00:0A:00:00:00:00;1723853360;17/08/24;00:09:20;1.016;-0.035;0.079;0.03298672288656235;-0.010995574295520782;0.004886921960860491
01:00:0A:00:00:00:00;1723853361;17/08/24;00:09:21;1.015;-0.035;0.079;0.03176499158143997;-0.012217304669320583;0.006108652334660292
01:00:0A:00:00:00:00;1723853362;17/08/24;00:09:22;1.015;-0.036;0.078;0.03298672288656235;-0.010995574295520782;0.004886921960860491
01:00:0A:00:00:00:00;1723853363;17/08/24;00:09:23;1.014;-0.035;0.079;0.03176499158143997;-0.012217304669320583;0.006108652334660292
01:00:0A:00:00:00:00;1723853364;17/08/24;00:09:24;1.015;-0.035;0.079;0.030543262138962746;-0.012217304669320583;0.004886921960860491
01:00:0A:00:00:00:00;1723853360;17/08/24;00:09:20;1.015;-0.036;0.079;0.030543262138962746;-0.010995574295520782;0.004886921960860491
01:00:0A:00:00:00:00;1723853361;17/08/24;00:09:21;1.014;-0.036;0.079;0.030543262138962746;-0.012217304669320583;0.0036651913542300463
01:00:0A:00:00:00:00;1723853362;17/08/24;00:09:22;1.014;-0.036;0.079;0.02932153083384037;-0.012217304669320583;0.006108652334660292
01:00:0A:00:00:00:00;1723853363;17/08/24;00:09:23;1.015;-0.036;0.079;0.02932153083384037;-0.010995574295520782;0.004886921960860491
01:00:0A:00:00:00:00;1723853364;17/08/24;00:09:24;1.015;-0.035;0.078;0.02932153083384037;-0.012217304669320583;0.004886921960860491
01:00:0A:00:00:00:00;1723853365;17/08/24;00:09:25;1.016;-0.036;0.077;0.028099799528717995;-0.012217304669320583;0.004886921960860491
01:00:0A:00:00:00:00;1723853366;17/08/24;00:09:26;1.015;-0.036;0.078;0.028099799528717995;-0.010995574295520782;0.004886921960860491
01:00:0A:00:00:00:00;1723853367;17/08/24;00:09:27;1.014;-0.035;0.079;0.028099799528717995;-0.012217304669320583;0.004886921960860491
01:00:0A:00:00:00:00;1723853368;17/08/24;00:09:28;1.015;-0.035;0.079;0.02687807008624077;-0.012217304669320583;0.004886921960860491
01:00:0A:00:00:00:00;1723853369;17/08/24;00:09:29;1.015;-0.036;0.079;0.02687807008624077;-0.010995574295520782;0.004886921960860491
01:00:0A:00:00:00:00;1723853370;17/08/24;00:09:30;1.015;-0.034;0.079;0.025656338781118393;-0.012217304669320583;0.004886921960860491
01:00:0A:00:00:00:00;1723853371;17/08/24;00:09:31;1.016;-0.036;0.078;0.025656338781118393;-0.012217304669320583;0.004886921960860491
01:00:0A:00:00:00:00;1723853372;17/08/24;00:09:32;1.015;-0.036;0.079;0.025656338781118393;-0.010995574295520782;0.004886921960860491
01:00:0A:00:00:00:00;1723853373;17/08/24;00:09:33;1.015;-0.036;0.079;0.025656338781118393;-0.012217304669320583;0.004886921960860491
01:00:0A:00:00:00:00;1723853374;17/08/24;00:09:34;1.014;-0.036;0.078;0.025656338781118393;-0.010995574295520782;0.004886921960860491
01:00:0A:00:00:00:00;1723853375;17/08/24;00:09:35;1.015;-0.035;0.079;0.024434609338641167;-0.012217304669320583;0.004886921960860491
01:00:0A:00:00:00:00;1723853376;17/08/24;00:09:36;1.014;-0.035;0.078;0.024434609338641167;-0.010995574295520782;0.0036651913542300463
01:00:0A:00:00:00:00;1723853377;17/08/24;00:09:37;1.014;-0.035;0.079;0.024434609338641167;-0.012217304669320583;0.004886921960860491
01:00:0A:00:00:00:00;1723853378;17/08/24;00:09:38;1.014;-0.035;0.079;0.024434609338641167;-0.010995574295520782;0.0036651913542300463
01:00:0A:00:00:00:00;1723853379;17/08/24;00:09:39;1.015;-0.036;0.08;0.02321287989616394;-0.012217304669320583;0.004886921960860491
01:00:0A:00:00:00:00;1723853380;17/08/24;00:09:40;1.014;-0.035;0.079;0.02321287989616394;-0.012217304669320583;0.0036651913542300463
01:00:0A:00:00:00:00;1723853381;17/08/24;00:09:41;1.015;-0.036;0.08;0.02321287989616394;-0.010995574295520782;0.004886921960860491
01:00:0A:00:00:00:00;1723853382;17/08/24;00:09:42;1.015;-0.036;0.079;0.021991148591041565;-0.012217304669320583;0.004886921960860491
01:00:0A:00:00:00:00;1723853383;17/08/24;00:09:43;1.015;-0.034;0.078;0.021991148591041565;-0.012217304669320583;0.004886921960860491
01:00:0A:00:00:00:00;1723853384;17/08/24;00:09:44;1.015;-0.037;0.079;0.021991148591041565;-0.012217304669320583;0.004886921960860491
01:00:0A:00:00:00:00;1723853385;17/08/24;00:09:45;1.015;-0.034;0.079;0.02076941914856434;-0.012217304669320583;0.004886921960860491
01:00:0A:00:00:00:00;1723853386;17/08/24;00:09:46;1.015;-0.036;0.08;0.02076941914856434;-0.010995574295520782;0.004886921960860491
01:00:0A:00:00:00:00;1723853387;17/08/24;00:09:47;1.014;-0.035;0.077;0.02076941914856434;-0.012217304669320583;0.0036651913542300463
01:00:0A:00:00:00:00;1723853388;17/08/24;00:09:48;1.015;-0.036;0.079;0.019547687843441963;-0.010995574295520782;0.004886921960860491
01:00:0A:00:00:00:00;1723853389;17/08/24;00:09:49;1.014;-0.035;0.079;0.019547687843441963;-0.010995574295520782;0.0036651913542300463
01:00:0A:00:00:00:00;1723853390;17/08/24;00:09:50;1.015;-0.036;0.078;0.019547687843441963;-0.010995574295520782;0.004886921960860491
01:00:0A:00:00:00:00;1723853391;17/08/24;00:09:51;1.015;-0.035;0.079;0.018325956538319588;-0.010995574295520782;0.0036651913542300463
01:00:0A:00:00:00:00;1723853392;17/08/24;00:09:52;1.015;-0.035;0.079;0.018325956538319588;-0.012217304669320583;0.004886921960860491
01:00:0A:00:00:00:00;1723853393;17/08/24;00:09:53;1.015;-0.036;0.079;0.018325956538319588;-0.010995574295520782;0.0036651913542300463
01:00:0A:00:00:00:00;1723853394;17/08/24;00:09:54;1.015;-0.036;0.079;0.01710422709584236;-0.012217304669320583;0.004886921960860491
01:00:0A:00:00:00:00;1723853395;17/08/24;00:09:55;1.015;-0.035;0.079;0.01710422709584236;-0.010995574295520782;0.0036651913542300463
01:00:0A:00:00:00:00;1723853396;17/08/24;00:09:56;1.015;-0.035;0.079;0.01710422709584236;-0.010995574295520782;0.004886921960860491
01:00:0A:00:00:00:00;1723853397;17/08/24;00:09:57;1.014;-0.036;0.079;0.015882495790719986;-0.012217304669320583;0.0036651913542300463
01:00:0A:00:00:00:00;1723853398;17/08/24;00:09:58;1.014;-0.035;0.079;0.015882495790719986;-0.010995574295520782;0.004886921960860491
01:00:0A:00:00:00:00;1723853399;17/08/24;00:09:59;1.014;-0.034;0.079;0.015882495790719986;-0.012217304669320583;0.0036651913542300463
01:00:0A:00:00:00:00;1723853400;17/08/24;00:10:00;1.015;-0.034;0.078;0.015882495790719986;-0.010995574295520782;0.004886921960860491
01:00:0A:00:00:00:00;1723853401;17/08/24;00:10:01;1.014;-0.036;0.078;0.014660765416920185;-0.012217304669320583;0.0036651913542300463
01:00:0A:00:00:00:00;1723853402;17/08/24;00:10:02;1.014;-0.035;0.078;0.014660765416920185;-0.010995574295520782;0.004886921960860491
01:00:0A:00:00:00:00;1723853403;17/08/24;00:10:03;1.014;-0.036;0.079;0.014660765416920185;-0.010995574295520782;0.004886921960860491
01:00:0A:00:00:00:00;1723853404;17/08/24;00:10:04;1.015;-0.035;0.079;0.014660765416920185;-0.012217304669320583;0.0036651913542300463
01:00:0A:00:00:00:00;1723853405;17/08/24;00:10:05;1.015;-0.036;0.08;0.013439035043120384;-0.010995574295520782;0.004886921960860491
01:00:0A:00:00:00:00;1723853406;17/08/24;00:10:06;1.015;-0.036;0.079;0.013439035043120384;-0.012217304669320583;0.0036651913542300463
01:00:0A:00:00:00:00;1723853407;17/08/24;00:10:07;1.015;-0.035;0.079;0.013439035043120384;-0.010995574295520782;0.0036651913542300463
01:00:0A:00:00:00:00;1723853408;17/08/24;00:10:08;1.014;-0.035;0.08;0.013439035043120384;-0.012217304669320583;0.0036651913542300463
01:00:0A:00:00:00:00;1723853409;17/08/24;00:10:09;1.016;-0.034;0.078;0.012217304669320583;-0.010995574295520782;0.004886921960860491
01:00:0A:00:00:00:00;1723853410;17/08/24;00:10:10;1.015;-0.035;0.079;0.012217304669320583;-0.010995574295520782;0.0036651913542300463
01:00:0A:00:00:00:00;1723853411;17/08/24;00:10:11;1.015;-0.035;0.078;0.012217304669320583;-0.012217304669320583;0.004886921960860491
01:00:0A:00:00:00:00;1723853412;17/08/24;00:10:12;1.014;-0.035;0.079;0.012217304669320583;-0.010995574295520782;0.0036651913542300463
01:00:0A:00:00:00:00;1723853413;17/08/24;00:10:13;1.015;-0.035;0.079;0.012217304669320583;-0.012217304669320583;0.0036651913542300463
01:00:0A:00:00:00:00;1723853414;17/08/24;00:10:14;1.015;-0.035;0.079;0.012217304669320583;-0.010995574295520782;0.0036651913542300463
01:00:0A:00:00:00:00;1723853415;17/08/24;00:10:15;1.015;-0.035;0.079;0.010995574295520782;-0.012217304669320583;0.0036651913542300463
01:00:0A:00:00:00:00;1723853416;17/08/24;00:10:16;1.014;-0.035;0.079;0.010995574295520782;-0.010995574295520782;0.0036651913542300463
01:00:0A:00:00:00:00;1723853417;17/08/24;00:10:17;1.014;-0.035;0.078;0.010995574295520782;-0.010995574295520782;0.0036651913542300463
01:00:0A:00:00:00:00;1723853418;17/08/24;00:10:18;1.015;-0.036;0.078;0.010995574295520782;-0.012217304669320583;0.0036651913542300463
01:00:0A:00:00:00:00;1723853419;17/08/24;00:10:19;1.016;-0.034;0.079;0.010995574295520782;-0.010995574295520782;0.0036651913542300463
01:00:0A:00:00:00:00;1723853420;17/08/24;00:10:20;1.013;-0.035;0.078;0.009773843921720982;-0.012217304669320583;0.0036651913542300463
01:00:0A:00:00:00:00;1723853421;17/08/24;00:10:21;1.014;-0.036;0.078;0.009773843921720982;-0.010995574295520782;0.0036651913542300463
01:00:0A:00:00:00:00;1723853422;17/08/24;00:10:22;1.014;-0.035;0.078;0.009773843921720982;-0.010995574295520782;0.0036651913542300463
01:00:0A:00:00:00:00;1723853423;17/08/24;00:10:23;1.014;-0.035;0.078;0.009773843921720982;-0.012217304669320583;0.0036651913542300463
01:00:0A:00:00:00:00;1723853424;17/08/24;00:10:24;1.016;-0.034;0.078;0.009773843921720982;-0.010995574295520782;0.0036651913542300463
01:00:0A:00:00:00:00;1723853425;17/08/24;00:10:25;1.015;-0.034;0.079;0.009773843921720982;-0.012217304669320583;0.0036651913542300463
01:00:0A:00:00:00:00;1723853426;17/08/24;00:10:26;1.015;-0.036;0.078;0.009773843921720982;-0.010995574295520782;0.0036651913542300463
01:00:0A:00:00:00:00;1723853427;17/08/24;00:10:27;1.015;-0.035;0.079;0.00855211354792118;-0.010995574295520782;0.0036651913542300463
01:00:0A:00:00:00:00;1723853428;17/08/24;00:10:28;1.015;-0.036;0.078;0.00855211354792118;-0.010995574295520782;0.004886921960860491
01:00:0A:00:00:00:00;1723853429;17/08/24;00:10:29;1.015;-0.034;0.078;0.00855211354792118;-0.010995574295520782;0.0036651913542300463
01:00:0A:00:00:00:00;1723853430;17/08/24;00:10:30;1.015;-0.036;0.078;0.00855211354792118;-0.010995574295520782;0.0036651913542300463
01:00:0A:00:00:00:00;1723853431;17/08/24;00:10:31;1.014;-0.035;0.079;0.00855211354792118;-0.010995574295520782;0.0036651913542300463
01:00:0A:00:00:00:00;1723853432;17/08/24;00:10:32;1.015;-0.035;0.08;0.0073303827084600925;-0.010995574295520782;0.004886921960860491
01:00:0A:00:00:00:00;1723853433;17/08/24;00:10:33;1.014;-0.036;0.078;0.0073303827084600925;-0.010995574295520782;0.0036651913542300463
01:00:0A:00:00:00:00;1723853434;17/08/24;00:10:34;1.015;-0.034;0.078;0.0073303827084600925;-0.010995574295520782;0.0036651913542300463
01:00:0A:00:00:00:00;1723853435;17/08/24;00:10:35;1.014;-0.035;0.079;0.0073303827084600925;-0.012217304669320583;0.0036651913542300463
01:00:0A:00:00:00:00;1723853436;17/08/24;00:10:36;1.015;-0.034;0.08;0.0073303827084600925;-0.010995574295520782;0.0036651913542300463
01:00:0A:00:00:00:00;1723853437;17/08/24;00:10:37;1.016;-0.036;0.078;0.0073303827084600925;-0.010995574295520782;0.0036651913542300463
01:00:0A:00:00:00:00;1723853438;17/08/24;00:10:38;1.015;-0.036;0.077;0.0073303827084600925;-0.010995574295520782;0.0036651913542300463
01:00:0A:00:00:00:00;1723853439;17/08/24;00:10:39;1.015;-0.036;0.078;0.0073303827084600925;-0.012217304669320583;0.0036651913542300463
01:00:0A:00:00:00:00;1723853440;17/08/24;00:10:40;1.014;-0.035;0.078;0.0073303827084600925;-0.010995574295520782;0.0036651913542300463
01:00:0A:00:00:00:00;1723853441;17/08/24;00:10:41;1.015;-0.035;0.078;0.006108652334660292;-0.010995574295520782;0.0036651913542300463
01:00:0A:00:00:00:00;1723853442;17/08/24;00:10:42;1.015;-0.035;0.078;0.006108652334660292;-0.010995574295520782;0.0036651913542300463
01:00:0A:00:00:00:00;1723853443;17/08/24;00:10:43;1.015;-0.035;0.078;0.006108652334660292;-0.010995574295520782;0.0036651913542300463
01:00:0A:00:00:00:00;1723853444;17/08/24;00:10:44;1.015;-0.036;0.079;0.006108652334660292;-0.010995574295520782;0.0036651913542300463
01:00:0A:00:00:00:00;1723853445;17/08/24;00:10:45;1.015;-0.036;0.078;0.006108652334660292;-0.010995574295520782;0.0036651913542300463
01:00:0A:00:00:00:00;1723853446;17/08/24;00:10:46;1.016;-0.035;0.079;0.006108652334660292;-0.010995574295520782;0.0036651913542300463
01:00:0A:00:00:00:00;1723853447;17/08/24;00:10:47;1.014;-0.034;0.077;0.006108652334660292;-0.010995574295520782;0.0036651913542300463
01:00:0A:00:00:00:00;1723853448;17/08/24;00:10:48;1.014;-0.035;0.08;0.006108652334660292;-0.010995574295520782;0.0036651913542300463
01:00:0A:00:00:00:00;1723853449;17/08/24;00:10:49;1.014;-0.035;0.078;0.004886921960860491;-0.010995574295520782;0.0036651913542300463
01:00:0A:00:00:00:00;1723853450;17/08/24;00:10:50;1.015;-0.035;0.079;0.004886921960860491;-0.010995574295520782;0.0036651913542300463
01:00:0A:00:00:00:00;1723853451;17/08/24;00:10:51;1.014;-0.035;0.079;0.004886921960860491;-0.010995574295520782;0.0036651913542300463
01:00:0A:00:00:00:00;1723853452;17/08/24;00:10:52;1.015;-0.035;0.078;0.004886921960860491;-0.010995574295520782;0.0036651913542300463
01:00:0A:00:00:00:00;1723853453;17/08/24;00:10:53;1.014;-0.035;0.078;0.004886921960860491;-0.010995574295520782;0.0036651913542300463
01:00:0A:00:00:00:00;1723853454;17/08/24;00:10:54;1.015;-0.035;0.078;0.004886921960860491;-0.010995574295520782;0.0036651913542300463
01:00:0A:00:00:00:00;1723853455;17/08/24;00:10:55;1.014;-0.035;0.078;0.004886921960860491;-0.010995574295520782;0.0036651913542300463
01:00:0A:00:00:00:00;1723853456;17/08/24;00:10:56;1.015;-0.035;0.079;0.004886921960860491;-0.010995574295520782;0.0036651913542300463
01:00:0A:00:00:00:00;1723853457;17/08/24;00:10:57;1.016;-0.036;0.078;0.004886921960860491;-0.010995574295520782;0.0036651913542300463
01:00:0A:00:00:00:00;1723853458;17/08/24;00:10:58;1.014;-0.036;0.079;0.0036651913542300463;-0.010995574295520782;0.0036651913542300463
01:00:0A:00:00:00:00;1723853459;17/08/24;00:10:59;1.015;-0.036;0.078;0.0036651913542300463;-0.010995574295520782;0.0036651913542300463
01:00:0A:00:00:00:00;1723853460;17/08/24;00:11:00;1.015;-0.035;0.079;0.0036651913542300463;-0.010995574295520782;0.0036651913542300463
01:00:0A:00:00:00:00;1723853461;17/08/24;00:11:01;1.015;-0.035;0.079;0.0036651913542300463;-0.012217304669320583;0.0036651913542300463
01:00:0A:00:00:00:00;1723853462;17/08/24;00:11:02;1.014;-0.035;0.078;0.0036651913542300463;-0.010995574295520782;0.0036651913542300463
01:00:0A:00:00:00:00;1723853463;17/08/24;00:11:03;1.014;-0.035;0.079;0.0036651913542300463;-0.010995574295520782;0.0036651913542300463
01:00:0A:00:00:00:00;1723853464;17/08/24;00:11:04;1.015;-0.034;0.079;0.0036651913542300463;-0.010995574295520782;0.0036651913542300463
01:00:0A:00:00:00:00;1723853465;17/08/24;00:11:05;1.015;-0.034;0.08;0.0036651913542300463;-0.010995574295520782;0.0036651913542300463
01:00:0A:00:00:00:00;1723853466;17/08/24;00:11:06;1.014;-0.035;0.079;0.0024434609804302454;-0.010995574295520782;0.0036651913542300463
01:00:0A:00:00:00:00;1723853467;17/08/24;00:11:07;1.014;-0.036;0.079;0.0024434609804302454;-0.010995574295520782;0.0036651913542300463
01:00:0A:00:00:00:00;1723853468;17/08/24;00:11:08;1.014;-0.035;0.079;0.0024434609804302454;-0.010995574295520782;0.0036651913542300463
01:00:0A:00:00:00:00;1723853469;17/08/24;00:11:09;1.014;-0.035;0.078;0.0024434609804302454;-0.010995574295520782;0.0036651913542300463
01:00:0A:00:00:00:00;1723853470;17/08/24;00:11:10;1.015;-0.036;0.078;0.0024434609804302454;-0.012217304669320583;0.0036651913542300463
01:00:0A:00:00:00:00;1723853471;17/08/24;00:11:11;1.015;-0.035;0.078;0.0024434609804302454;-0.010995574295520782;0.0036651913542300463
01:00:0A:00:00:00:00;1723853472;17/08/24;00:11:12;1.016;-0.035;0.078;0.0024434609804302454;-0.010995574295520782;0.0036651913542300463
01:00:0A:00:00:00:00;1723853473;17/08/24;00:11:13;1.014;-0.035;0.078;0.0024434609804302454;-0.010995574295520782;0.0036651913542300463
01:00:0A:00:00:00:00;1723853474;17/08/24;00:11:14;1.015;-0.035;0.079;0.0024434609804302454;-0.010995574295520782;0.0036651913542300463
01:00:0A:00:00:00:00;1723853475;17/08/24;00:11:15;1.015;-0.036;0.079;0.0024434609804302454;-0.010995574295520782;0.0036651913542300463
01:00:0A:00:00:00:00;1723853476;17/08/24;00:11:16;1.015;-0.034;0.079;0.0024434609804302454;-0.010995574295520782;0.0036651913542300463
01:00:0A:00:00:00:00;1723853477;17/08/24;00:11:17;1.014;-0.036;0.078;0.0024434609804302454;-0.010995574295520782;0.0036651913542300463
01:00:0A:00:00:00:00;1723853478;17/08/24;00:11:18;1.015;-0.036;0.079;0.0012217304902151227;-0.010995574295520782;0.0036651913542300463
01:00:0A:00:00:00:00;1723853479;17/08/24;00:11:19;1.015;-0.034;0.079;0.0012217304902151227;-0.010995574295520782;0.0036651913542300463
01:00:0A:00:00:00:00;1723853480;17/08/24;00:11:20;1.013;-0.035;0.079;0.0012217304902151227;-0.010995574295520782;0.0036651913542300463
01:00:0A:00:00:00:00;1723853481;17/08/24;00:11:21;1.014;-0.035;0.079;0.0012217304902151227;-0.010995574295520782;0.0036651913542300463
01:00:0A:00:00:00:00;1723853482;17/08/24;00:11:22;1.015;-0.035;0.08;0.0012217304902151227;-0.010995574295520782;0.0036651913542300463
01:00:0A:00:00:00:00;1723853483;17/08/24;00:11:23;1.014;-0.035;0.08;0.0012217304902151227;-0.010995574295520782;0.0036651913542300463
01:00:0A:00:00:00:00;1723853484;17/08/24;00:11:24;1.013;-0.036;0.079;0.0012217304902151227;-0.010995574295520782;0.0036651913542300463
01:00:0A:00:00:00:00;1723853485;17/08/24;00:11:25;1.014;-0.035;0.078;0.0012217304902151227;-0.010995574295520782;0.0036651913542300463
01:00:0A:00:00:00:00;1723853486;17/08/24;00:11:26;1.015;-0.035;0.079;0.0012217304902151227;-0.010995574295520782;0.0036651913542300463
01:00:0A:00:00:00:00;1723853487;17/08/24;00:11:27;1.016;-0.036;0.079;0.0012217304902151227;-0.010995574295520782;0.0036651913542300463
01:00:0A:00:00:00:00;1723853488;17/08/24;00:11:28;1.015;-0.035;0.079;0.0012217304902151227;-0.010995574295520782;0.0024434609804302454
01:00:0A:00:00:00:00;1723853489;17/08/24;00:11:29;1.015;-0.036;0.079;0.0;-0.010995574295520782;0.0036651913542300463
01:00:0A:00:00:00:00;1723853490;17/08/24;00:11:30;1.015;-0.036;0.079;0.0;-0.010995574295520782;0.0036651913542300463
01:00:0A:00:00:00:00;1723853491;17/08/24;00:11:31;1.014;-0.034;0.079;0.0;-0.010995574295520782;0.0036651913542300463
01:00:0A:00:00:00:00;1723853492;17/08/24;00:11:32;1.015;-0.034;0.079;0.0;-0.010995574295520782;0.0024434609804302454
01:00:0A:00:00:00:00;1723853493;17/08/24;00:11:33;1.015;-0.034;0.079;0.0;-0.010995574295520782;0.0036651913542300463
01:00:0A:00:00:00:00;1723853494;17/08/24;00:11:34;1.015;-0.036;0.078;0.0;-0.010995574295520782;0.0036651913542300463
01:00:0A:00:00:00:00;1723853495;17/08/24;00:11:35;1.014;-0.036;0.079;0.0;-0.010995574295520782;0.0036651913542300463
01:00:0A:00:00:00:00;1723853496;17/08/24;00:11:36;1.014;-0.036;0.079;0.0;-0.010995574295520782;0.0036651913542300463
01:00:0A:00:00:00:00;1723853497;17/08/24;00:11:37;1.016;-0.036;0.079;0.0;-0.010995574295520782;0.0036651913542300463
01:00:0A:00:00:00:00;1723853498;17/08/24;00:11:38;1.015;-0.035;0.078;-0.0012217304902151227;-0.010995574295520782;0.0036651913542300463
01:00:0A:00:00:00:00;1723853499;17/08/24;00:11:39;1.016;-0.035;0.079;-0.0012217304902151227;-0.010995574295520782;0.0036651913542300463
01:00:0A:00:00:00:00;1723853500;17/08/24;00:11:40;1.015;-0.035;0.079;0.0;-0.010995574295520782;0.0036651913542300463
01:00:0A:00:00:00:00;1723853501;17/08/24;00:11:41;1.014;-0.036;0.079;-0.0012217304902151227;-0.010995574295520782;0.0036651913542300463
01:00:0A:00:00:00:00;1723853502;17/08/24;00:11:42;1.014;-0.036;0.079;0.0;-0.010995574295520782;0.0036651913542300463
01:00:0A:00:00:00:00;1723853503;17/08/24;00:11:43;1.016;-0.035;0.079;-0.0012217304902151227;-0.010995574295520782;0.0024434609804302454
01:00:0A:00:00:00:00;1723853504;17/08/24;00:11:44;1.015;-0.035;0.079;-0.0012217304902151227;-0.010995574295520782;0.0036651913542300463
01:00:0A:00:00:00:00;1723853505;17/08/24;00:11:45;1.015;-0.035;0.08;-0.0012217304902151227;-0.010995574295520782;0.0036651913542300463
01:00:0A:00:00:00:00;1723853506;17/08/24;00:11:46;1.014;-0.034;0.079;-0.0012217304902151227;-0.010995574295520782;0.0024434609804302454
01:00:0A:00:00:00:00;1723853507;17/08/24;00:11:47;1.014;-0.035;0.078;-0.0012217304902151227;-0.010995574295520782;0.0024434609804302454
01:00:0A:00:00:00:00;1723853508;17/08/24;00:11:48;1.015;-0.035;0.078;-0.0012217304902151227;-0.010995574295520782;0.0036651913542300463
01:00:0A:00:00:00:00;1723853509;17/08/24;00:11:49;1.014;-0.036;0.079;-0.0012217304902151227;-0.010995574295520782;0.0036651913542300463
01:00:0A:00:00:00:00;1723853510;17/08/24;00:11:50;1.016;-0.034;0.079;-0.0012217304902151227;-0.010995574295520782;0.0036651913542300463
01:00:0A:00:00:00:00;1723853511;17/08/24;00:11:51;1.015;-0.035;0.079;-0.0012217304902151227;-0.010995574295520782;0.0036651913542300463
01:00:0A:00:00:00:00;1723853512;17/08/24;00:11:52;1.014;-0.034;0.078;-0.0012217304902151227;-0.010995574295520782;0.0024434609804302454
01:00:0A:00:00:00:00;1723853513;17/08/24;00:11:53;1.014;-0.035;0.078;-0.0012217304902151227;-0.010995574295520782;0.0036651913542300463
01:00:0A:00:00:00:00;1723853514;17/08/24;00:11:54;1.014;-0.035;0.078;-0.0012217304902151227;-0.010995574295520782;0.0036651913542300463
01:00:0A:00:00:00:00;1723853515;17/08/24;00:11:55;1.015;-0.035;0.078;-0.0012217304902151227;-0.010995574295520782;0.0036651913542300463
01:00:0A:00:00:00:00;1723853516;17/08/24;00:11:56;1.015;-0.035;0.079;-0.0012217304902151227;-0.010995574295520782;0.0036651913542300463
01:00:0A:00:00:00:00;1723853517;17/08/24;00:11:57;1.014;-0.034;0.079;-0.0012217304902151227;-0.010995574295520782;0.0036651913542300463
01:00:0A:00:00:00:00;1723853518;17/08/24;00:11:58;1.016;-0.035;0.079;-0.0012217304902151227;-0.010995574295520782;0.0024434609804302454
01:00:0A:00:00:00:00;1723853519;17/08/24;00:11:59;1.016;-0.035;0.079;-0.0012217304902151227;-0.010995574295520782;0.0036651913542300463
01:00:0A:00:00:00:00;1723853520;17/08/24;00:12:00;1.013;-0.036;0.078;-0.0024434609804302454;-0.010995574295520782;0.0024434609804302454
01:00:0A:00:00:00:00;1723853521;17/08/24;00:12:01;1.016;-0.036;0.078;-0.0024434609804302454;-0.010995574295520782;0.0036651913542300463
01:00:0A:00:00:00:00;1723853522;17/08/24;00:12:02;1.014;-0.034;0.078;-0.0012217304902151227;-0.010995574295520782;0.0024434609804302454
01:00:0A:00:00:00:00;1723853523;17/08/24;00:12:03;1.015;-0.035;0.078;-0.0024434609804302454;-0.010995574295520782;0.0036651913542300463
01:00:0A:00:00:00:00;1723853524;17/08/24;00:12:04;1.014;-0.034;0.078;-0.0012217304902151227;-0.010995574295520782;0.0024434609804302454
01:00:0A:00:00:00:00;1723853525;17/08/24;00:12:05;1.015;-0.034;0.079;-0.0024434609804302454;-0.010995574295520782;0.0036651913542300463
01:00:0A:00:00:00:00;1723853526;17/08/24;00:12:06;1.014;-0.035;0.078;-0.0024434609804302454;-0.010995574295520782;0.0036651913542300463
01:00:0A:00:00:00:00;1723853527;17/08/24;00:12:07;1.015;-0.036;0.079;-0.0024434609804302454;-0.010995574295520782;0.0036651913542300463
01:00:0A:00:00:00:00;1723853528;17/08/24;00:12:08;1.015;-0.035;0.077;-0.0024434609804302454;-0.010995574295520782;0.0036651913542300463
01:00:0A:00:00:00:00;1723853529;17/08/24;00:12:09;1.014;-0.035;0.078;-0.0024434609804302454;-0.010995574295520782;0.0036651913542300463
01:00:0A:00:00:00:00;1723853530;17/08/24;00:12:10;1.015;-0.036;0.078;-0.0012217304902151227;-0.010995574295520782;0.0036651913542300463
01:00:0A:00:00:00:00;1723853531;17/08/24;00:12:11;1.015;-0.035;0.078;-0.0024434609804302454;-0.010995574295520782;0.0036651913542300463
01:00:0A:00:00:00:00;1723853532;17/08/24;00:12:12;1.014;-0.036;0.078;-0.0024434609804302454;-0.010995574295520782;0.0036651913542300463
01:00:0A:00:00:00:00;1723853533;17/08/24;00:12:13;1.015;-0.035;0.078;-0.0024434609804302454;-0.010995574295520782;0.0036651913542300463
01:00:0A:00:00:00:00;1723853534;17/08/24;00:12:14;1.014;-0.035;0.078;-0.0024434609804302454;-0.010995574295520782;0.0036651913542300463
01:00:0A:00:00:00:00;1723853535;17/08/24;00:12:15;1.014;-0.034;0.078;-0.0024434609804302454;-0.010995574295520782;0.0036651913542300463
01:00:0A:00:00:00:00;1723853536;17/08/24;00:12:16;1.014;-0.035;0.077;-0.0024434609804302454;-0.010995574295520782;0.0036651913542300463
01:00:0A:00:00:00:00;1723853537;17/08/24;00:12:17;1.015;-0.035;0.078;-0.0024434609804302454;-0.010995574295520782;0.0036651913542300463
01:00:0A:00:00:00:00;1723853538;17/08/24;00:12:18;1.016;-0.036;0.078;-0.0024434609804302454;-0.010995574295520782;0.0036651913542300463
01:00:0A:00:00:00:00;1723853539;17/08/24;00:12:19;1.015;-0.035;0.078;-0.0024434609804302454;-0.010995574295520782;0.0036651913542300463
01:00:0A:00:00:00:00;1723853540;17/08/24;00:12:20;1.014;-0.035;0.078;-0.0024434609804302454;-0.010995574295520782;0.0036651913542300463
01:00:0A:00:00:00:00;1723853541;17/08/24;00:12:21;1.015;-0.036;0.078;-0.0024434609804302454;-0.010995574295520782;0.0024434609804302454
01:00:0A:00:00:00:00;1723853542;17/08/24;00:12:22;1.015;-0.034;0.08;-0.0024434609804302454;-0.010995574295520782;0.0036651913542300463
01:00:0A:00:00:00:00;1723853543;17/08/24;00:12:23;1.014;-0.035;0.079;-0.0012217304902151227;-0.010995574295520782;0.0036651913542300463
01:00:0A:00:00:00:00;1723853544;17/08/24;00:12:24;1.015;-0.035;0.078;-0.0024434609804302454;-0.010995574295520782;0.0036651913542300463
01:00:0A:00:00:00:00;1723853545;17/08/24;00:12:25;1.015;-0.034;0.077;-0.0012217304902151227;-0.010995574295520782;0.0036651913542300463
01:00:0A:00:00:00:00;1723853546;17/08/24;00:12:26;1.015;-0.035;0.079;-0.0012217304902151227;-0.010995574295520782;0.0036651913542300463
01:00:0A:00:00:00:00;1723853547;17/08/24;00:12:27;1.016;-0.035;0.079;-0.0012217304902151227;-0.010995574295520782;0.0024434609804302454
01:00:0A:00:00:00:00;1723853548;17/08/24;00:12:28;1.015;-0.035;0.078;-0.0012217304902151227;-0.010995574295520782;0.0036651913542300463
01:00:0A:00:00:00:00;1723853549;17/08/24;00:12:29;1.014;-0.035;0.079;-0.0012217304902151227;-0.010995574295520782;0.0036651913542300463
01:00:0A:00:00:00:00;1723853550;17/08/24;00:12:30;1.014;-0.035;0.079;-0.0012217304902151227;-0.010995574295520782;0.0036651913542300463
01:00:0A:00:00:00:00;1723853551;17/08/24;00:12:31;1.015;-0.035;0.079;-0.0012217304902151227;-0.010995574295520782;0.0036651913542300463
01:00:0A:00:00:00:00;1723853552;17/08/24;00:12:32;1.015;-0.035;0.078;-0.0012217304902151227;-0.010995574295520782;0.0036651913542300463
01:00:0A:00:00:00:00;1723853553;17/08/24;00:12:33;1.015;-0.036;0.079;-0.0012217304902151227;-0.010995574295520782;0.0036651913542300463
01:00:0A:00:00:00:00;1723853554;17/08/24;00:12:34;1.014;-0.034;0.079;-0.0024434609804302454;-0.010995574295520782;0.0036651913542300463
01:00:0A:00:00:00:00;1723853555;17/08/24;00:12:35;1.015;-0.035;0.079;-0.0012217304902151227;-0.010995574295520782;0.0036651913542300463
01:00:0A:00:00:00:00;1723853556;17/08/24;00:12:36;1.015;-0.035;0.078;-0.0024434609804302454;-0.010995574295520782;0.0036651913542300463
01:00:0A:00:00:00:00;1723853557;17/08/24;00:12:37;1.014;-0.035;0.078;-0.0024434609804302454;-0.010995574295520782;0.0036651913542300463
01:00:0A:00:00:00:00;1723853558;17/08/24;00:12:38;1.015;-0.035;0.078;-0.0024434609804302454;-0.010995574295520782;0.0036651913542300463
01:00:0A:00:00:00:00;1723853559;17/08/24;00:12:39;1.014;-0.034;0.079;-0.0024434609804302454;-0.010995574295520782;0.0036651913542300463
01:00:0A:00:00:00:00;1723853560;17/08/24;00:12:40;1.015;-0.035;0.079;-0.0012217304902151227;-0.010995574295520782;0.0036651913542300463
01:00:0A:00:00:00:00;1723853561;17/08/24;00:12:41;1.015;-0.035;0.079;-0.0012217304902151227;-0.010995574295520782;0.0036651913542300463
01:00:0A:00:00:00:00;1723853562;17/08/24;00:12:42;1.014;-0.035;0.079;-0.0012217304902151227;-0.010995574295520782;0.0036651913542300463
01:00:0A:00:00:00:00;1723853563;17/08/24;00:12:43;1.015;-0.035;0.079;-0.0012217304902151227;-0.010995574295520782;0.0036651913542300463
01:00:0A:00:00:00:00;1723853564;17/08/24;00:12:44;1.014;-0.035;0.078;-0.0012217304902151227;-0.010995574295520782;0.0036651913542300463
01:00:0A:00:00:00:00;1723853565;17/08/24;00:12:45;1.014;-0.036;0.079;-0.0024434609804302454;-0.010995574295520782;0.0036651913542300463
01:00:0A:00:00:00:00;1723853566;17/08/24;00:12:46;1.015;-0.036;0.08;-0.0012217304902151227;-0.010995574295520782;0.0036651913542300463
01:00:0A:00:00:00:00;1723853567;17/08/24;00:12:47;1.014;-0.035;0.078;-0.0012217304902151227;-0.010995574295520782;0.0036651913542300463
01:00:0A:00:00:00:00;1723853568;17/08/24;00:12:48;1.015;-0.036;0.078;-0.0012217304902151227;-0.010995574295520782;0.0036651913542300463
01:00:0A:00:00:00:00;1723853569;17/08/24;00:12:49;1.014;-0.036;0.079;-0.0012217304902151227;-0.010995574295520782;0.0036651913542300463
01:00:0A:00:00:00:00;1723853570;17/08/24;00:12:50;1.014;-0.034;0.08;-0.0012217304902151227;-0.010995574295520782;0.0036651913542300463
01:00:0A:00:00:00:00;1723853571;17/08/24;00:12:51;1.014;-0.036;0.079;-0.0012217304902151227;-0.010995574295520782;0.0036651913542300463
01:00:0A:00:00:00:00;1723853572;17/08/24;00:12:52;1.015;-0.035;0.079;-0.0012217304902151227;-0.010995574295520782;0.0036651913542300463
01:00:0A:00:00:00:00;1723853573;17/08/24;00:12:53;1.015;-0.035;0.079;-0.0012217304902151227;-0.010995574295520782;0.0024434609804302454
01:00:0A:00:00:00:00;1723853574;17/08/24;00:12:54;1.014;-0.035;0.079;-0.0012217304902151227;-0.010995574295520782;0.0036651913542300463
01:00:0A:00:00:00:00;1723853575;17/08/24;00:12:55;1.015;-0.036;0.078;-0.0012217304902151227;-0.010995574295520782;0.0036651913542300463
01:00:0A:00:00:00:00;1723853576;17/08/24;00:12:56;1.015;-0.035;0.08;-0.0012217304902151227;-0.010995574295520782;0.0036651913542300463
01:00:0A:00:00:00:00;1723853577;17/08/24;00:12:57;1.015;-0.035;0.079;-0.0012217304902151227;-0.010995574295520782;0.0036651913542300463
01:00:0A:00:00:00:00;1723853578;17/08/24;00:12:58;1.015;-0.035;0.079;-0.0012217304902151227;-0.010995574295520782;0.0036651913542300463
01:00:0A:00:00:00:00;1723853579;17/08/24;00:12:59;1.014;-0.036;0.079;-0.0012217304902151227;-0.010995574295520782;0.0024434609804302454
01:00:0A:00:00:00:00;1723853580;17/08/24;00:13:00;1.015;-0.035;0.078;-0.0012217304902151227;-0.010995574295520782;0.0036651913542300463
01:00:0A:00:00:00:00;1723853581;17/08/24;00:13:01;1.016;-0.035;0.079;-0.0012217304902151227;-0.010995574295520782;0.0024434609804302454
01:00:0A:00:00:00:00;1723853582;17/08/24;00:13:02;1.014;-0.036;0.079;-0.0012217304902151227;-0.010995574295520782;0.0036651913542300463
01:00:0A:00:00:00:00;1723853583;17/08/24;00:13:03;1.016;-0.036;0.079;-0.0012217304902151227;-0.010995574295520782;0.0036651913542300463
01:00:0A:00:00:00:00;1723853584;17/08/24;00:13:04;1.014;-0.036;0.079;-0.0012217304902151227;-0.010995574295520782;0.0036651913542300463
01:00:0A:00:00:00:00;1723853585;17/08/24;00:13:05;1.014;-0.036;0.079;-0.0012217304902151227;-0.010995574295520782;0.0036651913542300463
01:00:0A:00:00:00:00;1723853586;17/08/24;00:13:06;1.014;-0.035;0.079;-0.0012217304902151227;-0.010995574295520782;0.0036651913542300463
01:00:0A:00:00:00:00;1723853587;17/08/24;00:13:07;1.014;-0.036;0.079;-0.0012217304902151227;-0.010995574295520782;0.0036651913542300463
01:00:0A:00:00:00:00;1723853588;17/08/24;00:13:08;1.015;-0.035;0.079;-0.0012217304902151227;-0.010995574295520782;0.0036651913542300463
01:00:0A:00:00:00:00;1723853589;17/08/24;00:13:09;1.014;-0.036;0.079;-0.0012217304902151227;-0.010995574295520782;0.0036651913542300463
01:00:0A:00:00:00:00;1723853590;17/08/24;00:13:10;1.015;-0.035;0.078;-0.0012217304902151227;-0.010995574295520782;0.0036651913542300463
01:00:0A:00:00:00:00;1723853591;17/08/24;00:13:11;1.015;-0.035;0.079;-0.0012217304902151227;-0.010995574295520782;0.0036651913542300463
01:00:0A:00:00:00:00;1723853592;17/08/24;00:13:12;1.014;-0.034;0.079;0.0;-0.010995574295520782;0.0024434609804302454
01:00:0A:00:00:00:00;1723853593;17/08/24;00:13:13;1.015;-0.035;0.079;0.0;-0.010995574295520782;0.0036651913542300463
01:00:0A:00:00:00:00;1723853594;17/08/24;00:13:14;1.014;-0.035;0.077;0.0;-0.010995574295520782;0.0036651913542300463
01:00:0A:00:00:00:00;1723853595;17/08/24;00:13:15;1.014;-0.036;0.078;0.0;-0.010995574295520782;0.0036651913542300463
01:00:0A:00:00:00:00;1723853596;17/08/24;00:13:16;1.015;-0.035;0.079;0.0;-0.010995574295520782;0.0036651913542300463
01:00:0A:00:00:00:00;1723853597;17/08/24;00:13:17;1.015;-0.035;0.079;0.0;-0.010995574295520782;0.0024434609804302454
01:00:0A:00:00:00:00;1723853598;17/08/24;00:13:18;1.015;-0.035;0.079;0.0;-0.010995574295520782;0.0024434609804302454
01:00:0A:00:00:00:00;1723853599;17/08/24;00:13:19;1.014;-0.035;0.08;0.0073303827084600925;-0.006108652334660292;0.0024434609804302454
01:00:0A:00:00:00:00;1723853600;17/08/24;00:13:20;1.013;-0.036;0.077;0.06230825558304787;-0.013439035043120384;0.006108652334660292
01:00:0A:00:00:00:00;1723853601;17/08/24;00:13:21;1.016;-0.033;0.079;0.10384709388017654;-0.009773843921720982;0.0073303827084600925
01:00:0A:00:00:00:00;1723853602;17/08/24;00:13:22;1.014;-0.034;0.083;0.09285151958465576;-0.009773843921720982;0.009773843921720982
01:00:0A:00:00:00:00;1723853603;17/08/24;00:13:23;1.014;-0.037;0.084;0.06475171446800232;-0.015882495790719986;0.010995574295520782
01:00:0A:00:00:00:00;1723853604;17/08/24;00:13:24;1.014;-0.035;0.078;0.04764748737215996;-0.018325956538319588;0.0012217304902151227
01:00:0A:00:00:00:00;1723853605;17/08/24;00:13:25;1.014;-0.032;0.076;0.05009094998240471;-0.006108652334660292;0.006108652334660292
01:00:0A:00:00:00:00;1723853606;17/08/24;00:13:26;1.014;-0.037;0.081;0.04642575979232788;-0.012217304669320583;0.009773843921720982
01:00:0A:00:00:00:00;1723853607;17/08/24;00:13:27;1.015;-0.036;0.077;0.045204028487205505;-0.018325956538319588;0.0012217304902151227
01:00:0A:00:00:00:00;1723853608;17/08/24;00:13:28;1.015;-0.033;0.077;0.04764748737215996;-0.0073303827084600925;0.006108652334660292
01:00:0A:00:00:00:00;1723853609;17/08/24;00:13:29;1.014;-0.036;0.082;0.042760565876960754;-0.012217304669320583;0.00855211354792118
01:00:0A:00:00:00:00;1723853610;17/08/24;00:13:30;1.015;-0.035;0.078;0.042760565876960754;-0.01710422709584236;0.0024434609804302454
01:00:0A:00:00:00:00;1723853611;17/08/24;00:13:31;1.015;-0.033;0.078;0.04398229718208313;-0.0073303827084600925;0.006108652334660292
01:00:0A:00:00:00:00;1723853612;17/08/24;00:13:32;1.014;-0.035;0.081;0.04153883829712868;-0.012217304669320583;0.00855211354792118
01:00:0A:00:00:00:00;1723853613;17/08/24;00:13:33;1.015;-0.036;0.077;0.040317103266716;-0.015882495790719986;0.0024434609804302454
01:00:0A:00:00:00:00;1723853614;17/08/24;00:13:34;1.016;-0.034;0.077;0.04153883829712868;-0.0073303827084600925;0.006108652334660292
01:00:0A:00:00:00:00;1723853615;17/08/24;00:13:35;1.015;-0.036;0.081;0.03787364438176155;-0.013439035043120384;0.00855211354792118
01:00:0A:00:00:00:00;1723853616;17/08/24;00:13:36;1.015;-0.036;0.077;0.03787364438176155;-0.014660765416920185;0.0024434609804302454
01:00:0A:00:00:00:00;1723853617;17/08/24;00:13:37;1.014;-0.033;0.078;0.040317103266716;-0.00855211354792118;0.004886921960860491
01:00:0A:00:00:00:00;1723853618;17/08/24;00:13:38;1.016;-0.036;0.079;0.036651913076639175;-0.013439035043120384;0.0073303827084600925
01:00:0A:00:00:00:00;1723853619;17/08/24;00:13:39;1.016;-0.035;0.078;0.036651913076639175;-0.014660765416920185;0.0036651913542300463
01:00:0A:00:00:00:00;1723853620;17/08/24;00:13:40;1.015;-0.034;0.078;0.03787364438176155;-0.00855211354792118;0.006108652334660292
01:00:0A:00:00:00:00;1723853621;17/08/24;00:13:41;1.015;-0.036;0.081;0.0354301817715168;-0.013439035043120384;0.0073303827084600925
01:00:0A:00:00:00:00;1723853622;17/08/24;00:13:42;1.014;-0.034;0.077;0.0354301817715168;-0.013439035043120384;0.0036651913542300463
01:00:0A:00:00:00:00;1723853623;17/08/24;00:13:43;1.015;-0.034;0.079;0.036651913076639175;-0.00855211354792118;0.006108652334660292
01:00:0A:00:00:00:00;1723853624;17/08/24;00:13:44;1.014;-0.036;0.081;0.03420845419168472;-0.013439035043120384;0.0073303827084600925
01:00:0A:00:00:00:00;1723853625;17/08/24;00:13:45;1.015;-0.036;0.078;0.0354301817715168;-0.013439035043120384;0.0036651913542300463
01:00:0A:00:00:00:00;1723853626;17/08/24;00:13:46;1.016;-0.033;0.079;0.0354301817715168;-0.00855211354792118;0.006108652334660292
01:00:0A:00:00:00:00;1723853627;17/08/24;00:13:47;1.015;-0.036;0.08;0.03298672288656235;-0.013439035043120384;0.006108652334660292
01:00:0A:00:00:00:00;1723853628;17/08/24;00:13:48;1.013;-0.035;0.077;0.03420845419168472;-0.012217304669320583;0.0036651913542300463
01:00:0A:00:00:00:00;1723853629;17/08/24;00:13:49;1.014;-0.034;0.079;0.03420845419168472;-0.009773843921720982;0.006108652334660292
01:00:0A:00:00:00:00;1723853630;17/08/24;00:13:50;1.014;-0.035;0.08;0.03176499158143997;-0.013439035043120384;0.006108652334660292
01:00:0A:00:00:00:00;1723853631;17/08/24;00:13:51;1.015;-0.035;0.077;0.03298672288656235;-0.012217304669320583;0.0036651913542300463
01:00:0A:00:00:00:00;1723853632;17/08/24;00:13:52;1.015;-0.034;0.079;0.03298672288656235;-0.009773843921720982;0.006108652334660292
01:00:0A:00:00:00:00;1723853633;17/08/24;00:13:53;1.014;-0.036;0.079;0.03176499158143997;-0.013439035043120384;0.006108652334660292
01:00:0A:00:00:00:00;1723853634;17/08/24;00:13:54;1.015;-0.034;0.077;0.03298672288656235;-0.012217304669320583;0.0036651913542300463
01:00:0A:00:00:00:00;1723853635;17/08/24;00:13:55;1.014;-0.034;0.079;0.03176499158143997;-0.009773843921720982;0.006108652334660292
01:00:0A:00:00:00:00;1723853636;17/08/24;00:13:56;1.015;-0.036;0.079;0.030543262138962746;-0.013439035043120384;0.004886921960860491
01:00:0A:00:00:00:00;1723853637;17/08/24;00:13:57;1.014;-0.036;0.079;0.03176499158143997;-0.010995574295520782;0.0036651913542300463
01:00:0A:00:00:00:00;1723853638;17/08/24;00:13:58;1.014;-0.035;0.08;0.03176499158143997;-0.010995574295520782;0.006108652334660292
01:00:0A:00:00:00:00;1723853639;17/08/24;00:13:59;1.014;-0.035;0.078;0.030543262138962746;-0.013439035043120384;0.006108652334660292
01:00:0A:00:00:00:00;1723853640;17/08/24;00:14:00;1.015;-0.036;0.077;0.03176499158143997;-0.010995574295520782;0.0036651913542300463
01:00:0A:00:00:00:00;1723853641;17/08/24;00:14:01;1.015;-0.034;0.079;0.030543262138962746;-0.010995574295520782;0.006108652334660292
01:00:0A:00:00:00:00;1723853642;17/08/24;00:14:02;1.014;-0.036;0.079;0.030543262138962746;-0.013439035043120384;0.004886921960860491
01:00:0A:00:00:00:00;1723853643;17/08/24;00:14:03;1.015;-0.035;0.079;0.030543262138962746;-0.010995574295520782;0.0036651913542300463
01:00:0A:00:00:00:00;1723853644;17/08/24;00:14:04;1.015;-0.036;0.08;0.030543262138962746;-0.010995574295520782;0.006108652334660292
01:00:0A:00:00:00:00;1723853645;17/08/24;00:14:05;1.015;-0.036;0.078;0.02932153083384037;-0.012217304669320583;0.004886921960860491
01:00:0A:00:00:00:00;1723853646;17/08/24;00:14:06;1.016;-0.035;0.078;0.030543262138962746;-0.010995574295520782;0.004886921960860491
01:00:0A:00:00:00:00;1723853647;17/08/24;00:14:07;1.015;-0.034;0.079;0.02932153083384037;-0.010995574295520782;0.006108652334660292
01:00:0A:00:00:00:00;1723853648;17/08/24;00:14:08;1.014;-0.036;0.079;0.02932153083384037;-0.012217304669320583;0.004886921960860491
01:00:0A:00:00:00:00;1723853649;17/08/24;00:14:09;1.014;-0.035;0.079;0.030543262138962746;-0.010995574295520782;0.0036651913542300463
01:00:0A:00:00:00:00;1723853650;17/08/24;00:14:10;1.014;-0.035;0.08;0.02932153083384037;-0.010995574295520782;0.006108652334660292
01:00:0A:00:00:00:00;1723853651;17/08/24;00:14:11;1.015;-0.036;0.079;0.02932153083384037;-0.012217304669320583;0.004886921960860491
01:00:0A:00:00:00:00;1723853652;17/08/24;00:14:12;1.014;-0.035;0.078;0.030543262138962746;-0.010995574295520782;0.004886921960860491
01:00:0A:00:00:00:00;1723853653;17/08/24;00:14:13;1.015;-0.037;0.079;0.02932153083384037;-0.012217304669320583;0.006108652334660292
01:00:0A:00:00:00:00;1723853654;17/08/24;00:14:14;1.014;-0.035;0.08;0.02932153083384037;-0.012217304669320583;0.004886921960860491
01:00:0A:00:00:00:00;1723853655;17/08/24;00:14:15;1.015;-0.036;0.079;0.02932153083384037;-0.010995574295520782;0.004886921960860491
01:00:0A:00:00:00:00;1723853656;17/08/24;00:14:16;1.014;-0.034;0.078;0.02932153083384037;-0.012217304669320583;0.006108652334660292
01:00:0A:00:00:00:00;1723853657;17/08/24;00:14:17;1.015;-0.036;0.079;0.02932153083384037;-0.012217304669320583;0.004886921960860491
01:00:0A:00:00:00:00;1723853658;17/08/24;00:14:18;1.014;-0.028;0.078;0.030543262138962746;0.00855211354792118;-0.0036651913542300463
01:00:0A:00:00:00:00;1723853659;17/08/24;00:14:19;0.996;-0.025;0.069;0.024434609338641167;-0.06108652427792549;0.013439035043120384
01:00:0A:00:00:00:00;1723853660;17/08/24;00:14:20;0.993;-0.054;0.081;0.04642575979232788;0.0024434609804302454;0.042760565876960754
01:00:0A:00:00:00:00;1723853661;17/08/24;00:14:21;1.033;-0.042;0.101;0.045204028487205505;0.036651913076639175;0.025656338781118393
01:00:0A:00:00:00:00;1723853662;17/08/24;00:14:22;1.06;-0.067;0.14;0.015882495790719986;0.03420845419168472;-0.05375614017248154
01:00:0A:00:00:00:00;1723853663;17/08/24;00:14:23;1.071;-0.082;0.022;0.039095375686883926;-0.03298672288656235;0.051312677562236786
01:00:0A:00:00:00:00;1723853664;17/08/24;00:14:24;1.021;0.014;-0.115;0.17959438264369965;0.025656338781118393;-0.0073303827084600925
01:00:0A:00:00:00:00;1723853665;17/08/24;00:14:25;0.875;-0.057;0.276;0.08307767659425735;0.20647244155406952;0.2480112910270691
01:00:0A:00:00:00:00;1723853666;17/08/24;00:14:26;0.986;0.137;-0.002;-0.06475171446800232;-0.5143485069274902;-0.5277875661849976
01:00:0A:00:00:00:00;1723853667;17/08/24;00:14:27;1.067;0.085;-0.033;0.019547687843441963;1.441641926765442;0.6914994716644287
01:00:0A:00:00:00:00;1723853668;17/08/24;00:14:28;0.716;-0.315;0.731;-0.48869219422340393;0.22602014243602753;-0.2883284091949463
01:00:0A:00:00:00:00;1723853669;17/08/24;00:14:29;0.98;0.106;-0.371;-0.7941248416900635;0.1417207270860672;1.0348056554794312
01:00:0A:00:00:00:00;1723853670;17/08/24;00:14:30;0.918;-0.447;0.061;-0.4996877610683441;0.39217546582221985;-0.49846604466438293
01:00:0A:00:00:00:00;1723853671;17/08/24;00:14:31;0.996;-0.312;-0.03;-0.2565633952617645;-0.6206390857696533;-0.5595525503158569
01:00:0A:00:00:00:00;1723853672;17/08/24;00:14:32;0.981;0.271;-0.195;0.004886921960860491;0.08796459436416626;0.3323107063770294
01:00:0A:00:00:00:00;1723853673;17/08/24;00:14:33;1.092;-0.131;0.211;0.05497787147760391;-0.09040805697441101;0.06475171446800232
01:00:0A:00:00:00:00;1723853674;17/08/24;00:14:34;0.886;0.215;-0.053;-0.06230825558304787;-0.375071257352829;-0.3090977966785431
01:00:0A:00:00:00:00;1723853675;17/08/24;00:14:35;0.949;-0.244;0.243;-0.45692718029022217;0.12339477241039276;-0.051312677562236786
01:00:0A:00:00:00:00;1723853676;17/08/24;00:14:36;0.96;0.115;0.339;-0.875980794429779;-0.9456194043159485;-0.5693264007568359
01:00:0A:00:00:00:00;1723853677;17/08/24;00:14:37;1.051;0.068;0.121;-0.9724974632263184;0.1062905490398407;0.6511822938919067
01:00:0A:00:00:00:00;1723853678;17/08/24;00:14:38;1.0;-0.292;-0.271;-0.4153883755207062;-0.10506881773471832;-0.6939429044723511
01:00:0A:00:00:00:00;1723853679;17/08/24;00:14:39;1.007;0.294;0.298;-0.5155702233314514;-0.5668829083442688;0.0024434609804302454
01:00:0A:00:00:00:00;1723853680;17/08/24;00:14:40;0.993;0.04;-0.437;-0.4141666293144226;-0.2675589621067047;-0.11728612333536148
01:00:0A:00:00:00:00;1723853681;17/08/24;00:14:41;1.002;-0.28;-0.102;0.059864792972803116;0.21013763546943665;0.46670106053352356
01:00:0A:00:00:00:00;1723853682;17/08/24;00:14:42;1.012;0.017;0.141;0.23457224667072296;0.1820378452539444;-0.5632177591323853
01:00:0A:00:00:00:00;1723853683;17/08/24;00:14:43;0.837;0.513;0.025;-0.3384193480014801;-0.6548475623130798;-1.842369556427002
01:00:0A:00:00:00:00;1723853684;17/08/24;00:14:44;0.912;-0.429;0.18;-0.5925393104553223;-0.21380282938480377;0.9138543605804443
01:00:0A:00:00:00:00;1723853685;17/08/24;00:14:45;0.983;-0.183;-0.093;0.22113320231437683;0.4239404499530792;-0.6878342032432556
01:00:0A:00:00:00:00;1723853686;17/08/24;00:14:46;0.964;0.015;0.162;0.01710422709584236;-0.3933972120285034;0.5791001915931702
01:00:0A:00:00:00:00;1723853687;17/08/24;00:14:47;0.948;-0.234;-0.174;0.29077184200286865;-0.14782939851284027;-0.3640756905078888
01:00:0A:00:00:00:00;1723853688;17/08/24;00:14:48;1.035;0.113;0.155;0.3543018400669098;0.6658430695533752;-0.7562511563301086
01:00:0A:00:00:00:00;1723853689;17/08/24;00:14:49;0.887;0.499;0.304;-0.19547687470912933;-0.6548475623130798;-0.4349360466003418
01:00:0A:00:00:00:00;1723853690;17/08/24;00:14:50;0.831;0.115;-0.555;-0.29565879702568054;-0.5094615817070007;0.3897320330142975
01:00:0A:00:00:00:00;1723853691;17/08/24;00:14:51;0.87;-0.19;-0.389;0.18448130786418915;0.9651670455932617;1.0494663715362549
01:00:0A:00:00:00:00;1723853692;17/08/24;00:14:52;0.906;-0.045;0.36;0.05864306166768074;-0.3946189284324646;-1.3878858089447021
01:00:0A:00:00:00:00;1723853693;17/08/24;00:14:53;0.887;0.44;0.258;-0.5522221922874451;-0.5436700582504272;-0.4202752709388733
01:00:0A:00:00:00:00;1723853694;17/08/24;00:14:54;0.799;0.565;0.151;-1.0616837739944458;-1.4049899578094482;-0.2321287840604782
01:00:0A:00:00:00:00;1723853695;17/08/24;00:14:55;0.82;0.023;-0.589;-0.5778785347938538;-0.9615018963813782;2.101376533508301
01:00:0A:00:00:00:00;1723853696;17/08/24;00:14:56;0.968;-0.223;0.305;-0.37751471996307373;1.1398744583129883;-0.5607742667198181
01:00:0A:00:00:00:00;1723853697;17/08/24;00:14:57;0.925;0.35;0.099;-0.8002334833145142;-0.5619960427284241;-0.8014551997184753
01:00:0A:00:00:00:00;1723853698;17/08/24;00:14:58;1.0;-0.265;0.123;-1.0702358484268188;-0.1869247555732727;0.5265658497810364
01:00:0A:00:00:00:00;1723853699;17/08/24;00:14:59;0.579;-0.621;0.593;-1.5357152223587036;0.9101892113685608;-0.8662068843841553
01:00:0A:00:00:00:00;1723853700;17/08/24;00:15:00;0.634;-0.584;0.528;-1.1582003831863403;1.1056660413742065;-1.7495180368423462
01:00:0A:00:00:00:00;1723853701;17/08/24;00:15:01;0.882;0.472;0.125;-1.9755382537841797;-0.8698720932006836;-0.012217304669320583
01:00:0A:00:00:00:00;1723853702;17/08/24;00:15:02;0.917;0.235;0.216;-2.344500780105591;-1.9547687768936157;1.0616837739944458
01:00:0A:00:00:00:00;1723853703;17/08/24;00:15:03;0.561;0.103;0.899;-3.260798692703247;-0.07941248267889023;-0.5571090579032898
01:00:0A:00:00:00:00;1723853704;17/08/24;00:15:04;1.002;0.153;0.669;-2.911383867263794;0.6108652353286743;-1.4440854787826538
01:00:0A:00:00:00:00;1723853705;17/08/24;00:15:05;0.967;0.38;-0.223;-1.909564733505249;-0.5827654600143433;0.8136724829673767
01:00:0A:00:00:00:00;1723853706;17/08/24;00:15:06;0.997;0.171;-0.277;-2.183232307434082;0.11239919811487198;0.4092797040939331
01:00:0A:00:00:00:00;1723853707;17/08/24;00:15:07;1.018;-0.301;-0.1;-1.5540411472320557;0.44715335965156555;-0.1111774742603302
01:00:0A:00:00:00:00;1723853708;17/08/24;00:15:08;1.055;-0.097;0.151;-1.0091493129730225;0.5045746564865112;-0.22113320231437683
01:00:0A:00:00:00:00;1723853709;17/08/24;00:15:09;0.992;-0.241;0.414;-0.9248499870300293;-0.2785545289516449;-0.3995058536529541
