Source;Epoch timestamp (UTC);Date;Time (UTC);Accel X (G);Accel Y (G);Accel Z (G);Gyro X (rad/s);Gyro Y (rad/s);Gyro Z (rad/s)
01:00:0A:00:00:00:00;1726012816;11/09/24;00:00:16;1.012;0.01;0.122;-0.03420845419168472;-0.0073303827084600925;-0.039095375686883926
01:00:0A:00:00:00:00;1726012817;11/09/24;00:00:17;1.01;0.026;0.115;-0.05253440886735916;-0.024434609338641167;0.00855211354792118
01:00:0A:00:00:00:00;1726012818;11/09/24;00:00:18;1.009;-0.004;0.112;-0.05742133408784866;-0.0073303827084600925;0.015882495790719986
01:00:0A:00:00:00:00;1726012819;11/09/24;00:00:19;1.009;0.009;0.121;-0.03298672288656235;-0.006108652334660292;-0.028099799528717995
01:00:0A:00:00:00:00;1726012820;11/09/24;00:00:20;1.01;0.022;0.117;-0.04886921867728233;-0.025656338781118393;0.014660765416920185
01:00:0A:00:00:00:00;1726012821;11/09/24;00:00:21;1.012;0.0;0.111;-0.04886921867728233;-0.013439035043120384;0.013439035043120384
01:00:0A:00:00:00:00;1726012822;11/09/24;00:00:22;1.013;0.012;0.122;-0.030543262138962746;-0.004886921960860491;-0.024434609338641167
01:00:0A:00:00:00:00;1726012823;11/09/24;00:00:23;1.015;0.019;0.12;-0.04153883829712868;-0.02076941914856434;0.010995574295520782
01:00:0A:00:00:00:00;1726012824;11/09/24;00:00:24;1.016;0.001;0.108;-0.04153883829712868;-0.009773843921720982;0.009773843921720982
01:00:0A:00:00:00:00;1726012825;11/09/24;00:00:25;1.012;0.01;0.121;-0.02687807008624077;0.0012217304902151227;-0.02076941914856434
01:00:0A:00:00:00:00;1726012826;11/09/24;00:00:26;1.009;0.016;0.12;-0.03420845419168472;-0.02321287989616394;0.0073303827084600925
01:00:0A:00:00:00:00;1726012827;11/09/24;00:00:27;1.008;0.001;0.11;-0.03298672288656235;-0.012217304669320583;0.0073303827084600925
01:00:0A:00:00:00:00;1726012828;11/09/24;00:00:28;1.01;0.01;0.119;-0.02321287989616394;-0.0012217304902151227;-0.012217304669320583
01:00:0A:00:00:00:00;1726012829;11/09/24;00:00:29;1.011;0.015;0.119;-0.025656338781118393;-0.02687807008624077;0.0073303827084600925
01:00:0A:00:00:00:00;1726012830;11/09/24;00:00:30;1.015;0.002;0.11;-0.025656338781118393;-0.013439035043120384;0.006108652334660292
01:00:0A:00:00:00:00;1726012831;11/09/24;00:00:31;1.015;0.01;0.121;-0.018325956538319588;-0.0012217304902151227;-0.0073303827084600925
01:00:0A:00:00:00:00;1726012832;11/09/24;00:00:32;1.014;0.014;0.119;-0.018325956538319588;-0.02321287989616394;0.0036651913542300463
01:00:0A:00:00:00:00;1726012833;11/09/24;00:00:33;1.014;0.006;0.109;-0.019547687843441963;-0.010995574295520782;0.0024434609804302454
01:00:0A:00:00:00:00;1726012834;11/09/24;00:00:34;1.012;0.009;0.121;-0.014660765416920185;0.0;-0.006108652334660292
01:00:0A:00:00:00:00;1726012835;11/09/24;00:00:35;1.011;0.012;0.118;-0.013439035043120384;-0.019547687843441963;0.0024434609804302454
01:00:0A:00:00:00:00;1726012836;11/09/24;00:00:36;1.012;0.007;0.108;-0.014660765416920185;-0.012217304669320583;0.0024434609804302454
01:00:0A:00:00:00:00;1726012837;11/09/24;00:00:37;1.012;0.008;0.12;-0.012217304669320583;-0.0024434609804302454;-0.0024434609804302454
01:00:0A:00:00:00:00;1726012838;11/09/24;00:00:38;1.012;0.01;0.118;-0.009773843921720982;-0.021991148591041565;0.0036651913542300463
01:00:0A:00:00:00:00;1726012839;11/09/24;00:00:39;1.012;0.008;0.112;-0.012217304669320583;-0.009773843921720982;0.0036651913542300463
01:00:0A:00:00:00:00;1726012840;11/09/24;00:00:40;1.011;0.009;0.12;-0.010995574295520782;-0.0024434609804302454;0.0024434609804302454
01:00:0A:00:00:00:00;1726012841;11/09/24;00:00:41;1.013;0.01;0.119;-0.006108652334660292;-0.021991148591041565;0.0
01:00:0A:00:00:00:00;1726012842;11/09/24;00:00:42;1.015;0.01;0.112;-0.00855211354792118;-0.010995574295520782;0.0024434609804302454
01:00:0A:00:00:00:00;1726012843;11/09/24;00:00:43;1.013;0.01;0.119;-0.00855211354792118;-0.0024434609804302454;0.0024434609804302454
01:00:0A:00:00:00:00;1726012844;11/09/24;00:00:44;1.011;0.01;0.118;-0.0036651913542300463;-0.018325956538319588;-0.0012217304902151227
01:00:0A:00:00:00:00;1726012845;11/09/24;00:00:45;1.011;0.011;0.111;-0.006108652334660292;-0.010995574295520782;0.0024434609804302454
01:00:0A:00:00:00:00;1726012846;11/09/24;00:00:46;1.011;0.008;0.119;-0.0073303827084600925;-0.004886921960860491;0.006108652334660292
01:00:0A:00:00:00:00;1726012847;11/09/24;00:00:47;1.011;0.008;0.117;-0.0012217304902151227;-0.02076941914856434;0.0024434609804302454
01:00:0A:00:00:00:00;1726012848;11/09/24;00:00:48;1.013;0.012;0.112;-0.0036651913542300463;-0.010995574295520782;0.0024434609804302454
01:00:0A:00:00:00:00;1726012849;11/09/24;00:00:49;1.012;0.008;0.12;-0.006108652334660292;-0.0073303827084600925;0.00855211354792118
01:00:0A:00:00:00:00;1726012850;11/09/24;00:00:50;1.012;0.009;0.117;0.0012217304902151227;-0.01710422709584236;-0.0024434609804302454
01:00:0A:00:00:00:00;1726012851;11/09/24;00:00:51;1.013;0.013;0.112;-0.0012217304902151227;-0.010995574295520782;0.0012217304902151227
01:00:0A:00:00:00:00;1726012852;11/09/24;00:00:52;1.011;0.009;0.119;-0.004886921960860491;-0.0073303827084600925;0.0073303827084600925
01:00:0A:00:00:00:00;1726012853;11/09/24;00:00:53;1.013;0.008;0.117;0.0036651913542300463;-0.01710422709584236;-0.0024434609804302454
01:00:0A:00:00:00:00;1726012854;11/09/24;00:00:54;1.013;0.013;0.114;0.0;-0.0073303827084600925;0.0012217304902151227
01:00:0A:00:00:00:00;1726012855;11/09/24;00:00:55;1.011;0.008;0.117;-0.0036651913542300463;-0.004886921960860491;0.00855211354792118
01:00:0A:00:00:00:00;1726012856;11/09/24;00:00:56;1.012;0.006;0.116;0.004886921960860491;-0.015882495790719986;-0.0036651913542300463
01:00:0A:00:00:00:00;1726012857;11/09/24;00:00:57;1.012;0.013;0.113;0.0024434609804302454;-0.010995574295520782;0.0012217304902151227
01:00:0A:00:00:00:00;1726012858;11/09/24;00:00:58;1.011;0.008;0.119;-0.0012217304902151227;-0.010995574295520782;0.010995574295520782
01:00:0A:00:00:00:00;1726012859;11/09/24;00:00:59;1.011;0.007;0.117;0.006108652334660292;-0.015882495790719986;-0.0036651913542300463
01:00:0A:00:00:00:00;1726012860;11/09/24;00:01:00;1.013;0.014;0.114;0.0036651913542300463;-0.013439035043120384;0.0
01:00:0A:00:00:00:00;1726012861;11/09/24;00:01:01;1.014;0.009;0.117;-0.0012217304902151227;-0.009773843921720982;0.010995574295520782
01:00:0A:00:00:00:00;1726012862;11/09/24;00:01:02;1.014;0.007;0.118;0.00855211354792118;-0.01710422709584236;-0.0036651913542300463
01:00:0A:00:00:00:00;1726012863;11/09/24;00:01:03;1.013;0.014;0.115;0.006108652334660292;-0.009773843921720982;-0.0012217304902151227
01:00:0A:00:00:00:00;1726012864;11/09/24;00:01:04;1.013;0.008;0.116;0.0;-0.00855211354792118;0.012217304669320583
01:00:0A:00:00:00:00;1726012865;11/09/24;00:01:05;1.011;0.006;0.117;0.009773843921720982;-0.012217304669320583;-0.0036651913542300463
01:00:0A:00:00:00:00;1726012866;11/09/24;00:01:06;1.012;0.013;0.114;0.0073303827084600925;-0.00855211354792118;0.0
01:00:0A:00:00:00:00;1726012867;11/09/24;00:01:07;1.011;0.007;0.117;0.0024434609804302454;-0.009773843921720982;0.013439035043120384
01:00:0A:00:00:00:00;1726012868;11/09/24;00:01:08;1.011;0.006;0.115;0.010995574295520782;-0.01710422709584236;-0.0012217304902151227
01:00:0A:00:00:00:00;1726012869;11/09/24;00:01:09;1.012;0.015;0.117;0.009773843921720982;-0.013439035043120384;-0.0012217304902151227
01:00:0A:00:00:00:00;1726012870;11/09/24;00:01:10;1.014;0.008;0.117;0.004886921960860491;-0.009773843921720982;0.012217304669320583
01:00:0A:00:00:00:00;1726012871;11/09/24;00:01:11;1.013;0.006;0.118;0.013439035043120384;-0.012217304669320583;-0.0036651913542300463
01:00:0A:00:00:00:00;1726012872;11/09/24;00:01:12;1.014;0.014;0.116;0.012217304669320583;-0.009773843921720982;0.0
01:00:0A:00:00:00:00;1726012873;11/09/24;00:01:13;1.013;0.01;0.116;0.0073303827084600925;-0.009773843921720982;0.013439035043120384
01:00:0A:00:00:00:00;1726012874;11/09/24;00:01:14;1.012;0.005;0.116;0.01710422709584236;-0.012217304669320583;-0.0024434609804302454
01:00:0A:00:00:00:00;1726012875;11/09/24;00:01:15;1.012;0.014;0.116;0.015882495790719986;-0.009773843921720982;0.0012217304902151227
01:00:0A:00:00:00:00;1726012876;11/09/24;00:01:16;1.012;0.009;0.117;0.009773843921720982;-0.00855211354792118;0.013439035043120384
01:00:0A:00:00:00:00;1726012877;11/09/24;00:01:17;1.013;0.004;0.117;0.019547687843441963;-0.012217304669320583;-0.0012217304902151227
01:00:0A:00:00:00:00;1726012878;11/09/24;00:01:18;1.012;0.015;0.116;0.019547687843441963;-0.010995574295520782;0.0
01:00:0A:00:00:00:00;1726012879;11/09/24;00:01:19;1.011;0.008;0.117;0.012217304669320583;-0.013439035043120384;0.014660765416920185
01:00:0A:00:00:00:00;1726012880;11/09/24;00:01:20;1.013;0.006;0.117;0.021991148591041565;-0.013439035043120384;0.0
01:00:0A:00:00:00:00;1726012881;11/09/24;00:01:21;1.014;0.013;0.116;0.021991148591041565;-0.010995574295520782;0.0
01:00:0A:00:00:00:00;1726012882;11/09/24;00:01:22;1.013;0.009;0.118;0.014660765416920185;-0.0073303827084600925;0.014660765416920185
01:00:0A:00:00:00:00;1726012883;11/09/24;00:01:23;1.012;0.005;0.118;0.02321287989616394;-0.00855211354792118;-0.0012217304902151227
01:00:0A:00:00:00:00;1726012884;11/09/24;00:01:24;1.01;0.013;0.116;0.02321287989616394;-0.010995574295520782;-0.0012217304902151227
01:00:0A:00:00:00:00;1726012885;11/09/24;00:01:25;1.011;0.01;0.117;0.01710422709584236;-0.009773843921720982;0.014660765416920185
01:00:0A:00:00:00:00;1726012886;11/09/24;00:01:26;1.012;0.005;0.116;0.024434609338641167;-0.013439035043120384;0.0
01:00:0A:00:00:00:00;1726012887;11/09/24;00:01:27;1.011;0.014;0.116;0.025656338781118393;-0.012217304669320583;0.0
01:00:0A:00:00:00:00;1726012888;11/09/24;00:01:28;1.013;0.011;0.116;0.018325956538319588;-0.010995574295520782;0.013439035043120384
01:00:0A:00:00:00:00;1726012889;11/09/24;00:01:29;1.012;0.005;0.118;0.024434609338641167;-0.009773843921720982;0.0024434609804302454
01:00:0A:00:00:00:00;1726012890;11/09/24;00:01:30;1.013;0.015;0.115;0.025656338781118393;-0.010995574295520782;-0.0012217304902151227
01:00:0A:00:00:00:00;1726012891;11/09/24;00:01:31;1.013;0.009;0.117;0.018325956538319588;-0.00855211354792118;0.013439035043120384
01:00:0A:00:00:00:00;1726012892;11/09/24;00:01:32;1.012;0.006;0.118;0.025656338781118393;-0.010995574295520782;0.0
01:00:0A:00:00:00:00;1726012893;11/09/24;00:01:33;1.012;0.013;0.116;0.02687807008624077;-0.010995574295520782;-0.0012217304902151227
01:00:0A:00:00:00:00;1726012894;11/09/24;00:01:34;1.013;0.01;0.116;0.018325956538319588;-0.006108652334660292;0.014660765416920185
01:00:0A:00:00:00:00;1726012895;11/09/24;00:01:35;1.011;0.006;0.117;0.025656338781118393;-0.010995574295520782;0.0
01:00:0A:00:00:00:00;1726012896;11/09/24;00:01:36;1.012;0.012;0.116;0.02687807008624077;-0.013439035043120384;-0.0012217304902151227
01:00:0A:00:00:00:00;1726012897;11/09/24;00:01:37;1.012;0.008;0.117;0.019547687843441963;-0.009773843921720982;0.013439035043120384
01:00:0A:00:00:00:00;1726012898;11/09/24;00:01:38;1.013;0.005;0.118;0.025656338781118393;-0.010995574295520782;0.004886921960860491
01:00:0A:00:00:00:00;1726012899;11/09/24;00:01:39;1.012;0.013;0.115;0.02687807008624077;-0.014660765416920185;0.0012217304902151227
01:00:0A:00:00:00:00;1726012900;11/09/24;00:01:40;1.013;0.01;0.116;0.02076941914856434;-0.009773843921720982;0.010995574295520782
01:00:0A:00:00:00:00;1726012901;11/09/24;00:01:41;1.013;0.007;0.119;0.025656338781118393;-0.010995574295520782;0.0024434609804302454
01:00:0A:00:00:00:00;1726012902;11/09/24;00:01:42;1.013;0.013;0.116;0.028099799528717995;-0.012217304669320583;-0.0012217304902151227
01:00:0A:00:00:00:00;1726012903;11/09/24;00:01:43;1.014;0.01;0.115;0.02076941914856434;-0.00855211354792118;0.012217304669320583
01:00:0A:00:00:00:00;1726012904;11/09/24;00:01:44;1.013;0.008;0.118;0.02687807008624077;-0.010995574295520782;0.0024434609804302454
01:00:0A:00:00:00:00;1726012905;11/09/24;00:01:45;1.011;0.011;0.116;0.028099799528717995;-0.012217304669320583;0.0
01:00:0A:00:00:00:00;1726012906;11/09/24;00:01:46;1.011;0.012;0.116;0.021991148591041565;-0.0073303827084600925;0.010995574295520782
01:00:0A:00:00:00:00;1726012907;11/09/24;00:01:47;1.011;0.006;0.117;0.02687807008624077;-0.010995574295520782;0.0024434609804302454
01:00:0A:00:00:00:00;1726012908;11/09/24;00:01:48;1.011;0.013;0.115;0.02932153083384037;-0.013439035043120384;0.0012217304902151227
01:00:0A:00:00:00:00;1726012909;11/09/24;00:01:49;1.012;0.009;0.116;0.02321287989616394;-0.00855211354792118;0.010995574295520782
01:00:0A:00:00:00:00;1726012910;11/09/24;00:01:50;1.012;0.007;0.118;0.02687807008624077;-0.009773843921720982;0.004886921960860491
01:00:0A:00:00:00:00;1726012911;11/09/24;00:01:51;1.013;0.011;0.115;0.02932153083384037;-0.013439035043120384;0.0012217304902151227
01:00:0A:00:00:00:00;1726012912;11/09/24;00:01:52;1.012;0.01;0.116;0.024434609338641167;-0.009773843921720982;0.009773843921720982
01:00:0A:00:00:00:00;1726012913;11/09/24;00:01:53;1.012;0.007;0.118;0.028099799528717995;-0.009773843921720982;0.004886921960860491
01:00:0A:00:00:00:00;1726012914;11/09/24;00:01:54;1.011;0.012;0.116;0.02932153083384037;-0.012217304669320583;0.0012217304902151227
01:00:0A:00:00:00:00;1726012915;11/09/24;00:01:55;1.013;0.011;0.115;0.024434609338641167;-0.0073303827084600925;0.00855211354792118
01:00:0A:00:00:00:00;1726012916;11/09/24;00:01:56;1.011;0.008;0.117;0.02687807008624077;-0.012217304669320583;0.0024434609804302454
01:00:0A:00:00:00:00;1726012917;11/09/24;00:01:57;1.01;0.011;0.116;0.028099799528717995;-0.013439035043120384;0.0012217304902151227
01:00:0A:00:00:00:00;1726012918;11/09/24;00:01:58;1.013;0.01;0.114;0.024434609338641167;-0.009773843921720982;0.009773843921720982
01:00:0A:00:00:00:00;1726012919;11/09/24;00:01:59;1.013;0.007;0.117;0.02687807008624077;-0.010995574295520782;0.0036651913542300463
01:00:0A:00:00:00:00;1726012920;11/09/24;00:02:00;1.012;0.012;0.116;0.028099799528717995;-0.012217304669320583;0.0036651913542300463
01:00:0A:00:00:00:00;1726012921;11/09/24;00:02:01;1.013;0.011;0.117;0.024434609338641167;-0.0073303827084600925;0.00855211354792118
01:00:0A:00:00:00:00;1726012922;11/09/24;00:02:02;1.013;0.007;0.118;0.02687807008624077;-0.00855211354792118;0.0036651913542300463
01:00:0A:00:00:00:00;1726012923;11/09/24;00:02:03;1.011;0.011;0.116;0.028099799528717995;-0.013439035043120384;0.0012217304902151227
01:00:0A:00:00:00:00;1726012924;11/09/24;00:02:04;1.011;0.009;0.116;0.024434609338641167;-0.00855211354792118;0.0073303827084600925
01:00:0A:00:00:00:00;1726012925;11/09/24;00:02:05;1.013;0.008;0.117;0.02687807008624077;-0.010995574295520782;0.004886921960860491
01:00:0A:00:00:00:00;1726012926;11/09/24;00:02:06;1.011;0.012;0.117;0.02687807008624077;-0.013439035043120384;0.0036651913542300463
01:00:0A:00:00:00:00;1726012927;11/09/24;00:02:07;1.013;0.01;0.116;0.024434609338641167;-0.009773843921720982;0.0073303827084600925
01:00:0A:00:00:00:00;1726012928;11/09/24;00:02:08;1.012;0.008;0.118;0.02687807008624077;-0.010995574295520782;0.0024434609804302454
01:00:0A:00:00:00:00;1726012929;11/09/24;00:02:09;1.011;0.01;0.116;0.02687807008624077;-0.012217304669320583;0.0036651913542300463
01:00:0A:00:00:00:00;1726012930;11/09/24;00:02:10;1.012;0.011;0.115;0.024434609338641167;-0.00855211354792118;0.0073303827084600925
01:00:0A:00:00:00:00;1726012931;11/09/24;00:02:11;1.013;0.007;0.118;0.025656338781118393;-0.010995574295520782;0.004886921960860491
01:00:0A:00:00:00:00;1726012932;11/09/24;00:02:12;1.013;0.01;0.116;0.02687807008624077;-0.012217304669320583;0.0024434609804302454
01:00:0A:00:00:00:00;1726012933;11/09/24;00:02:13;1.012;0.01;0.117;0.025656338781118393;-0.0073303827084600925;0.006108652334660292
01:00:0A:00:00:00:00;1726012934;11/09/24;00:02:14;1.011;0.009;0.117;0.02687807008624077;-0.00855211354792118;0.0024434609804302454
01:00:0A:00:00:00:00;1726012935;11/09/24;00:02:15;1.011;0.011;0.115;0.02687807008624077;-0.012217304669320583;0.0036651913542300463
01:00:0A:00:00:00:00;1726012936;11/09/24;00:02:16;1.01;0.009;0.116;0.024434609338641167;-0.010995574295520782;0.006108652334660292
01:00:0A:00:00:00:00;1726012937;11/09/24;00:02:17;1.011;0.0;0.121;0.02321287989616394;-0.019547687843441963;-0.010995574295520782
01:00:0A:00:00:00:00;1726012938;11/09/24;00:02:18;1.007;0.077;0.086;-0.09407324343919754;-0.019547687843441963;-0.0012217304902151227
01:00:0A:00:00:00:00;1726012939;11/09/24;00:02:19;1.013;0.027;0.106;-0.23090705275535583;0.0012217304902151227;0.09407324343919754
01:00:0A:00:00:00:00;1726012940;11/09/24;00:02:20;1.012;-0.028;0.114;-0.18081611394882202;0.0012217304902151227;-0.015882495790719986
01:00:0A:00:00:00:00;1726012941;11/09/24;00:02:21;1.011;0.03;0.127;-0.13805554807186127;-0.0073303827084600925;-0.0757472887635231
01:00:0A:00:00:00:00;1726012942;11/09/24;00:02:22;1.012;0.024;0.115;-0.17959438264369965;-0.04764748737215996;0.045204028487205505
01:00:0A:00:00:00:00;1726012943;11/09/24;00:02:23;1.013;-0.018;0.1;-0.1563815027475357;-0.0012217304902151227;-0.009773843921720982
01:00:0A:00:00:00:00;1726012944;11/09/24;00:02:24;1.009;0.024;0.134;-0.12828169763088226;0.00855211354792118;-0.051312677562236786
01:00:0A:00:00:00:00;1726012945;11/09/24;00:02:25;1.011;0.019;0.12;-0.1466076523065567;-0.05864306166768074;0.025656338781118393
01:00:0A:00:00:00:00;1726012946;11/09/24;00:02:26;1.015;-0.005;0.094;-0.13561207056045532;0.0036651913542300463;-0.009773843921720982
01:00:0A:00:00:00:00;1726012947;11/09/24;00:02:27;1.01;0.015;0.135;-0.11850785464048386;0.018325956538319588;-0.03420845419168472
01:00:0A:00:00:00:00;1726012948;11/09/24;00:02:28;1.011;0.017;0.122;-0.11728612333536148;-0.06352998316287994;0.0073303827084600925
01:00:0A:00:00:00:00;1726012949;11/09/24;00:02:29;1.015;0.001;0.093;-0.11972958594560623;0.0;-0.0036651913542300463
01:00:0A:00:00:00:00;1726012950;11/09/24;00:02:30;1.011;0.009;0.133;-0.10873401165008545;0.018325956538319588;-0.018325956538319588
01:00:0A:00:00:00:00;1726012951;11/09/24;00:02:31;1.013;0.015;0.12;-0.09407324343919754;-0.05619959905743599;-0.0073303827084600925
01:00:0A:00:00:00:00;1726012952;11/09/24;00:02:32;1.013;0.009;0.095;-0.10506881773471832;-0.0036651913542300463;0.0
01:00:0A:00:00:00:00;1726012953;11/09/24;00:02:33;1.011;0.004;0.131;-0.09529497474431992;0.010995574295520782;-0.00855211354792118
01:00:0A:00:00:00:00;1726012954;11/09/24;00:02:34;1.01;0.013;0.12;-0.07696902006864548;-0.05009094998240471;-0.014660765416920185
01:00:0A:00:00:00:00;1726012955;11/09/24;00:02:35;1.012;0.013;0.101;-0.09407324343919754;-0.0024434609804302454;0.004886921960860491
01:00:0A:00:00:00:00;1726012956;11/09/24;00:02:36;1.01;0.002;0.128;-0.08796459436416626;0.00855211354792118;-0.0012217304902151227
01:00:0A:00:00:00:00;1726012957;11/09/24;00:02:37;1.012;0.012;0.12;-0.0659734457731247;-0.04153883829712868;-0.02076941914856434
01:00:0A:00:00:00:00;1726012958;11/09/24;00:02:38;1.014;0.017;0.105;-0.08429940044879913;-0.006108652334660292;0.0073303827084600925
01:00:0A:00:00:00:00;1726012959;11/09/24;00:02:39;1.01;0.001;0.124;-0.07819075137376785;0.006108652334660292;0.0
01:00:0A:00:00:00:00;1726012960;11/09/24;00:02:40;1.011;0.012;0.119;-0.05742133408784866;-0.03298672288656235;-0.021991148591041565
01:00:0A:00:00:00:00;1726012961;11/09/24;00:02:41;1.012;0.017;0.106;-0.07452555745840073;-0.009773843921720982;0.009773843921720982
01:00:0A:00:00:00:00;1726012962;11/09/24;00:02:42;1.012;0.0;0.122;-0.06719517707824707;-0.0024434609804302454;0.0
01:00:0A:00:00:00:00;1726012963;11/09/24;00:02:43;1.011;0.014;0.119;-0.05009094998240471;-0.02687807008624077;-0.02076941914856434
01:00:0A:00:00:00:00;1726012964;11/09/24;00:02:44;1.013;0.015;0.111;-0.0659734457731247;-0.012217304669320583;0.010995574295520782
01:00:0A:00:00:00:00;1726012965;11/09/24;00:02:45;1.012;0.0;0.121;-0.059864792972803116;-0.004886921960860491;0.0012217304902151227
01:00:0A:00:00:00:00;1726012966;11/09/24;00:02:46;1.014;0.011;0.12;-0.045204028487205505;-0.019547687843441963;-0.019547687843441963
01:00:0A:00:00:00:00;1726012967;11/09/24;00:02:47;1.014;0.016;0.112;-0.05864306166768074;-0.012217304669320583;0.010995574295520782
01:00:0A:00:00:00:00;1726012968;11/09/24;00:02:48;1.013;0.001;0.118;-0.05375614017248154;-0.004886921960860491;0.0
01:00:0A:00:00:00:00;1726012969;11/09/24;00:02:49;1.011;0.012;0.118;-0.04153883829712868;-0.018325956538319588;-0.015882495790719986
01:00:0A:00:00:00:00;1726012970;11/09/24;00:02:50;1.011;0.013;0.114;-0.05253440886735916;-0.015882495790719986;0.009773843921720982
01:00:0A:00:00:00:00;1726012971;11/09/24;00:02:51;1.012;0.002;0.116;-0.04764748737215996;-0.0073303827084600925;0.0
01:00:0A:00:00:00:00;1726012972;11/09/24;00:02:52;1.011;0.013;0.12;-0.039095375686883926;-0.013439035043120384;-0.013439035043120384
01:00:0A:00:00:00:00;1726012973;11/09/24;00:02:53;1.013;0.012;0.115;-0.04764748737215996;-0.01710422709584236;0.00855211354792118
01:00:0A:00:00:00:00;1726012974;11/09/24;00:02:54;1.012;0.004;0.116;-0.042760565876960754;-0.00855211354792118;-0.0024434609804302454
01:00:0A:00:00:00:00;1726012975;11/09/24;00:02:55;1.012;0.012;0.119;-0.036651913076639175;-0.010995574295520782;-0.009773843921720982
01:00:0A:00:00:00:00;1726012976;11/09/24;00:02:56;1.013;0.012;0.116;-0.042760565876960754;-0.018325956538319588;0.006108652334660292
01:00:0A:00:00:00:00;1726012977;11/09/24;00:02:57;1.011;0.005;0.115;-0.039095375686883926;-0.009773843921720982;-0.0012217304902151227
01:00:0A:00:00:00:00;1726012978;11/09/24;00:02:58;1.012;0.011;0.12;-0.0354301817715168;-0.010995574295520782;-0.0073303827084600925
01:00:0A:00:00:00:00;1726012979;11/09/24;00:02:59;1.011;0.011;0.116;-0.03787364438176155;-0.01710422709584236;0.004886921960860491
01:00:0A:00:00:00:00;1726012980;11/09/24;00:03:00;1.012;0.007;0.114;-0.03420845419168472;-0.009773843921720982;-0.0024434609804302454
01:00:0A:00:00:00:00;1726012981;11/09/24;00:03:01;1.011;0.011;0.119;-0.03176499158143997;-0.009773843921720982;-0.006108652334660292
01:00:0A:00:00:00:00;1726012982;11/09/24;00:03:02;1.013;0.009;0.115;-0.03420845419168472;-0.018325956538319588;0.004886921960860491
01:00:0A:00:00:00:00;1726012983;11/09/24;00:03:03;1.012;0.008;0.114;-0.030543262138962746;-0.009773843921720982;-0.0012217304902151227
01:00:0A:00:00:00:00;1726012984;11/09/24;00:03:04;1.013;0.012;0.119;-0.02932153083384037;-0.00855211354792118;-0.0036651913542300463
01:00:0A:00:00:00:00;1726012985;11/09/24;00:03:05;1.012;0.009;0.117;-0.02932153083384037;-0.01710422709584236;0.0012217304902151227
01:00:0A:00:00:00:00;1726012986;11/09/24;00:03:06;1.012;0.008;0.114;-0.02687807008624077;-0.009773843921720982;-0.0012217304902151227
01:00:0A:00:00:00:00;1726012987;11/09/24;00:03:07;1.012;0.011;0.119;-0.02687807008624077;-0.00855211354792118;0.0012217304902151227
01:00:0A:00:00:00:00;1726012988;11/09/24;00:03:08;1.012;0.009;0.116;-0.025656338781118393;-0.018325956538319588;0.0024434609804302454
01:00:0A:00:00:00:00;1726012989;11/09/24;00:03:09;1.012;0.009;0.114;-0.02321287989616394;-0.010995574295520782;-0.0012217304902151227
01:00:0A:00:00:00:00;1726012990;11/09/24;00:03:10;1.01;0.011;0.119;-0.024434609338641167;-0.009773843921720982;0.0012217304902151227
01:00:0A:00:00:00:00;1726012991;11/09/24;00:03:11;1.012;0.008;0.117;-0.021991148591041565;-0.01710422709584236;0.0012217304902151227
01:00:0A:00:00:00:00;1726012992;11/09/24;00:03:12;1.013;0.01;0.115;-0.02076941914856434;-0.00855211354792118;-0.0024434609804302454
01:00:0A:00:00:00:00;1726012993;11/09/24;00:03:13;1.012;0.01;0.119;-0.021991148591041565;-0.009773843921720982;0.0024434609804302454
01:00:0A:00:00:00:00;1726012994;11/09/24;00:03:14;1.013;0.009;0.116;-0.018325956538319588;-0.015882495790719986;0.0012217304902151227
01:00:0A:00:00:00:00;1726012995;11/09/24;00:03:15;1.013;0.01;0.116;-0.018325956538319588;-0.010995574295520782;-0.0024434609804302454
01:00:0A:00:00:00:00;1726012996;11/09/24;00:03:16;1.012;0.01;0.12;-0.019547687843441963;-0.009773843921720982;0.0036651913542300463
01:00:0A:00:00:00:00;1726012997;11/09/24;00:03:17;1.013;0.007;0.117;-0.015882495790719986;-0.014660765416920185;-0.0012217304902151227
01:00:0A:00:00:00:00;1726012998;11/09/24;00:03:18;1.012;0.011;0.116;-0.015882495790719986;-0.00855211354792118;0.0
01:00:0A:00:00:00:00;1726012999;11/09/24;00:03:19;1.012;0.01;0.118;-0.018325956538319588;-0.010995574295520782;0.004886921960860491
01:00:0A:00:00:00:00;1726013000;11/09/24;00:03:20;1.012;0.008;0.117;-0.013439035043120384;-0.014660765416920185;-0.0012217304902151227
01:00:0A:00:00:00:00;1726013001;11/09/24;00:03:21;1.011;0.011;0.116;-0.013439035043120384;-0.010995574295520782;-0.0012217304902151227
01:00:0A:00:00:00:00;1726013002;11/09/24;00:03:22;1.012;0.009;0.119;-0.015882495790719986;-0.010995574295520782;0.006108652334660292
01:00:0A:00:00:00:00;1726013003;11/09/24;00:03:23;1.012;0.008;0.117;-0.010995574295520782;-0.013439035043120384;0.0
01:00:0A:00:00:00:00;1726013004;11/09/24;00:03:24;1.013;0.012;0.116;-0.010995574295520782;-0.009773843921720982;-0.0024434609804302454
01:00:0A:00:00:00:00;1726013005;11/09/24;00:03:25;1.013;0.009;0.117;-0.013439035043120384;-0.012217304669320583;0.006108652334660292
01:00:0A:00:00:00:00;1726013006;11/09/24;00:03:26;1.012;0.008;0.116;-0.009773843921720982;-0.014660765416920185;0.0
01:00:0A:00:00:00:00;1726013007;11/09/24;00:03:27;1.011;0.012;0.118;-0.00855211354792118;-0.009773843921720982;-0.0012217304902151227
01:00:0A:00:00:00:00;1726013008;11/09/24;00:03:28;1.013;0.01;0.119;-0.010995574295520782;-0.012217304669320583;0.0073303827084600925
01:00:0A:00:00:00:00;1726013009;11/09/24;00:03:29;1.012;0.007;0.116;-0.0073303827084600925;-0.012217304669320583;-0.0012217304902151227
01:00:0A:00:00:00:00;1726013010;11/09/24;00:03:30;1.013;0.012;0.117;-0.006108652334660292;-0.009773843921720982;-0.0012217304902151227
01:00:0A:00:00:00:00;1726013011;11/09/24;00:03:31;1.011;0.009;0.118;-0.009773843921720982;-0.012217304669320583;0.0073303827084600925
01:00:0A:00:00:00:00;1726013012;11/09/24;00:03:32;1.012;0.006;0.115;-0.004886921960860491;-0.013439035043120384;0.0
01:00:0A:00:00:00:00;1726013013;11/09/24;00:03:33;1.013;0.012;0.117;-0.004886921960860491;-0.009773843921720982;-0.0012217304902151227
01:00:0A:00:00:00:00;1726013014;11/09/24;00:03:34;1.011;0.009;0.117;-0.0073303827084600925;-0.013439035043120384;0.0073303827084600925
01:00:0A:00:00:00:00;1726013015;11/09/24;00:03:35;1.012;0.007;0.116;-0.0036651913542300463;-0.012217304669320583;0.0012217304902151227
01:00:0A:00:00:00:00;1726013016;11/09/24;00:03:36;1.012;0.012;0.117;-0.0024434609804302454;-0.00855211354792118;-0.0012217304902151227
01:00:0A:00:00:00:00;1726013017;11/09/24;00:03:37;1.012;0.009;0.118;-0.004886921960860491;-0.013439035043120384;0.00855211354792118
01:00:0A:00:00:00:00;1726013018;11/09/24;00:03:38;1.011;0.007;0.116;-0.0012217304902151227;-0.012217304669320583;0.0012217304902151227
01:00:0A:00:00:00:00;1726013019;11/09/24;00:03:39;1.011;0.011;0.117;0.0;-0.00855211354792118;-0.0012217304902151227
01:00:0A:00:00:00:00;1726013020;11/09/24;00:03:40;1.013;0.011;0.118;-0.0024434609804302454;-0.013439035043120384;0.00855211354792118
01:00:0A:00:00:00:00;1726013021;11/09/24;00:03:41;1.013;0.007;0.116;0.0012217304902151227;-0.012217304669320583;0.0
01:00:0A:00:00:00:00;1726013022;11/09/24;00:03:42;1.013;0.011;0.117;0.0024434609804302454;-0.00855211354792118;-0.0012217304902151227
01:00:0A:00:00:00:00;1726013023;11/09/24;00:03:43;1.012;0.011;0.117;-0.0012217304902151227;-0.014660765416920185;0.00855211354792118
01:00:0A:00:00:00:00;1726013024;11/09/24;00:03:44;1.013;0.004;0.115;0.0024434609804302454;-0.010995574295520782;0.0012217304902151227
01:00:0A:00:00:00:00;1726013025;11/09/24;00:03:45;1.013;0.013;0.117;0.0036651913542300463;-0.00855211354792118;-0.0012217304902151227
01:00:0A:00:00:00:00;1726013026;11/09/24;00:03:46;1.012;0.01;0.117;0.0012217304902151227;-0.013439035043120384;0.0073303827084600925
01:00:0A:00:00:00:00;1726013027;11/09/24;00:03:47;1.013;0.007;0.115;0.0036651913542300463;-0.012217304669320583;0.0012217304902151227
01:00:0A:00:00:00:00;1726013028;11/09/24;00:03:48;1.011;0.011;0.117;0.004886921960860491;-0.00855211354792118;-0.0012217304902151227
01:00:0A:00:00:00:00;1726013029;11/09/24;00:03:49;1.012;0.011;0.117;0.0024434609804302454;-0.014660765416920185;0.00855211354792118
01:00:0A:00:00:00:00;1726013030;11/09/24;00:03:50;1.012;0.006;0.115;0.006108652334660292;-0.010995574295520782;0.0012217304902151227
01:00:0A:00:00:00:00;1726013031;11/09/24;00:03:51;1.012;0.011;0.117;0.0073303827084600925;-0.00855211354792118;-0.0012217304902151227
01:00:0A:00:00:00:00;1726013032;11/09/24;00:03:52;1.013;0.011;0.117;0.0036651913542300463;-0.014660765416920185;0.00855211354792118
01:00:0A:00:00:00:00;1726013033;11/09/24;00:03:53;1.012;0.007;0.115;0.0073303827084600925;-0.010995574295520782;0.0024434609804302454
01:00:0A:00:00:00:00;1726013034;11/09/24;00:03:54;1.013;0.011;0.118;0.00855211354792118;-0.00855211354792118;-0.0012217304902151227
01:00:0A:00:00:00:00;1726013035;11/09/24;00:03:55;1.013;0.011;0.116;0.004886921960860491;-0.013439035043120384;0.0073303827084600925
01:00:0A:00:00:00:00;1726013036;11/09/24;00:03:56;1.013;0.006;0.115;0.00855211354792118;-0.012217304669320583;0.0036651913542300463
01:00:0A:00:00:00:00;1726013037;11/09/24;00:03:57;1.011;0.011;0.118;0.010995574295520782;-0.0073303827084600925;-0.0024434609804302454
01:00:0A:00:00:00:00;1726013038;11/09/24;00:03:58;1.012;0.011;0.117;0.0073303827084600925;-0.014660765416920185;0.0073303827084600925
01:00:0A:00:00:00:00;1726013039;11/09/24;00:03:59;1.011;0.007;0.115;0.009773843921720982;-0.010995574295520782;0.0036651913542300463
01:00:0A:00:00:00:00;1726013040;11/09/24;00:04:00;1.013;0.01;0.117;0.012217304669320583;-0.00855211354792118;-0.0012217304902151227
01:00:0A:00:00:00:00;1726013041;11/09/24;00:04:01;1.012;0.011;0.118;0.00855211354792118;-0.014660765416920185;0.00855211354792118
01:00:0A:00:00:00:00;1726013042;11/09/24;00:04:02;1.012;0.006;0.114;0.010995574295520782;-0.012217304669320583;0.0036651913542300463
01:00:0A:00:00:00:00;1726013043;11/09/24;00:04:03;1.012;0.01;0.118;0.013439035043120384;-0.0073303827084600925;-0.0012217304902151227
01:00:0A:00:00:00:00;1726013044;11/09/24;00:04:04;1.011;0.011;0.118;0.009773843921720982;-0.013439035043120384;0.0073303827084600925
01:00:0A:00:00:00:00;1726013045;11/09/24;00:04:05;1.011;0.006;0.115;0.012217304669320583;-0.012217304669320583;0.004886921960860491
01:00:0A:00:00:00:00;1726013046;11/09/24;00:04:06;1.012;0.011;0.117;0.014660765416920185;-0.00855211354792118;-0.0024434609804302454
01:00:0A:00:00:00:00;1726013047;11/09/24;00:04:07;1.011;0.011;0.118;0.010995574295520782;-0.013439035043120384;0.0073303827084600925
01:00:0A:00:00:00:00;1726013048;11/09/24;00:04:08;1.014;0.007;0.115;0.012217304669320583;-0.012217304669320583;0.004886921960860491
01:00:0A:00:00:00:00;1726013049;11/09/24;00:04:09;1.012;0.011;0.117;0.015882495790719986;-0.00855211354792118;-0.0024434609804302454
01:00:0A:00:00:00:00;1726013050;11/09/24;00:04:10;1.012;0.012;0.119;0.012217304669320583;-0.013439035043120384;0.00855211354792118
01:00:0A:00:00:00:00;1726013051;11/09/24;00:04:11;1.012;0.008;0.115;0.013439035043120384;-0.012217304669320583;0.004886921960860491
01:00:0A:00:00:00:00;1726013052;11/09/24;00:04:12;1.013;0.011;0.117;0.015882495790719986;-0.0073303827084600925;-0.0012217304902151227
01:00:0A:00:00:00:00;1726013053;11/09/24;00:04:13;1.012;0.012;0.117;0.013439035043120384;-0.013439035043120384;0.0073303827084600925
01:00:0A:00:00:00:00;1726013054;11/09/24;00:04:14;1.011;0.006;0.116;0.014660765416920185;-0.010995574295520782;0.004886921960860491
01:00:0A:00:00:00:00;1726013055;11/09/24;00:04:15;1.012;0.01;0.118;0.01710422709584236;-0.00855211354792118;-0.0024434609804302454
01:00:0A:00:00:00:00;1726013056;11/09/24;00:04:16;1.012;0.012;0.118;0.014660765416920185;-0.012217304669320583;0.0073303827084600925
01:00:0A:00:00:00:00;1726013057;11/09/24;00:04:17;1.012;0.006;0.115;0.015882495790719986;-0.012217304669320583;0.006108652334660292
01:00:0A:00:00:00:00;1726013058;11/09/24;00:04:18;1.012;0.01;0.117;0.019547687843441963;-0.00855211354792118;-0.0024434609804302454
01:00:0A:00:00:00:00;1726013059;11/09/24;00:04:19;1.013;0.012;0.117;0.015882495790719986;-0.012217304669320583;0.0073303827084600925
01:00:0A:00:00:00:00;1726013060;11/09/24;00:04:20;1.013;0.005;0.116;0.015882495790719986;-0.012217304669320583;0.0073303827084600925
01:00:0A:00:00:00:00;1726013061;11/09/24;00:04:21;1.013;0.01;0.117;0.02076941914856434;-0.00855211354792118;-0.0024434609804302454
01:00:0A:00:00:00:00;1726013062;11/09/24;00:04:22;1.012;0.012;0.119;0.01710422709584236;-0.013439035043120384;0.0073303827084600925
01:00:0A:00:00:00:00;1726013063;11/09/24;00:04:23;1.012;0.007;0.115;0.018325956538319588;-0.010995574295520782;0.006108652334660292
01:00:0A:00:00:00:00;1726013064;11/09/24;00:04:24;1.012;0.01;0.117;0.02076941914856434;-0.009773843921720982;-0.0024434609804302454
01:00:0A:00:00:00:00;1726013065;11/09/24;00:04:25;1.012;0.012;0.117;0.018325956538319588;-0.012217304669320583;0.006108652334660292
01:00:0A:00:00:00:00;1726013066;11/09/24;00:04:26;1.013;0.006;0.116;0.018325956538319588;-0.012217304669320583;0.0073303827084600925
01:00:0A:00:00:00:00;1726013067;11/09/24;00:04:27;1.012;0.011;0.117;0.021991148591041565;-0.00855211354792118;-0.0012217304902151227
01:00:0A:00:00:00:00;1726013068;11/09/24;00:04:28;1.012;0.012;0.117;0.019547687843441963;-0.012217304669320583;0.0073303827084600925
01:00:0A:00:00:00:00;1726013069;11/09/24;00:04:29;1.012;0.007;0.115;0.018325956538319588;-0.012217304669320583;0.00855211354792118
01:00:0A:00:00:00:00;1726013070;11/09/24;00:04:30;1.013;0.009;0.116;0.02321287989616394;-0.00855211354792118;-0.0024434609804302454
01:00:0A:00:00:00:00;1726013071;11/09/24;00:04:31;1.013;0.011;0.118;0.019547687843441963;-0.010995574295520782;0.006108652334660292
01:00:0A:00:00:00:00;1726013072;11/09/24;00:04:32;1.012;0.008;0.116;0.019547687843441963;-0.010995574295520782;0.0073303827084600925
01:00:0A:00:00:00:00;1726013073;11/09/24;00:04:33;1.012;0.01;0.117;0.024434609338641167;-0.009773843921720982;-0.0012217304902151227
01:00:0A:00:00:00:00;1726013074;11/09/24;00:04:34;1.013;0.012;0.117;0.02076941914856434;-0.010995574295520782;0.006108652334660292
01:00:0A:00:00:00:00;1726013075;11/09/24;00:04:35;1.012;0.007;0.116;0.02076941914856434;-0.010995574295520782;0.00855211354792118
01:00:0A:00:00:00:00;1726013076;11/09/24;00:04:36;1.013;0.011;0.117;0.024434609338641167;-0.00855211354792118;-0.0012217304902151227
01:00:0A:00:00:00:00;1726013077;11/09/24;00:04:37;1.011;0.012;0.117;0.02076941914856434;-0.012217304669320583;0.006108652334660292
01:00:0A:00:00:00:00;1726013078;11/09/24;00:04:38;1.012;0.008;0.117;0.019547687843441963;-0.010995574295520782;0.00855211354792118
01:00:0A:00:00:00:00;1726013079;11/09/24;00:04:39;1.012;0.01;0.117;0.024434609338641167;-0.009773843921720982;-0.0012217304902151227
01:00:0A:00:00:00:00;1726013080;11/09/24;00:04:40;1.012;0.012;0.116;0.021991148591041565;-0.010995574295520782;0.006108652334660292
01:00:0A:00:00:00:00;1726013081;11/09/24;00:04:41;1.012;0.008;0.115;0.02076941914856434;-0.010995574295520782;0.009773843921720982
01:00:0A:00:00:00:00;1726013082;11/09/24;00:04:42;1.012;0.009;0.116;0.025656338781118393;-0.009773843921720982;-0.0012217304902151227
01:00:0A:00:00:00:00;1726013083;11/09/24;00:04:43;1.012;0.011;0.117;0.021991148591041565;-0.012217304669320583;0.006108652334660292
01:00:0A:00:00:00:00;1726013084;11/09/24;00:04:44;1.012;0.008;0.117;0.02076941914856434;-0.010995574295520782;0.00855211354792118
01:00:0A:00:00:00:00;1726013085;11/09/24;00:04:45;1.013;0.007;0.117;0.025656338781118393;-0.010995574295520782;0.0
01:00:0A:00:00:00:00;1726013086;11/09/24;00:04:46;1.013;0.012;0.118;0.021991148591041565;-0.010995574295520782;0.006108652334660292
01:00:0A:00:00:00:00;1726013087;11/09/24;00:04:47;1.012;0.008;0.116;0.02076941914856434;-0.009773843921720982;0.00855211354792118
01:00:0A:00:00:00:00;1726013088;11/09/24;00:04:48;1.013;0.008;0.118;0.025656338781118393;-0.010995574295520782;0.0
01:00:0A:00:00:00:00;1726013089;11/09/24;00:04:49;1.012;0.013;0.115;0.02321287989616394;-0.012217304669320583;0.004886921960860491
01:00:0A:00:00:00:00;1726013090;11/09/24;00:04:50;1.012;0.008;0.116;0.02076941914856434;-0.009773843921720982;0.009773843921720982
01:00:0A:00:00:00:00;1726013091;11/09/24;00:04:51;1.011;0.009;0.117;0.025656338781118393;-0.009773843921720982;-0.0012217304902151227
01:00:0A:00:00:00:00;1726013092;11/09/24;00:04:52;1.012;0.011;0.117;0.02321287989616394;-0.010995574295520782;0.004886921960860491
01:00:0A:00:00:00:00;1726013093;11/09/24;00:04:53;1.013;0.009;0.116;0.02076941914856434;-0.00855211354792118;0.00855211354792118
01:00:0A:00:00:00:00;1726013094;11/09/24;00:04:54;1.013;0.008;0.117;0.025656338781118393;-0.010995574295520782;0.0012217304902151227
01:00:0A:00:00:00:00;1726013095;11/09/24;00:04:55;1.013;0.012;0.116;0.02321287989616394;-0.010995574295520782;0.004886921960860491
01:00:0A:00:00:00:00;1726013096;11/09/24;00:04:56;1.011;0.008;0.117;0.021991148591041565;-0.009773843921720982;0.00855211354792118
01:00:0A:00:00:00:00;1726013097;11/09/24;00:04:57;1.013;0.008;0.117;0.025656338781118393;-0.010995574295520782;0.0012217304902151227
01:00:0A:00:00:00:00;1726013098;11/09/24;00:04:58;1.012;0.012;0.115;0.024434609338641167;-0.012217304669320583;0.0036651913542300463
01:00:0A:00:00:00:00;1726013099;11/09/24;00:04:59;1.012;0.008;0.117;0.021991148591041565;-0.009773843921720982;0.00855211354792118
01:00:0A:00:00:00:00;1726013100;11/09/24;00:05:00;1.012;0.009;0.118;0.02687807008624077;-0.010995574295520782;0.0012217304902151227
01:00:0A:00:00:00:00;1726013101;11/09/24;00:05:01;1.013;0.012;0.115;0.025656338781118393;-0.012217304669320583;0.004886921960860491
01:00:0A:00:00:00:00;1726013102;11/09/24;00:05:02;1.012;0.009;0.116;0.021991148591041565;-0.00855211354792118;0.00855211354792118
01:00:0A:00:00:00:00;1726013103;11/09/24;00:05:03;1.01;0.008;0.118;0.02687807008624077;-0.010995574295520782;0.0012217304902151227
01:00:0A:00:00:00:00;1726013104;11/09/24;00:05:04;1.012;0.011;0.116;0.025656338781118393;-0.010995574295520782;0.004886921960860491
01:00:0A:00:00:00:00;1726013105;11/09/24;00:05:05;1.013;0.009;0.116;0.02321287989616394;-0.009773843921720982;0.00855211354792118
01:00:0A:00:00:00:00;1726013106;11/09/24;00:05:06;1.012;0.008;0.118;0.02687807008624077;-0.010995574295520782;0.0012217304902151227
01:00:0A:00:00:00:00;1726013107;11/09/24;00:05:07;1.013;0.012;0.116;0.025656338781118393;-0.012217304669320583;0.0036651913542300463
01:00:0A:00:00:00:00;1726013108;11/09/24;00:05:08;1.012;0.01;0.117;0.02321287989616394;-0.00855211354792118;0.00855211354792118
01:00:0A:00:00:00:00;1726013109;11/09/24;00:05:09;1.012;0.009;0.118;0.02687807008624077;-0.010995574295520782;0.0024434609804302454
01:00:0A:00:00:00:00;1726013110;11/09/24;00:05:10;1.013;0.011;0.116;0.02687807008624077;-0.012217304669320583;0.0036651913542300463
01:00:0A:00:00:00:00;1726013111;11/09/24;00:05:11;1.013;0.008;0.116;0.02321287989616394;-0.00855211354792118;0.00855211354792118
01:00:0A:00:00:00:00;1726013112;11/09/24;00:05:12;1.012;0.009;0.118;0.02687807008624077;-0.010995574295520782;0.0024434609804302454
01:00:0A:00:00:00:00;1726013113;11/09/24;00:05:13;1.012;0.011;0.115;0.025656338781118393;-0.012217304669320583;0.0036651913542300463
01:00:0A:00:00:00:00;1726013114;11/09/24;00:05:14;1.011;0.01;0.115;0.024434609338641167;-0.00855211354792118;0.00855211354792118
01:00:0A:00:00:00:00;1726013115;11/09/24;00:05:15;1.012;0.008;0.118;0.02687807008624077;-0.010995574295520782;0.0024434609804302454
01:00:0A:00:00:00:00;1726013116;11/09/24;00:05:16;1.013;0.011;0.116;0.02687807008624077;-0.012217304669320583;0.004886921960860491
01:00:0A:00:00:00:00;1726013117;11/09/24;00:05:17;1.013;0.009;0.116;0.024434609338641167;-0.00855211354792118;0.0073303827084600925
01:00:0A:00:00:00:00;1726013118;11/09/24;00:05:18;1.012;0.009;0.117;0.02687807008624077;-0.010995574295520782;0.0024434609804302454
01:00:0A:00:00:00:00;1726013119;11/09/24;00:05:19;1.012;0.01;0.116;0.028099799528717995;-0.013439035043120384;0.0036651913542300463
01:00:0A:00:00:00:00;1726013120;11/09/24;00:05:20;1.013;0.009;0.117;0.024434609338641167;-0.0073303827084600925;0.00855211354792118
01:00:0A:00:00:00:00;1726013121;11/09/24;00:05:21;1.012;0.01;0.117;0.028099799528717995;-0.010995574295520782;0.0036651913542300463
01:00:0A:00:00:00:00;1726013122;11/09/24;00:05:22;1.013;0.011;0.116;0.028099799528717995;-0.013439035043120384;0.0036651913542300463
01:00:0A:00:00:00:00;1726013123;11/09/24;00:05:23;1.012;0.01;0.116;0.025656338781118393;-0.0073303827084600925;0.0073303827084600925
01:00:0A:00:00:00:00;1726013124;11/09/24;00:05:24;1.013;0.008;0.118;0.02932153083384037;-0.010995574295520782;0.0036651913542300463
01:00:0A:00:00:00:00;1726013125;11/09/24;00:05:25;1.012;0.011;0.116;0.02932153083384037;-0.012217304669320583;0.0036651913542300463
01:00:0A:00:00:00:00;1726013126;11/09/24;00:05:26;1.013;0.01;0.115;0.02687807008624077;-0.00855211354792118;0.0073303827084600925
01:00:0A:00:00:00:00;1726013127;11/09/24;00:05:27;1.011;0.008;0.118;0.02932153083384037;-0.010995574295520782;0.0036651913542300463
01:00:0A:00:00:00:00;1726013128;11/09/24;00:05:28;1.012;0.01;0.115;0.02932153083384037;-0.013439035043120384;0.0036651913542300463
01:00:0A:00:00:00:00;1726013129;11/09/24;00:05:29;1.012;0.01;0.115;0.02687807008624077;-0.00855211354792118;0.0073303827084600925
01:00:0A:00:00:00:00;1726013130;11/09/24;00:05:30;1.012;0.009;0.118;0.02932153083384037;-0.009773843921720982;0.0036651913542300463
01:00:0A:00:00:00:00;1726013131;11/09/24;00:05:31;1.012;0.009;0.117;0.030543262138962746;-0.014660765416920185;0.0036651913542300463
01:00:0A:00:00:00:00;1726013132;11/09/24;00:05:32;1.012;0.01;0.116;0.028099799528717995;-0.0073303827084600925;0.006108652334660292
01:00:0A:00:00:00:00;1726013133;11/09/24;00:05:33;1.012;0.007;0.118;0.02932153083384037;-0.009773843921720982;0.004886921960860491
01:00:0A:00:00:00:00;1726013134;11/09/24;00:05:34;1.012;0.01;0.115;0.030543262138962746;-0.013439035043120384;0.0036651913542300463
01:00:0A:00:00:00:00;1726013135;11/09/24;00:05:35;1.012;0.009;0.115;0.028099799528717995;-0.00855211354792118;0.0073303827084600925
01:00:0A:00:00:00:00;1726013136;11/09/24;00:05:36;1.012;0.008;0.119;0.030543262138962746;-0.009773843921720982;0.004886921960860491
01:00:0A:00:00:00:00;1726013137;11/09/24;00:05:37;1.012;0.01;0.116;0.03176499158143997;-0.013439035043120384;0.004886921960860491
01:00:0A:00:00:00:00;1726013138;11/09/24;00:05:38;1.012;0.008;0.115;0.02932153083384037;-0.00855211354792118;0.006108652334660292
01:00:0A:00:00:00:00;1726013139;11/09/24;00:05:39;1.011;0.009;0.118;0.03176499158143997;-0.009773843921720982;0.004886921960860491
01:00:0A:00:00:00:00;1726013140;11/09/24;00:05:40;1.012;0.01;0.116;0.03298672288656235;-0.013439035043120384;0.004886921960860491
01:00:0A:00:00:00:00;1726013141;11/09/24;00:05:41;1.013;0.009;0.115;0.030543262138962746;-0.00855211354792118;0.006108652334660292
01:00:0A:00:00:00:00;1726013142;11/09/24;00:05:42;1.012;0.009;0.118;0.03176499158143997;-0.00855211354792118;0.004886921960860491
01:00:0A:00:00:00:00;1726013143;11/09/24;00:05:43;1.012;0.009;0.116;0.03298672288656235;-0.014660765416920185;0.004886921960860491
01:00:0A:00:00:00:00;1726013144;11/09/24;00:05:44;1.012;0.009;0.114;0.03176499158143997;-0.00855211354792118;0.0073303827084600925
01:00:0A:00:00:00:00;1726013145;11/09/24;00:05:45;1.012;0.009;0.118;0.03298672288656235;-0.00855211354792118;0.0036651913542300463
01:00:0A:00:00:00:00;1726013146;11/09/24;00:05:46;1.012;0.01;0.117;0.03420845419168472;-0.014660765416920185;0.004886921960860491
01:00:0A:00:00:00:00;1726013147;11/09/24;00:05:47;1.012;0.009;0.115;0.03298672288656235;-0.00855211354792118;0.006108652334660292
01:00:0A:00:00:00:00;1726013148;11/09/24;00:05:48;1.012;0.009;0.118;0.03420845419168472;-0.00855211354792118;0.006108652334660292
01:00:0A:00:00:00:00;1726013149;11/09/24;00:05:49;1.011;0.009;0.117;0.0354301817715168;-0.014660765416920185;0.004886921960860491
01:00:0A:00:00:00:00;1726013150;11/09/24;00:05:50;1.012;0.009;0.115;0.03420845419168472;-0.009773843921720982;0.006108652334660292
01:00:0A:00:00:00:00;1726013151;11/09/24;00:05:51;1.012;0.009;0.119;0.0354301817715168;-0.0073303827084600925;0.004886921960860491
01:00:0A:00:00:00:00;1726013152;11/09/24;00:05:52;1.012;0.01;0.116;0.036651913076639175;-0.014660765416920185;0.004886921960860491
01:00:0A:00:00:00:00;1726013153;11/09/24;00:05:53;1.012;0.008;0.114;0.0354301817715168;-0.00855211354792118;0.006108652334660292
01:00:0A:00:00:00:00;1726013154;11/09/24;00:05:54;1.013;0.008;0.118;0.0354301817715168;-0.0073303827084600925;0.004886921960860491
01:00:0A:00:00:00:00;1726013155;11/09/24;00:05:55;1.013;0.009;0.118;0.036651913076639175;-0.014660765416920185;0.006108652334660292
01:00:0A:00:00:00:00;1726013156;11/09/24;00:05:56;1.013;0.01;0.115;0.0354301817715168;-0.00855211354792118;0.006108652334660292
01:00:0A:00:00:00:00;1726013157;11/09/24;00:05:57;1.013;0.01;0.118;0.036651913076639175;-0.0073303827084600925;0.004886921960860491
01:00:0A:00:00:00:00;1726013158;11/09/24;00:05:58;1.012;0.009;0.118;0.03787364438176155;-0.014660765416920185;0.006108652334660292
01:00:0A:00:00:00:00;1726013159;11/09/24;00:05:59;1.011;0.009;0.113;0.036651913076639175;-0.009773843921720982;0.006108652334660292
01:00:0A:00:00:00:00;1726013160;11/09/24;00:06:00;1.012;0.009;0.118;0.03787364438176155;-0.0073303827084600925;0.004886921960860491
01:00:0A:00:00:00:00;1726013161;11/09/24;00:06:01;1.013;0.009;0.117;0.03787364438176155;-0.014660765416920185;0.0073303827084600925
01:00:0A:00:00:00:00;1726013162;11/09/24;00:06:02;1.012;0.009;0.114;0.03787364438176155;-0.009773843921720982;0.006108652334660292
01:00:0A:00:00:00:00;1726013163;11/09/24;00:06:03;1.012;0.009;0.117;0.03787364438176155;-0.006108652334660292;0.004886921960860491
01:00:0A:00:00:00:00;1726013164;11/09/24;00:06:04;1.012;0.011;0.117;0.039095375686883926;-0.015882495790719986;0.006108652334660292
01:00:0A:00:00:00:00;1726013165;11/09/24;00:06:05;1.012;0.009;0.115;0.03787364438176155;-0.009773843921720982;0.006108652334660292
01:00:0A:00:00:00:00;1726013166;11/09/24;00:06:06;1.013;0.008;0.117;0.039095375686883926;-0.006108652334660292;0.004886921960860491
01:00:0A:00:00:00:00;1726013167;11/09/24;00:06:07;1.011;0.01;0.118;0.039095375686883926;-0.014660765416920185;0.0073303827084600925
01:00:0A:00:00:00:00;1726013168;11/09/24;00:06:08;1.012;0.009;0.115;0.03787364438176155;-0.009773843921720982;0.006108652334660292
01:00:0A:00:00:00:00;1726013169;11/09/24;00:06:09;1.012;0.01;0.119;0.039095375686883926;-0.006108652334660292;0.0036651913542300463
01:00:0A:00:00:00:00;1726013170;11/09/24;00:06:10;1.012;0.009;0.118;0.039095375686883926;-0.014660765416920185;0.0073303827084600925
01:00:0A:00:00:00:00;1726013171;11/09/24;00:06:11;1.013;0.009;0.114;0.039095375686883926;-0.010995574295520782;0.006108652334660292
01:00:0A:00:00:00:00;1726013172;11/09/24;00:06:12;1.013;0.009;0.118;0.039095375686883926;-0.006108652334660292;0.0036651913542300463
01:00:0A:00:00:00:00;1726013173;11/09/24;00:06:13;1.011;0.01;0.118;0.039095375686883926;-0.014660765416920185;0.0073303827084600925
01:00:0A:00:00:00:00;1726013174;11/09/24;00:06:14;1.012;0.008;0.115;0.03787364438176155;-0.009773843921720982;0.0073303827084600925
01:00:0A:00:00:00:00;1726013175;11/09/24;00:06:15;1.012;0.009;0.118;0.039095375686883926;-0.006108652334660292;0.0024434609804302454
01:00:0A:00:00:00:00;1726013176;11/09/24;00:06:16;1.012;0.01;0.117;0.039095375686883926;-0.014660765416920185;0.00855211354792118
01:00:0A:00:00:00:00;1726013177;11/09/24;00:06:17;1.013;0.008;0.115;0.03787364438176155;-0.010995574295520782;0.006108652334660292
01:00:0A:00:00:00:00;1726013178;11/09/24;00:06:18;1.012;0.01;0.117;0.039095375686883926;-0.004886921960860491;0.0024434609804302454
01:00:0A:00:00:00:00;1726013179;11/09/24;00:06:19;1.011;0.011;0.118;0.03787364438176155;-0.014660765416920185;0.00855211354792118
01:00:0A:00:00:00:00;1726013180;11/09/24;00:06:20;1.012;0.008;0.114;0.03787364438176155;-0.012217304669320583;0.0073303827084600925
01:00:0A:00:00:00:00;1726013181;11/09/24;00:06:21;1.014;0.01;0.117;0.039095375686883926;-0.0073303827084600925;0.0036651913542300463
01:00:0A:00:00:00:00;1726013182;11/09/24;00:06:22;1.013;0.011;0.118;0.03787364438176155;-0.013439035043120384;0.00855211354792118
01:00:0A:00:00:00:00;1726013183;11/09/24;00:06:23;1.012;0.007;0.114;0.03787364438176155;-0.010995574295520782;0.0073303827084600925
01:00:0A:00:00:00:00;1726013184;11/09/24;00:06:24;1.012;0.009;0.118;0.040317103266716;-0.006108652334660292;0.0024434609804302454
01:00:0A:00:00:00:00;1726013185;11/09/24;00:06:25;1.012;0.011;0.118;0.03787364438176155;-0.013439035043120384;0.00855211354792118
01:00:0A:00:00:00:00;1726013186;11/09/24;00:06:26;1.012;0.006;0.115;0.03787364438176155;-0.010995574295520782;0.0073303827084600925
01:00:0A:00:00:00:00;1726013187;11/09/24;00:06:27;1.013;0.009;0.116;0.040317103266716;-0.006108652334660292;0.0024434609804302454
01:00:0A:00:00:00:00;1726013188;11/09/24;00:06:28;1.012;0.01;0.118;0.03787364438176155;-0.013439035043120384;0.00855211354792118
01:00:0A:00:00:00:00;1726013189;11/09/24;00:06:29;1.013;0.007;0.115;0.03787364438176155;-0.010995574295520782;0.0073303827084600925
01:00:0A:00:00:00:00;1726013190;11/09/24;00:06:30;1.012;0.01;0.118;0.040317103266716;-0.0073303827084600925;0.0012217304902151227
01:00:0A:00:00:00:00;1726013191;11/09/24;00:06:31;1.014;0.011;0.116;0.036651913076639175;-0.015882495790719986;0.009773843921720982
01:00:0A:00:00:00:00;1726013192;11/09/24;00:06:32;1.015;0.0;0.117;0.03787364438176155;-0.014660765416920185;0.015882495790719986
01:00:0A:00:00:00:00;1726013193;11/09/24;00:06:33;1.009;0.015;0.12;0.03787364438176155;-0.0073303827084600925;0.009773843921720982
01:00:0A:00:00:00:00;1726013194;11/09/24;00:06:34;1.004;0.023;0.117;0.028099799528717995;-0.010995574295520782;0.00855211354792118
01:00:0A:00:00:00:00;1726013195;11/09/24;00:06:35;1.013;0.02;0.122;0.019547687843441963;0.006108652334660292;-0.004886921960860491
01:00:0A:00:00:00:00;1726013196;11/09/24;00:06:36;1.023;0.015;0.117;0.014660765416920185;0.012217304669320583;-0.009773843921720982
01:00:0A:00:00:00:00;1726013197;11/09/24;00:06:37;1.023;0.008;0.114;0.025656338781118393;-0.01710422709584236;-0.024434609338641167
01:00:0A:00:00:00:00;1726013198;11/09/24;00:06:38;1.014;0.001;0.113;0.024434609338641167;-0.042760565876960754;-0.0024434609804302454
01:00:0A:00:00:00:00;1726013199;11/09/24;00:06:39;1.003;-0.01;0.12;0.013439035043120384;-0.021991148591041565;0.042760565876960754
01:00:0A:00:00:00:00;1726013200;11/09/24;00:06:40;0.996;0.005;0.126;0.024434609338641167;-0.0036651913542300463;0.04398229718208313
01:00:0A:00:00:00:00;1726013201;11/09/24;00:06:41;1.008;0.023;0.123;0.03787364438176155;-0.0012217304902151227;0.03176499158143997
01:00:0A:00:00:00:00;1726013202;11/09/24;00:06:42;1.025;0.031;0.118;0.045204028487205505;0.018325956538319588;-0.00855211354792118
01:00:0A:00:00:00:00;1726013203;11/09/24;00:06:43;1.018;0.016;0.101;0.05864306166768074;-0.00855211354792118;-0.02687807008624077
01:00:0A:00:00:00:00;1726013204;11/09/24;00:06:44;0.991;-0.002;0.105;0.07452555745840073;-0.021991148591041565;-0.04153883829712868
01:00:0A:00:00:00:00;1726013205;11/09/24;00:06:45;0.985;-0.012;0.121;0.06841690838336945;-0.05864306166768074;0.024434609338641167
01:00:0A:00:00:00:00;1726013206;11/09/24;00:06:46;1.009;-0.018;0.124;0.0708603635430336;-0.009773843921720982;0.05009094998240471
01:00:0A:00:00:00:00;1726013207;11/09/24;00:06:47;1.054;-0.009;0.135;0.09651670604944229;0.006108652334660292;0.059864792972803116
01:00:0A:00:00:00:00;1726013208;11/09/24;00:06:48;1.069;-0.006;0.105;0.13927726447582245;0.02687807008624077;0.039095375686883926
01:00:0A:00:00:00:00;1726013209;11/09/24;00:06:49;1.027;0.017;0.113;0.17104226350784302;0.019547687843441963;-0.02321287989616394
01:00:0A:00:00:00:00;1726013210;11/09/24;00:06:50;0.973;-0.024;0.061;0.16493360698223114;-0.05742133408784866;0.040317103266716
01:00:0A:00:00:00:00;1726013211;11/09/24;00:06:51;0.931;0.005;0.118;0.17837265133857727;0.09407324343919754;-0.09651670604944229
01:00:0A:00:00:00:00;1726013212;11/09/24;00:06:52;0.973;-0.034;0.09;0.17837265133857727;-0.36529743671417236;0.1673770695924759
01:00:0A:00:00:00:00;1726013213;11/09/24;00:06:53;1.052;-0.023;0.001;0.2638937830924988;0.44348815083503723;-0.23090705275535583
01:00:0A:00:00:00:00;1726013214;11/09/24;00:06:54;0.981;0.323;0.341;0.1673770695924759;-0.2773328125476837;0.05375614017248154
01:00:0A:00:00:00:00;1726013215;11/09/24;00:06:55;1.01;-0.145;-0.34;0.0659734457731247;-0.1563815027475357;-0.009773843921720982
01:00:0A:00:00:00:00;1726013216;11/09/24;00:06:56;0.96;0.0;0.432;0.24923302233219147;0.6817255616188049;0.2174680233001709
01:00:0A:00:00:00:00;1726013217;11/09/24;00:06:57;0.988;-0.106;0.232;0.740368664264679;-0.5705481767654419;0.322536826133728
01:00:0A:00:00:00:00;1726013218;11/09/24;00:06:58;0.977;-0.144;0.102;0.739146888256073;-0.05497787147760391;-0.436157763004303
01:00:0A:00:00:00:00;1726013219;11/09/24;00:06:59;0.999;0.028;0.276;1.3646730184555054;0.09651670604944229;0.626747727394104
01:00:0A:00:00:00:00;1726013220;11/09/24;00:07:00;1.021;-0.106;0.279;1.4220942258834839;-0.31154125928878784;0.27000245451927185
01:00:0A:00:00:00:00;1726013221;11/09/24;00:07:01;1.034;-0.163;-0.022;1.490511178970337;-0.24678954482078552;0.11850785464048386
01:00:0A:00:00:00:00;1726013222;11/09/24;00:07:02;0.99;0.005;0.236;1.4098769426345825;0.513126790523529;0.4190535545349121
01:00:0A:00:00:00:00;1726013223;11/09/24;00:07:03;0.918;-0.218;0.22;1.6835445165634155;-0.5839871764183044;0.7159340977668762
01:00:0A:00:00:00:00;1726013224;11/09/24;00:07:04;0.954;-0.212;0.035;1.7776178121566772;-0.7831292152404785;-0.15393804013729095
01:00:0A:00:00:00:00;1726013225;11/09/24;00:07:05;1.014;-0.054;0.015;1.7959437370300293;-0.05009094998240471;-0.3897320330142975
01:00:0A:00:00:00:00;1726013226;11/09/24;00:07:06;1.022;0.115;0.146;1.5320500135421753;0.2834414541721344;0.18448130786418915
01:00:0A:00:00:00:00;1726013227;11/09/24;00:07:07;0.982;-0.044;0.366;1.5357152223587036;0.22602014243602753;0.18814648687839508
01:00:0A:00:00:00:00;1726013228;11/09/24;00:07:08;1.024;-0.1;0.05;1.5809191465377808;-0.1661553531885147;0.3628539443016052
01:00:0A:00:00:00:00;1726013229;11/09/24;00:07:09;0.983;-0.026;0.01;1.859473705291748;0.05253440886735916;-0.37262779474258423
01:00:0A:00:00:00:00;1726013230;11/09/24;00:07:10;0.933;0.142;0.29;1.5112806558609009;0.9395107626914978;0.5827654600143433
01:00:0A:00:00:00:00;1726013231;11/09/24;00:07:11;1.008;-0.2;0.114;2.001194477081299;-0.750142514705658;0.6218608021736145
01:00:0A:00:00:00:00;1726013232;11/09/24;00:07:12;1.036;-0.039;-0.01;2.2211060523986816;-0.14049901068210602;-0.1160643920302391
01:00:0A:00:00:00:00;1726013233;11/09/24;00:07:13;1.014;-0.009;0.139;2.0427334308624268;0.3029891550540924;0.3677408695220947
01:00:0A:00:00:00:00;1726013234;11/09/24;00:07:14;0.976;0.103;0.118;1.8264870643615723;-0.02687807008624077;0.35185837745666504
01:00:0A:00:00:00:00;1726013235;11/09/24;00:07:15;0.949;0.207;0.18;2.4825563430786133;0.7367035150527954;-0.019547687843441963
01:00:0A:00:00:00:00;1726013236;11/09/24;00:07:16;0.918;0.294;0.233;1.4636330604553223;1.086118459701538;0.9847148060798645
01:00:0A:00:00:00:00;1726013237;11/09/24;00:07:17;0.871;-0.04;0.508;1.3878858089447021;-0.09896016865968704;0.9175195693969727
01:00:0A:00:00:00:00;1726013238;11/09/24;00:07:18;0.964;-0.122;0.28;1.6187928915023804;-0.44104471802711487;0.76846843957901
01:00:0A:00:00:00:00;1726013239;11/09/24;00:07:19;0.995;-0.117;-0.098;1.5968017578125;-0.6243042349815369;-0.0708603635430336
01:00:0A:00:00:00:00;1726013240;11/09/24;00:07:20;0.982;0.056;0.096;1.673770785331726;0.436157763004303;-0.24190263450145721
01:00:0A:00:00:00:00;1726013241;11/09/24;00:07:21;0.976;0.118;0.203;1.6896531581878662;0.27122414112091064;0.5962044596672058
01:00:0A:00:00:00:00;1726013242;11/09/24;00:07:22;1.003;-0.042;0.211;1.6603316068649292;-0.2528982162475586;0.5742133259773254
01:00:0A:00:00:00:00;1726013243;11/09/24;00:07:23;0.982;-0.286;0.269;1.969429612159729;-0.41294488310813904;0.44348815083503723
01:00:0A:00:00:00:00;1726013244;11/09/24;00:07:24;0.982;-0.327;-0.049;1.5247195959091187;-0.08796459436416626;0.07452555745840073
01:00:0A:00:00:00:00;1726013245;11/09/24;00:07:25;1.0;0.127;0.105;1.8558086156845093;-0.22479839622974396;-0.2577851116657257
01:00:0A:00:00:00:00;1726013246;11/09/24;00:07:26;1.001;-0.055;0.156;1.725083351135254;0.3286454975605011;0.27611109614372253
01:00:0A:00:00:00:00;1726013247;11/09/24;00:07:27;1.008;-0.076;0.054;1.5552629232406616;-0.41172316670417786;-0.2919935882091522
01:00:0A:00:00:00:00;1726013248;11/09/24;00:07:28;1.005;0.038;0.205;2.087937355041504;0.05619959905743599;0.1111774742603302
01:00:0A:00:00:00:00;1726013249;11/09/24;00:07:29;1.02;-0.07;0.285;2.3994784355163574;0.18936821818351746;0.4141666293144226
01:00:0A:00:00:00:00;1726013250;11/09/24;00:07:30;1.028;-0.037;0.024;2.361604928970337;0.1014036238193512;0.21135938167572021
01:00:0A:00:00:00:00;1726013251;11/09/24;00:07:31;0.978;-0.021;0.177;2.3823745250701904;0.2076941877603531;0.40072759985923767
01:00:0A:00:00:00:00;1726013252;11/09/24;00:07:32;0.954;-0.128;0.084;2.394591808319092;-0.24190263450145721;0.5363396406173706
01:00:0A:00:00:00:00;1726013253;11/09/24;00:07:33;0.962;0.016;0.251;2.700024366378784;0.11728612333536148;0.5143485069274902
01:00:0A:00:00:00:00;1726013254;11/09/24;00:07:34;1.031;0.013;0.134;2.4251348972320557;0.21502456068992615;0.34574973583221436
01:00:0A:00:00:00:00;1726013255;11/09/24;00:07:35;1.025;-0.147;0.179;2.266309976577759;-0.34697145223617554;0.2590068578720093
01:00:0A:00:00:00:00;1726013256;11/09/24;00:07:36;1.035;-0.062;0.177;2.250427484512329;0.2871066629886627;0.18570303916931152
01:00:0A:00:00:00:00;1726013257;11/09/24;00:07:37;1.005;0.216;0.077;1.8680258989334106;0.2981022298336029;0.21135938167572021
01:00:0A:00:00:00:00;1726013258;11/09/24;00:07:38;0.972;-0.064;0.265;1.695761799812317;0.4764748811721802;0.46303585171699524
01:00:0A:00:00:00:00;1726013259;11/09/24;00:07:39;0.94;-0.235;0.286;2.800206184387207;-0.4752531349658966;0.750142514705658
01:00:0A:00:00:00:00;1726013260;11/09/24;00:07:40;0.992;-0.201;0.083;3.0494391918182373;-0.4251621961593628;0.24068090319633484
01:00:0A:00:00:00:00;1726013261;11/09/24;00:07:41;1.02;-0.119;0.048;3.2009339332580566;-0.2638937830924988;-0.17470745742321014
01:00:0A:00:00:00:00;1726013262;11/09/24;00:07:42;1.016;-0.002;0.018;3.0616564750671387;0.21380282938480377;-0.6096435189247131
01:00:0A:00:00:00:00;1726013263;11/09/24;00:07:43;1.005;-0.075;-0.083;2.689028739929199;0.17837265133857727;-0.24068090319633484
01:00:0A:00:00:00:00;1726013264;11/09/24;00:07:44;0.975;0.406;-0.141;1.5442672967910767;-0.04886921867728233;-0.3640756905078888
01:00:0A:00:00:00:00;1726013265;11/09/24;00:07:45;0.956;0.328;0.304;1.0702358484268188;0.7953465580940247;0.24923302233219147
01:00:0A:00:00:00:00;1726013266;11/09/24;00:07:46;1.033;-0.211;0.084;1.0616837739944458;-0.35185837745666504;0.37140607833862305
01:00:0A:00:00:00:00;1726013267;11/09/24;00:07:47;1.006;-0.044;0.121;1.3622294664382935;0.18081611394882202;0.0012217304902151227
01:00:0A:00:00:00:00;1726013268;11/09/24;00:07:48;0.974;0.122;0.092;1.1814132928848267;0.37262779474258423;0.3787364363670349
01:00:0A:00:00:00:00;1726013269;11/09/24;00:07:49;0.958;-0.15;0.26;1.1594222784042358;-0.36163222789764404;0.998153805732727
01:00:0A:00:00:00:00;1726013270;11/09/24;00:07:50;0.797;-0.459;0.466;1.8448129892349243;-1.1142181158065796;0.6414085030555725
01:00:0A:00:00:00:00;1726013271;11/09/24;00:07:51;0.957;-0.303;0.227;2.4776694774627686;-1.1814132928848267;0.34208452701568604
01:00:0A:00:00:00:00;1726013272;11/09/24;00:07:52;0.98;-0.123;0.279;2.5448644161224365;-0.30054569244384766;0.5962044596672058
01:00:0A:00:00:00:00;1726013273;11/09/24;00:07:53;0.959;-0.078;0.319;2.4190263748168945;0.16982054710388184;0.6963863372802734
01:00:0A:00:00:00:00;1726013274;11/09/24;00:07:54;0.971;-0.026;0.103;2.090380907058716;-0.16493360698223114;0.8283332586288452
01:00:0A:00:00:00:00;1726013275;11/09/24;00:07:55;0.985;-0.062;0.087;2.2345449924468994;-0.32620203495025635;0.08796459436416626
01:00:0A:00:00:00:00;1726013276;11/09/24;00:07:56;1.012;0.165;0.08;2.0219638347625732;0.5265658497810364;0.024434609338641167
01:00:0A:00:00:00:00;1726013277;11/09/24;00:07:57;0.941;0.358;0.322;1.4086552858352661;0.5900958180427551;0.875980794429779
01:00:0A:00:00:00:00;1726013278;11/09/24;00:07:58;0.908;0.055;0.569;1.2315043210983276;-0.042760565876960754;0.6829473376274109
01:00:0A:00:00:00:00;1726013279;11/09/24;00:07:59;1.016;-0.168;0.207;1.226617455482483;-0.4239404499530792;0.7269296050071716
01:00:0A:00:00:00:00;1726013280;11/09/24;00:08:00;0.965;-0.034;-0.201;1.2913691997528076;-0.015882495790719986;-0.3628539443016052
01:00:0A:00:00:00:00;1726013281;11/09/24;00:08:01;0.937;0.189;0.287;1.1337658166885376;0.3848450779914856;0.10384709388017654
01:00:0A:00:00:00:00;1726013282;11/09/24;00:08:02;0.995;0.009;0.182;0.9150761365890503;-0.5534439086914062;0.5852089524269104
01:00:0A:00:00:00:00;1726013283;11/09/24;00:08:03;0.961;-0.26;-0.201;1.3243558406829834;-0.0024434609804302454;-0.6230825185775757
01:00:0A:00:00:00:00;1726013284;11/09/24;00:08:04;0.992;0.329;0.054;1.1826351881027222;0.5485569834709167;-0.2125810980796814
01:00:0A:00:00:00:00;1726013285;11/09/24;00:08:05;0.966;0.289;0.255;0.5436700582504272;0.6988298296928406;0.49846604466438293
01:00:0A:00:00:00:00;1726013286;11/09/24;00:08:06;0.911;-0.138;0.463;0.5277875661849976;-0.11972958594560623;0.5094615817070007
01:00:0A:00:00:00:00;1726013287;11/09/24;00:08:07;1.005;-0.034;0.079;0.750142514705658;-0.49357908964157104;0.0708603635430336
01:00:0A:00:00:00:00;1726013288;11/09/24;00:08:08;1.003;0.035;0.06;0.6890559792518616;0.23335053026676178;-0.10995574295520782
01:00:0A:00:00:00:00;1726013289;11/09/24;00:08:09;0.994;-0.039;0.168;0.5204571485519409;-0.1576032191514969;0.5864306092262268
01:00:0A:00:00:00:00;1726013290;11/09/24;00:08:10;0.95;-0.372;0.129;1.038470983505249;-0.7916813492774963;-0.06352998316287994
01:00:0A:00:00:00:00;1726013291;11/09/24;00:08:11;0.935;-0.191;-0.319;1.4440854787826538;-0.37629297375679016;-0.5949827432632446
01:00:0A:00:00:00:00;1726013292;11/09/24;00:08:12;1.007;-0.135;-0.144;1.478293776512146;-0.018325956538319588;-0.4349360466003418
01:00:0A:00:00:00:00;1726013293;11/09/24;00:08:13;1.009;-0.142;-0.111;1.4172073602676392;-0.22602014243602753;-0.3017674386501312
01:00:0A:00:00:00:00;1726013294;11/09/24;00:08:14;0.984;-0.028;-0.224;1.3610076904296875;-0.036651913076639175;-0.5937609672546387
01:00:0A:00:00:00:00;1726013295;11/09/24;00:08:15;0.966;0.104;-0.227;1.0824532508850098;0.13439035415649414;-0.4092797040939331
01:00:0A:00:00:00:00;1726013296;11/09/24;00:08:16;0.999;0.062;-0.022;0.7110471129417419;0.5607742667198181;-0.09651670604944229
01:00:0A:00:00:00:00;1726013297;11/09/24;00:08:17;1.002;0.037;0.144;0.5900958180427551;-0.021991148591041565;0.18325956165790558
01:00:0A:00:00:00:00;1726013298;11/09/24;00:08:18;1.016;0.008;0.089;0.5803219676017761;0.23579397797584534;0.028099799528717995
01:00:0A:00:00:00:00;1726013299;11/09/24;00:08:19;0.976;0.085;0.392;0.5119050741195679;0.23457224667072296;0.32498031854629517
01:00:0A:00:00:00:00;1726013300;11/09/24;00:08:20;1.001;-0.073;0.328;0.5900958180427551;-0.33597588539123535;0.2431243658065796
01:00:0A:00:00:00:00;1726013301;11/09/24;00:08:21;1.016;-0.14;-0.05;0.6401867866516113;-0.17348572611808777;0.1673770695924759
01:00:0A:00:00:00:00;1726013302;11/09/24;00:08:22;0.983;0.073;0.228;0.685390830039978;0.21135938167572021;-0.18325956165790558
01:00:0A:00:00:00:00;1726013303;11/09/24;00:08:23;0.965;-0.014;0.242;0.44226640462875366;-0.04153883829712868;0.44104471802711487
01:00:0A:00:00:00:00;1726013304;11/09/24;00:08:24;0.977;-0.118;0.178;0.5925393104553223;-0.436157763004303;0.045204028487205505
01:00:0A:00:00:00:00;1726013305;11/09/24;00:08:25;1.014;-0.084;0.012;0.7220427393913269;0.013439035043120384;-0.1319468915462494
01:00:0A:00:00:00:00;1726013306;11/09/24;00:08:26;1.042;0.094;0.137;0.6181955933570862;0.02321287989616394;0.04764748737215996
01:00:0A:00:00:00:00;1726013307;11/09/24;00:08:27;1.046;-0.072;0.136;0.5583308339118958;-0.12095131725072861;0.23090705275535583
01:00:0A:00:00:00:00;1726013308;11/09/24;00:08:28;1.013;-0.118;0.107;0.7428121566772461;-0.1820378452539444;-0.05864306166768074
01:00:0A:00:00:00:00;1726013309;11/09/24;00:08:29;0.973;0.008;-0.204;0.8808676600456238;-0.5253441333770752;-0.6609562039375305
01:00:0A:00:00:00:00;1726013310;11/09/24;00:08:30;0.744;0.606;-0.199;0.22846359014511108;1.4367550611495972;-0.7623597979545593
01:00:0A:00:00:00:00;1726013311;11/09/24;00:08:31;0.865;-0.324;0.294;0.22968533635139465;-0.9382889866828918;0.6230825185775757
01:00:0A:00:00:00:00;1726013312;11/09/24;00:08:32;1.014;0.15;0.06;0.8552113175392151;0.0708603635430336;-0.6084217429161072
01:00:0A:00:00:00:00;1726013313;11/09/24;00:08:33;0.994;0.246;0.186;0.46792274713516235;0.14905111491680145;0.2724458873271942
01:00:0A:00:00:00:00;1726013314;11/09/24;00:08:34;1.02;-0.095;0.124;0.5326744914054871;-0.02076941914856434;0.0036651913542300463
01:00:0A:00:00:00:00;1726013315;11/09/24;00:08:35;0.996;0.109;0.13;0.5913175940513611;0.10506881773471832;-0.21991148591041565
01:00:0A:00:00:00:00;1726013316;11/09/24;00:08:36;1.008;-0.074;0.053;0.44226640462875366;-0.06719517707824707;0.41294488310813904
01:00:0A:00:00:00:00;1726013317;11/09/24;00:08:37;1.017;-0.086;0.008;0.7318165302276611;0.039095375686883926;-0.19547687470912933
01:00:0A:00:00:00:00;1726013318;11/09/24;00:08:38;0.995;0.074;0.228;0.6658430695533752;0.21013763546943665;0.31642818450927734
01:00:0A:00:00:00:00;1726013319;11/09/24;00:08:39;0.99;-0.122;0.226;0.7965682148933411;-0.16493360698223114;0.35063666105270386
01:00:0A:00:00:00:00;1726013320;11/09/24;00:08:40;1.014;-0.089;0.048;1.0091493129730225;-0.28588491678237915;-0.0659734457731247
01:00:0A:00:00:00:00;1726013321;11/09/24;00:08:41;1.013;0.04;-0.002;0.9224064946174622;0.251676470041275;-0.15515977144241333
01:00:0A:00:00:00:00;1726013322;11/09/24;00:08:42;0.996;0.145;0.237;0.6792821884155273;0.2028072476387024;0.1918116807937622
01:00:0A:00:00:00:00;1726013323;11/09/24;00:08:43;1.016;0.078;0.169;0.5546656250953674;-0.006108652334660292;0.14049901068210602
01:00:0A:00:00:00:00;1726013324;11/09/24;00:08:44;1.018;0.069;0.123;0.46670106053352356;-0.0036651913542300463;0.080634206533432
01:00:0A:00:00:00:00;1726013325;11/09/24;00:08:45;1.008;-0.032;0.18;0.4190535545349121;0.0024434609804302454;0.12950342893600464
01:00:0A:00:00:00:00;1726013326;11/09/24;00:08:46;1.0;-0.009;0.119;0.4740314185619354;-0.14416420459747314;-0.006108652334660292
01:00:0A:00:00:00:00;1726013327;11/09/24;00:08:47;0.994;0.029;0.099;0.3885102868080139;0.09773843735456467;0.004886921960860491
01:00:0A:00:00:00:00;1726013328;11/09/24;00:08:48;1.001;0.029;0.15;0.3029891550540924;0.02932153083384037;0.11850785464048386
01:00:0A:00:00:00:00;1726013329;11/09/24;00:08:49;1.028;-0.004;0.095;0.2981022298336029;-0.06841690838336945;0.039095375686883926
01:00:0A:00:00:00:00;1726013330;11/09/24;00:08:50;1.046;0.03;0.046;0.24190263450145721;0.012217304669320583;0.004886921960860491
01:00:0A:00:00:00:00;1726013331;11/09/24;00:08:51;1.032;0.03;0.129;0.17348572611808777;0.01710422709584236;0.06841690838336945
01:00:0A:00:00:00:00;1726013332;11/09/24;00:08:52;1.023;-0.016;0.102;0.17959438264369965;-0.08552113175392151;0.08552113175392151
01:00:0A:00:00:00:00;1726013333;11/09/24;00:08:53;0.998;0.004;0.099;0.22846359014511108;0.0024434609804302454;-0.051312677562236786
01:00:0A:00:00:00:00;1726013334;11/09/24;00:08:54;0.994;0.018;0.122;0.20891590416431427;0.030543262138962746;-0.018325956538319588
01:00:0A:00:00:00:00;1726013335;11/09/24;00:08:55;1.006;-0.016;0.122;0.19914205372333527;-0.04764748737215996;0.00855211354792118
01:00:0A:00:00:00:00;1726013336;11/09/24;00:08:56;1.016;-0.033;0.083;0.1869247555732727;-0.02687807008624077;0.009773843921720982
01:00:0A:00:00:00:00;1726013337;11/09/24;00:08:57;1.012;0.005;0.102;0.161268413066864;0.03787364438176155;0.025656338781118393
01:00:0A:00:00:00:00;1726013338;11/09/24;00:08:58;0.989;0.023;0.107;0.13805554807186127;-0.02076941914856434;-0.0024434609804302454
01:00:0A:00:00:00:00;1726013339;11/09/24;00:08:59;0.993;0.002;0.088;0.10018189996480942;-0.009773843921720982;0.045204028487205505
01:00:0A:00:00:00:00;1726013340;11/09/24;00:09:00;1.026;-0.03;0.121;0.13561207056045532;-0.024434609338641167;-0.04642575979232788
01:00:0A:00:00:00:00;1726013341;11/09/24;00:09:01;1.042;0.017;0.117;0.10995574295520782;-0.03176499158143997;0.006108652334660292
01:00:0A:00:00:00:00;1726013342;11/09/24;00:09:02;1.038;-0.014;0.11;0.07819075137376785;0.015882495790719986;0.05375614017248154
01:00:0A:00:00:00:00;1726013343;11/09/24;00:09:03;1.006;-0.021;0.106;0.16249015927314758;0.010995574295520782;0.02321287989616394
01:00:0A:00:00:00:00;1726013344;11/09/24;00:09:04;0.97;0.009;0.099;0.1576032191514969;-0.014660765416920185;-0.025656338781118393
01:00:0A:00:00:00:00;1726013345;11/09/24;00:09:05;0.978;0.003;0.091;0.09651670604944229;-0.00855211354792118;0.07452555745840073
01:00:0A:00:00:00:00;1726013346;11/09/24;00:09:06;1.028;-0.027;0.098;0.13805554807186127;-0.02321287989616394;-0.03176499158143997
01:00:0A:00:00:00:00;1726013347;11/09/24;00:09:07;1.052;0.065;0.081;0.09896016865968704;-0.02321287989616394;-0.006108652334660292
01:00:0A:00:00:00:00;1726013348;11/09/24;00:09:08;1.047;-0.022;0.112;0.07696902006864548;-0.015882495790719986;0.0708603635430336
01:00:0A:00:00:00:00;1726013349;11/09/24;00:09:09;1.008;-0.016;0.115;0.1563815027475357;-0.00855211354792118;-0.028099799528717995
01:00:0A:00:00:00:00;1726013350;11/09/24;00:09:10;0.983;0.007;0.118;0.16982054710388184;-0.009773843921720982;0.018325956538319588
01:00:0A:00:00:00:00;1726013351;11/09/24;00:09:11;0.989;-0.006;0.13;0.18570303916931152;-0.009773843921720982;0.04642575979232788
01:00:0A:00:00:00:00;1726013352;11/09/24;00:09:12;1.004;0.0;0.113;0.22479839622974396;0.010995574295520782;-0.03176499158143997
01:00:0A:00:00:00:00;1726013353;11/09/24;00:09:13;1.021;0.028;0.106;0.19303341209888458;0.02321287989616394;0.014660765416920185
01:00:0A:00:00:00:00;1726013354;11/09/24;00:09:14;1.022;-0.003;0.112;0.161268413066864;-0.004886921960860491;0.03420845419168472
01:00:0A:00:00:00:00;1726013355;11/09/24;00:09:15;1.017;-0.004;0.104;0.15882496535778046;-0.0354301817715168;0.01710422709584236
01:00:0A:00:00:00:00;1726013356;11/09/24;00:09:16;1.014;0.007;0.106;0.1368338167667389;0.006108652334660292;0.025656338781118393
01:00:0A:00:00:00:00;1726013357;11/09/24;00:09:17;1.017;-0.006;0.127;0.12095131725072861;0.004886921960860491;0.040317103266716
01:00:0A:00:00:00:00;1726013358;11/09/24;00:09:18;1.028;-0.006;0.127;0.13316862285137177;-0.004886921960860491;0.025656338781118393
01:00:0A:00:00:00:00;1726013359;11/09/24;00:09:19;1.021;0.014;0.122;0.1258382350206375;0.02076941914856434;0.006108652334660292
01:00:0A:00:00:00:00;1726013360;11/09/24;00:09:20;0.999;0.013;0.119;0.10751228034496307;0.0073303827084600925;0.02687807008624077
01:00:0A:00:00:00:00;1726013361;11/09/24;00:09:21;0.981;0.026;0.107;0.1014036238193512;-0.036651913076639175;-0.024434609338641167
01:00:0A:00:00:00:00;1726013362;11/09/24;00:09:22;0.973;0.018;0.105;0.0708603635430336;-0.05742133408784866;-0.015882495790719986
01:00:0A:00:00:00:00;1726013363;11/09/24;00:09:23;0.993;0.004;0.109;0.04398229718208313;-0.03420845419168472;-0.006108652334660292
01:00:0A:00:00:00:00;1726013364;11/09/24;00:09:24;1.033;0.001;0.12;0.025656338781118393;-0.0024434609804302454;0.03298672288656235
01:00:0A:00:00:00:00;1726013365;11/09/24;00:09:25;1.058;0.026;0.125;0.00855211354792118;0.018325956538319588;0.04398229718208313
01:00:0A:00:00:00:00;1726013366;11/09/24;00:09:26;1.06;0.027;0.115;-0.0012217304902151227;0.03298672288656235;0.010995574295520782
01:00:0A:00:00:00:00;1726013367;11/09/24;00:09:27;1.028;0.03;0.062;0.0073303827084600925;-0.012217304669320583;-0.039095375686883926
01:00:0A:00:00:00:00;1726013368;11/09/24;00:09:28;0.988;0.003;0.082;0.00855211354792118;0.03420845419168472;-0.01710422709584236
01:00:0A:00:00:00:00;1726013369;11/09/24;00:09:29;0.936;-0.002;0.081;0.028099799528717995;-0.059864792972803116;-0.05253440886735916
01:00:0A:00:00:00:00;1726013370;11/09/24;00:09:30;0.958;0.0;0.082;-0.021991148591041565;-0.05375614017248154;0.04764748737215996
01:00:0A:00:00:00:00;1726013371;11/09/24;00:09:31;1.022;0.01;0.112;-0.025656338781118393;-0.06352998316287994;0.009773843921720982
01:00:0A:00:00:00:00;1726013372;11/09/24;00:09:32;1.047;0.058;0.119;-0.07819075137376785;-0.02687807008624077;0.05619959905743599
01:00:0A:00:00:00:00;1726013373;11/09/24;00:09:33;1.054;0.008;0.126;-0.08429940044879913;0.04886921867728233;-0.009773843921720982
01:00:0A:00:00:00:00;1726013374;11/09/24;00:09:34;1.008;0.027;0.105;-0.07696902006864548;0.06230825558304787;-0.06841690838336945
01:00:0A:00:00:00:00;1726013375;11/09/24;00:09:35;0.976;-0.009;0.099;-0.10751228034496307;-0.006108652334660292;0.05009094998240471
01:00:0A:00:00:00:00;1726013376;11/09/24;00:09:36;0.986;-0.03;0.109;-0.05497787147760391;-0.06475171446800232;-0.04398229718208313
01:00:0A:00:00:00:00;1726013377;11/09/24;00:09:37;1.021;0.012;0.118;-0.06230825558304787;-0.06352998316287994;0.04398229718208313
01:00:0A:00:00:00:00;1726013378;11/09/24;00:09:38;1.057;0.004;0.131;-0.06230825558304787;-0.0012217304902151227;0.015882495790719986
01:00:0A:00:00:00:00;1726013379;11/09/24;00:09:39;1.054;0.013;0.125;-0.045204028487205505;0.040317103266716;-0.00855211354792118
01:00:0A:00:00:00:00;1726013380;11/09/24;00:09:40;1.011;0.009;0.1;-0.03298672288656235;0.02932153083384037;-0.02321287989616394
01:00:0A:00:00:00:00;1726013381;11/09/24;00:09:41;0.976;-0.006;0.085;-0.025656338781118393;-0.03298672288656235;-0.00855211354792118
01:00:0A:00:00:00:00;1726013382;11/09/24;00:09:42;0.985;-0.008;0.091;-0.009773843921720982;-0.040317103266716;-0.028099799528717995
01:00:0A:00:00:00:00;1726013383;11/09/24;00:09:43;1.013;0.0;0.12;-0.012217304669320583;-0.06841690838336945;0.006108652334660292
01:00:0A:00:00:00:00;1726013384;11/09/24;00:09:44;1.026;-0.003;0.131;-0.010995574295520782;-0.04398229718208313;0.014660765416920185
01:00:0A:00:00:00:00;1726013385;11/09/24;00:09:45;1.029;-0.004;0.135;-0.004886921960860491;0.018325956538319588;0.0036651913542300463
01:00:0A:00:00:00:00;1726013386;11/09/24;00:09:46;1.018;0.0;0.131;-0.006108652334660292;0.0354301817715168;0.0
01:00:0A:00:00:00:00;1726013387;11/09/24;00:09:47;1.001;-0.006;0.107;-0.012217304669320583;0.014660765416920185;0.02932153083384037
01:00:0A:00:00:00:00;1726013388;11/09/24;00:09:48;0.999;0.0;0.1;0.0;-0.0073303827084600925;0.010995574295520782
01:00:0A:00:00:00:00;1726013389;11/09/24;00:09:49;1.003;0.011;0.107;0.004886921960860491;-0.042760565876960754;0.0036651913542300463
01:00:0A:00:00:00:00;1726013390;11/09/24;00:09:50;1.018;0.01;0.118;0.004886921960860491;-0.042760565876960754;-0.0073303827084600925
01:00:0A:00:00:00:00;1726013391;11/09/24;00:09:51;1.028;0.005;0.129;0.006108652334660292;-0.018325956538319588;-0.02076941914856434
01:00:0A:00:00:00:00;1726013392;11/09/24;00:09:52;1.036;0.0;0.13;0.0036651913542300463;0.012217304669320583;-0.00855211354792118
01:00:0A:00:00:00:00;1726013393;11/09/24;00:09:53;1.023;-0.002;0.121;0.0036651913542300463;0.024434609338641167;-0.0012217304902151227
01:00:0A:00:00:00:00;1726013394;11/09/24;00:09:54;0.989;0.0;0.109;0.004886921960860491;0.018325956538319588;0.0073303827084600925
01:00:0A:00:00:00:00;1726013395;11/09/24;00:09:55;0.972;0.001;0.106;0.0073303827084600925;-0.018325956538319588;0.02687807008624077
01:00:0A:00:00:00:00;1726013396;11/09/24;00:09:56;0.99;0.003;0.101;0.013439035043120384;-0.040317103266716;0.009773843921720982
01:00:0A:00:00:00:00;1726013397;11/09/24;00:09:57;1.017;0.002;0.106;0.013439035043120384;-0.04886921867728233;0.018325956538319588
01:00:0A:00:00:00:00;1726013398;11/09/24;00:09:58;1.047;0.004;0.125;0.02076941914856434;-0.040317103266716;0.012217304669320583
01:00:0A:00:00:00:00;1726013399;11/09/24;00:09:59;1.047;0.003;0.127;0.03298672288656235;0.00855211354792118;-0.019547687843441963
01:00:0A:00:00:00:00;1726013400;11/09/24;00:10:00;1.026;0.004;0.122;0.0354301817715168;0.03298672288656235;-0.024434609338641167
01:00:0A:00:00:00:00;1726013401;11/09/24;00:10:01;0.982;-0.013;0.112;0.039095375686883926;0.021991148591041565;-0.0024434609804302454
01:00:0A:00:00:00:00;1726013402;11/09/24;00:10:02;0.971;-0.014;0.111;0.04886921867728233;0.0;0.004886921960860491
01:00:0A:00:00:00:00;1726013403;11/09/24;00:10:03;0.988;-0.004;0.112;0.045204028487205505;-0.014660765416920185;0.03420845419168472
01:00:0A:00:00:00:00;1726013404;11/09/24;00:10:04;1.009;0.003;0.117;0.04886921867728233;-0.02687807008624077;0.024434609338641167
01:00:0A:00:00:00:00;1726013405;11/09/24;00:10:05;1.031;0.018;0.115;0.05009094998240471;-0.021991148591041565;0.0036651913542300463
01:00:0A:00:00:00:00;1726013406;11/09/24;00:10:06;1.035;0.011;0.119;0.04153883829712868;-0.01710422709584236;-0.00855211354792118
01:00:0A:00:00:00:00;1726013407;11/09/24;00:10:07;1.018;0.001;0.121;0.03298672288656235;-0.013439035043120384;-0.012217304669320583
01:00:0A:00:00:00:00;1726013408;11/09/24;00:10:08;1.001;0.0;0.122;0.02687807008624077;-0.015882495790719986;-0.0024434609804302454
01:00:0A:00:00:00:00;1726013409;11/09/24;00:10:09;0.996;0.0;0.128;0.019547687843441963;-0.019547687843441963;0.010995574295520782
01:00:0A:00:00:00:00;1726013410;11/09/24;00:10:10;1.009;0.001;0.125;0.018325956538319588;-0.015882495790719986;0.013439035043120384
01:00:0A:00:00:00:00;1726013411;11/09/24;00:10:11;1.021;0.008;0.125;0.014660765416920185;0.0012217304902151227;0.010995574295520782
01:00:0A:00:00:00:00;1726013412;11/09/24;00:10:12;1.034;0.008;0.123;0.010995574295520782;0.014660765416920185;0.0036651913542300463
01:00:0A:00:00:00:00;1726013413;11/09/24;00:10:13;1.03;0.001;0.124;0.009773843921720982;0.006108652334660292;0.0024434609804302454
01:00:0A:00:00:00:00;1726013414;11/09/24;00:10:14;1.0;0.001;0.113;0.0024434609804302454;0.0036651913542300463;0.012217304669320583
01:00:0A:00:00:00:00;1726013415;11/09/24;00:10:15;0.983;0.0;0.114;-0.0024434609804302454;0.0073303827084600925;0.01710422709584236
01:00:0A:00:00:00:00;1726013416;11/09/24;00:10:16;0.981;0.001;0.116;0.0;-0.0024434609804302454;0.00855211354792118
01:00:0A:00:00:00:00;1726013417;11/09/24;00:10:17;1.012;0.007;0.109;0.0;-0.025656338781118393;0.0073303827084600925
01:00:0A:00:00:00:00;1726013418;11/09/24;00:10:18;1.028;0.003;0.109;-0.0036651913542300463;-0.040317103266716;0.009773843921720982
01:00:0A:00:00:00:00;1726013419;11/09/24;00:10:19;1.031;0.001;0.125;0.0012217304902151227;-0.04764748737215996;-0.0036651913542300463
01:00:0A:00:00:00:00;1726013420;11/09/24;00:10:20;1.023;0.003;0.13;0.0012217304902151227;-0.04153883829712868;-0.0036651913542300463
01:00:0A:00:00:00:00;1726013421;11/09/24;00:10:21;1.01;0.002;0.135;-0.004886921960860491;-0.004886921960860491;0.0
01:00:0A:00:00:00:00;1726013422;11/09/24;00:10:22;1.008;0.0;0.131;0.004886921960860491;0.004886921960860491;-0.018325956538319588
01:00:0A:00:00:00:00;1726013423;11/09/24;00:10:23;1.009;-0.006;0.117;0.0073303827084600925;0.0073303827084600925;-0.019547687843441963
01:00:0A:00:00:00:00;1726013424;11/09/24;00:10:24;1.011;-0.003;0.112;-0.0024434609804302454;-0.0036651913542300463;0.0036651913542300463
01:00:0A:00:00:00:00;1726013425;11/09/24;00:10:25;1.014;-0.002;0.115;-0.006108652334660292;-0.021991148591041565;0.021991148591041565
01:00:0A:00:00:00:00;1726013426;11/09/24;00:10:26;1.014;0.014;0.115;-0.004886921960860491;-0.024434609338641167;0.0024434609804302454
01:00:0A:00:00:00:00;1726013427;11/09/24;00:10:27;1.013;0.017;0.115;-0.012217304669320583;-0.012217304669320583;-0.0024434609804302454
01:00:0A:00:00:00:00;1726013428;11/09/24;00:10:28;1.003;0.006;0.119;-0.019547687843441963;-0.014660765416920185;-0.006108652334660292
01:00:0A:00:00:00:00;1726013429;11/09/24;00:10:29;0.989;0.006;0.114;-0.025656338781118393;-0.018325956538319588;-0.010995574295520782
01:00:0A:00:00:00:00;1726013430;11/09/24;00:10:30;0.996;0.0;0.113;-0.03420845419168472;-0.039095375686883926;0.02076941914856434
01:00:0A:00:00:00:00;1726013431;11/09/24;00:10:31;1.016;0.0;0.123;-0.02687807008624077;-0.045204028487205505;0.009773843921720982
01:00:0A:00:00:00:00;1726013432;11/09/24;00:10:32;1.038;0.004;0.14;0.02321287989616394;-0.012217304669320583;-0.009773843921720982
01:00:0A:00:00:00:00;1726013433;11/09/24;00:10:33;1.047;0.017;0.114;0.013439035043120384;0.006108652334660292;-0.004886921960860491
01:00:0A:00:00:00:00;1726013434;11/09/24;00:10:34;1.016;-0.006;0.116;0.006108652334660292;0.03420845419168472;0.02076941914856434
01:00:0A:00:00:00:00;1726013435;11/09/24;00:10:35;0.976;0.006;0.114;0.02321287989616394;-0.025656338781118393;-0.0036651913542300463
01:00:0A:00:00:00:00;1726013436;11/09/24;00:10:36;0.974;0.019;0.11;0.0036651913542300463;-0.039095375686883926;0.03298672288656235
01:00:0A:00:00:00:00;1726013437;11/09/24;00:10:37;1.006;0.008;0.12;0.0073303827084600925;-0.024434609338641167;-0.02076941914856434
01:00:0A:00:00:00:00;1726013438;11/09/24;00:10:38;1.028;0.009;0.135;0.0073303827084600925;-0.036651913076639175;-0.012217304669320583
01:00:0A:00:00:00:00;1726013439;11/09/24;00:10:39;1.048;0.002;0.117;-0.006108652334660292;0.006108652334660292;0.00855211354792118
01:00:0A:00:00:00:00;1726013440;11/09/24;00:10:40;1.043;-0.006;0.124;-0.012217304669320583;0.015882495790719986;0.02076941914856434
01:00:0A:00:00:00:00;1726013441;11/09/24;00:10:41;1.019;0.019;0.133;-0.015882495790719986;-0.0012217304902151227;0.0073303827084600925
01:00:0A:00:00:00:00;1726013442;11/09/24;00:10:42;1.006;0.017;0.121;-0.03298672288656235;-0.004886921960860491;0.00855211354792118
01:00:0A:00:00:00:00;1726013443;11/09/24;00:10:43;0.981;0.013;0.119;-0.03787364438176155;0.012217304669320583;-0.01710422709584236
01:00:0A:00:00:00:00;1726013443;11/09/24;00:10:43;0.983;0.006;0.122;-0.04642575979232788;-0.028099799528717995;-0.02076941914856434
01:00:0A:00:00:00:00;1726013444;11/09/24;00:10:44;1.001;0.002;0.113;-0.059864792972803116;-0.05253440886735916;0.010995574295520782
01:00:0A:00:00:00:00;1726013445;11/09/24;00:10:45;1.029;-0.007;0.123;-0.05619959905743599;-0.01710422709584236;0.00855211354792118
01:00:0A:00:00:00:00;1726013446;11/09/24;00:10:46;1.036;0.0;0.144;-0.04764748737215996;-0.03176499158143997;0.012217304669320583
01:00:0A:00:00:00:00;1726013447;11/09/24;00:10:47;1.042;0.005;0.126;-0.04642575979232788;-0.009773843921720982;0.014660765416920185
01:00:0A:00:00:00:00;1726013448;11/09/24;00:10:48;1.031;0.001;0.122;-0.04642575979232788;0.03787364438176155;0.009773843921720982
01:00:0A:00:00:00:00;1726013449;11/09/24;00:10:49;1.003;0.008;0.115;-0.04153883829712868;0.018325956538319588;-0.012217304669320583
01:00:0A:00:00:00:00;1726013450;11/09/24;00:10:50;0.993;0.005;0.104;-0.04398229718208313;-0.015882495790719986;-0.0012217304902151227
01:00:0A:00:00:00:00;1726013451;11/09/24;00:10:51;0.992;0.003;0.116;-0.040317103266716;-0.02076941914856434;-0.01710422709584236
01:00:0A:00:00:00:00;1726013452;11/09/24;00:10:52;1.005;0.0;0.127;-0.03787364438176155;-0.045204028487205505;-0.015882495790719986
01:00:0A:00:00:00:00;1726013453;11/09/24;00:10:53;1.015;-0.002;0.122;-0.04642575979232788;-0.02932153083384037;0.00855211354792118
01:00:0A:00:00:00:00;1726013454;11/09/24;00:10:54;1.022;-0.004;0.128;-0.04764748737215996;-0.0012217304902151227;0.015882495790719986
01:00:0A:00:00:00:00;1726013455;11/09/24;00:10:55;1.019;0.001;0.128;-0.04153883829712868;-0.006108652334660292;0.013439035043120384
01:00:0A:00:00:00:00;1726013456;11/09/24;00:10:56;1.016;0.008;0.113;-0.04153883829712868;-0.012217304669320583;0.01710422709584236
01:00:0A:00:00:00:00;1726013457;11/09/24;00:10:57;1.015;0.007;0.119;-0.0354301817715168;-0.004886921960860491;0.0073303827084600925
01:00:0A:00:00:00:00;1726013458;11/09/24;00:10:58;1.011;0.006;0.123;-0.024434609338641167;-0.012217304669320583;-0.010995574295520782
01:00:0A:00:00:00:00;1726013459;11/09/24;00:10:59;1.012;0.003;0.117;-0.02687807008624077;-0.012217304669320583;0.0036651913542300463
01:00:0A:00:00:00:00;1726013460;11/09/24;00:11:00;1.015;0.005;0.118;-0.024434609338641167;-0.0073303827084600925;-0.0024434609804302454
01:00:0A:00:00:00:00;1726013461;11/09/24;00:11:01;1.018;0.004;0.123;-0.010995574295520782;-0.010995574295520782;-0.019547687843441963
01:00:0A:00:00:00:00;1726013462;11/09/24;00:11:02;1.022;0.003;0.12;-0.010995574295520782;-0.0036651913542300463;-0.012217304669320583
01:00:0A:00:00:00:00;1726013463;11/09/24;00:11:03;1.009;-0.003;0.122;-0.009773843921720982;0.006108652334660292;-0.0024434609804302454
01:00:0A:00:00:00:00;1726013464;11/09/24;00:11:04;0.997;-0.002;0.121;0.0012217304902151227;0.0;-0.010995574295520782
01:00:0A:00:00:00:00;1726013465;11/09/24;00:11:05;0.985;-0.002;0.11;0.0024434609804302454;-0.019547687843441963;-0.0024434609804302454
01:00:0A:00:00:00:00;1726013466;11/09/24;00:11:06;0.991;-0.007;0.11;0.0;-0.02321287989616394;0.01710422709584236
01:00:0A:00:00:00:00;1726013467;11/09/24;00:11:07;1.022;-0.003;0.124;0.00855211354792118;-0.036651913076639175;0.010995574295520782
01:00:0A:00:00:00:00;1726013468;11/09/24;00:11:08;1.035;0.006;0.123;0.0073303827084600925;-0.025656338781118393;0.009773843921720982
01:00:0A:00:00:00:00;1726013469;11/09/24;00:11:09;1.033;0.002;0.126;0.0024434609804302454;0.00855211354792118;0.014660765416920185
01:00:0A:00:00:00:00;1726013470;11/09/24;00:11:10;1.007;0.005;0.12;0.010995574295520782;0.01710422709584236;-0.010995574295520782
01:00:0A:00:00:00:00;1726013471;11/09/24;00:11:11;0.997;0.007;0.115;0.013439035043120384;-0.0024434609804302454;-0.01710422709584236
01:00:0A:00:00:00:00;1726013472;11/09/24;00:11:12;0.994;0.002;0.113;0.00855211354792118;-0.01710422709584236;-0.0036651913542300463
01:00:0A:00:00:00:00;1726013473;11/09/24;00:11:13;1.003;0.0;0.118;0.013439035043120384;-0.030543262138962746;-0.0073303827084600925
01:00:0A:00:00:00:00;1726013474;11/09/24;00:11:14;1.016;0.001;0.117;0.012217304669320583;-0.02321287989616394;-0.0012217304902151227
01:00:0A:00:00:00:00;1726013475;11/09/24;00:11:15;1.017;-0.004;0.124;0.00855211354792118;0.0024434609804302454;0.004886921960860491
01:00:0A:00:00:00:00;1726013476;11/09/24;00:11:16;1.009;-0.003;0.119;0.009773843921720982;0.006108652334660292;0.015882495790719986
01:00:0A:00:00:00:00;1726013477;11/09/24;00:11:17;1.003;0.001;0.108;0.009773843921720982;0.0;0.012217304669320583
01:00:0A:00:00:00:00;1726013478;11/09/24;00:11:18;1.004;0.005;0.111;0.0073303827084600925;-0.014660765416920185;0.021991148591041565
01:00:0A:00:00:00:00;1726013479;11/09/24;00:11:19;1.012;0.007;0.118;0.018325956538319588;-0.039095375686883926;0.0
01:00:0A:00:00:00:00;1726013480;11/09/24;00:11:20;1.02;0.005;0.12;0.019547687843441963;-0.03176499158143997;-0.0036651913542300463
01:00:0A:00:00:00:00;1726013481;11/09/24;00:11:21;1.027;0.004;0.132;0.014660765416920185;-0.0073303827084600925;0.0036651913542300463
01:00:0A:00:00:00:00;1726013482;11/09/24;00:11:22;1.026;-0.001;0.129;0.018325956538319588;0.0036651913542300463;0.0024434609804302454
01:00:0A:00:00:00:00;1726013483;11/09/24;00:11:23;1.013;0.007;0.119;0.01710422709584236;0.013439035043120384;-0.0012217304902151227
01:00:0A:00:00:00:00;1726013484;11/09/24;00:11:24;1.004;0.005;0.116;0.009773843921720982;0.006108652334660292;0.012217304669320583
01:00:0A:00:00:00:00;1726013485;11/09/24;00:11:25;0.994;0.0;0.116;0.015882495790719986;-0.018325956538319588;0.0036651913542300463
01:00:0A:00:00:00:00;1726013486;11/09/24;00:11:26;0.996;0.002;0.115;0.018325956538319588;-0.025656338781118393;0.0024434609804302454
01:00:0A:00:00:00:00;1726013487;11/09/24;00:11:27;1.006;0.001;0.117;0.012217304669320583;-0.03420845419168472;0.01710422709584236
01:00:0A:00:00:00:00;1726013488;11/09/24;00:11:28;1.024;-0.001;0.125;0.01710422709584236;-0.021991148591041565;0.010995574295520782
01:00:0A:00:00:00:00;1726013489;11/09/24;00:11:29;1.028;0.006;0.122;0.019547687843441963;-0.009773843921720982;0.004886921960860491
01:00:0A:00:00:00:00;1726013490;11/09/24;00:11:30;1.023;0.006;0.122;0.015882495790719986;-0.004886921960860491;0.0073303827084600925
01:00:0A:00:00:00:00;1726013491;11/09/24;00:11:31;1.014;0.0;0.122;0.021991148591041565;-0.004886921960860491;0.0
01:00:0A:00:00:00:00;1726013492;11/09/24;00:11:32;1.002;0.002;0.12;0.025656338781118393;-0.0012217304902151227;-0.0073303827084600925
01:00:0A:00:00:00:00;1726013493;11/09/24;00:11:33;1.001;0.0;0.115;0.02076941914856434;-0.012217304669320583;0.012217304669320583
01:00:0A:00:00:00:00;1726013494;11/09/24;00:11:34;1.007;-0.002;0.117;0.02687807008624077;-0.024434609338641167;0.004886921960860491
01:00:0A:00:00:00:00;1726013495;11/09/24;00:11:35;1.016;0.006;0.12;0.02932153083384037;-0.009773843921720982;-0.0012217304902151227
01:00:0A:00:00:00:00;1726013496;11/09/24;00:11:36;1.016;0.005;0.122;0.02321287989616394;-0.0073303827084600925;0.014660765416920185
01:00:0A:00:00:00:00;1726013497;11/09/24;00:11:37;1.015;0.0;0.118;0.028099799528717995;-0.00855211354792118;0.0
01:00:0A:00:00:00:00;1726013498;11/09/24;00:11:38;1.013;0.004;0.116;0.030543262138962746;-0.006108652334660292;-0.00855211354792118
01:00:0A:00:00:00:00;1726013499;11/09/24;00:11:39;1.014;0.002;0.116;0.021991148591041565;-0.009773843921720982;0.0073303827084600925
01:00:0A:00:00:00:00;1726013500;11/09/24;00:11:40;1.013;-0.002;0.116;0.024434609338641167;-0.019547687843441963;0.0024434609804302454
01:00:0A:00:00:00:00;1726013501;11/09/24;00:11:41;1.01;0.005;0.118;0.025656338781118393;-0.015882495790719986;-0.004886921960860491
01:00:0A:00:00:00:00;1726013502;11/09/24;00:11:42;1.008;0.005;0.118;0.014660765416920185;-0.010995574295520782;0.009773843921720982
01:00:0A:00:00:00:00;1726013503;11/09/24;00:11:43;1.011;-0.003;0.118;0.019547687843441963;-0.01710422709584236;-0.0036651913542300463
01:00:0A:00:00:00:00;1726013504;11/09/24;00:11:44;1.013;0.004;0.117;0.019547687843441963;-0.02076941914856434;-0.0036651913542300463
01:00:0A:00:00:00:00;1726013505;11/09/24;00:11:45;1.02;0.004;0.123;0.00855211354792118;-0.012217304669320583;0.015882495790719986
01:00:0A:00:00:00:00;1726013506;11/09/24;00:11:46;1.021;0.001;0.124;0.012217304669320583;-0.0012217304902151227;0.0024434609804302454
01:00:0A:00:00:00:00;1726013507;11/09/24;00:11:47;1.016;0.009;0.121;0.01710422709584236;0.0036651913542300463;-0.013439035043120384
01:00:0A:00:00:00:00;1726013508;11/09/24;00:11:48;1.008;0.004;0.115;0.00855211354792118;0.0073303827084600925;-0.0012217304902151227
01:00:0A:00:00:00:00;1726013509;11/09/24;00:11:49;1.003;-0.002;0.111;0.014660765416920185;-0.0036651913542300463;-0.00855211354792118
01:00:0A:00:00:00:00;1726013510;11/09/24;00:11:50;1.0;0.0;0.111;0.01710422709584236;-0.030543262138962746;-0.0036651913542300463
01:00:0A:00:00:00:00;1726013511;11/09/24;00:11:51;1.001;0.0;0.117;0.0073303827084600925;-0.0354301817715168;0.019547687843441963
01:00:0A:00:00:00:00;1726013512;11/09/24;00:11:52;1.012;0.0;0.127;0.013439035043120384;-0.03176499158143997;0.009773843921720982
01:00:0A:00:00:00:00;1726013513;11/09/24;00:11:53;1.024;0.008;0.13;0.01710422709584236;-0.0073303827084600925;0.0
01:00:0A:00:00:00:00;1726013514;11/09/24;00:11:54;1.026;0.007;0.128;0.010995574295520782;0.009773843921720982;0.0024434609804302454
01:00:0A:00:00:00:00;1726013515;11/09/24;00:11:55;1.024;0.0;0.122;0.013439035043120384;0.015882495790719986;-0.0036651913542300463
01:00:0A:00:00:00:00;1726013516;11/09/24;00:11:56;1.014;0.006;0.117;0.01710422709584236;0.00855211354792118;-0.012217304669320583
01:00:0A:00:00:00:00;1726013517;11/09/24;00:11:57;0.995;0.005;0.11;0.00855211354792118;-0.01710422709584236;0.009773843921720982
01:00:0A:00:00:00:00;1726013518;11/09/24;00:11:58;0.99;0.0;0.114;0.009773843921720982;-0.025656338781118393;0.0012217304902151227
01:00:0A:00:00:00:00;1726013519;11/09/24;00:11:59;1.001;0.001;0.118;0.012217304669320583;-0.036651913076639175;-0.0036651913542300463
01:00:0A:00:00:00:00;1726013520;11/09/24;00:12:00;1.011;0.0;0.118;0.0036651913542300463;-0.02932153083384037;0.014660765416920185
01:00:0A:00:00:00:00;1726013521;11/09/24;00:12:01;1.023;-0.004;0.125;0.004886921960860491;-0.010995574295520782;0.014660765416920185
01:00:0A:00:00:00:00;1726013522;11/09/24;00:12:02;1.025;0.004;0.122;0.010995574295520782;-0.0024434609804302454;0.0012217304902151227
01:00:0A:00:00:00:00;1726013523;11/09/24;00:12:03;1.02;0.006;0.121;0.00855211354792118;0.0;0.006108652334660292
01:00:0A:00:00:00:00;1726013524;11/09/24;00:12:04;1.008;0.0;0.122;0.009773843921720982;0.0036651913542300463;0.0036651913542300463
01:00:0A:00:00:00:00;1726013525;11/09/24;00:12:05;1.008;0.004;0.118;0.015882495790719986;-0.0012217304902151227;-0.00855211354792118
01:00:0A:00:00:00:00;1726013526;11/09/24;00:12:06;1.004;0.002;0.112;0.009773843921720982;-0.004886921960860491;0.0036651913542300463
01:00:0A:00:00:00:00;1726013527;11/09/24;00:12:07;1.003;-0.002;0.117;0.010995574295520782;-0.010995574295520782;0.0024434609804302454
01:00:0A:00:00:00:00;1726013528;11/09/24;00:12:08;1.004;0.0;0.117;0.015882495790719986;-0.028099799528717995;0.0
01:00:0A:00:00:00:00;1726013529;11/09/24;00:12:09;1.007;0.002;0.115;0.00855211354792118;-0.024434609338641167;0.012217304669320583
01:00:0A:00:00:00:00;1726013530;11/09/24;00:12:10;1.014;-0.001;0.122;0.009773843921720982;-0.015882495790719986;0.009773843921720982
01:00:0A:00:00:00:00;1726013531;11/09/24;00:12:11;1.019;0.003;0.121;0.014660765416920185;-0.012217304669320583;0.0036651913542300463
01:00:0A:00:00:00:00;1726013532;11/09/24;00:12:12;1.023;0.008;0.118;0.010995574295520782;-0.0024434609804302454;0.0073303827084600925
01:00:0A:00:00:00:00;1726013533;11/09/24;00:12:13;1.016;0.003;0.119;0.012217304669320583;0.0012217304902151227;-0.0024434609804302454
01:00:0A:00:00:00:00;1726013534;11/09/24;00:12:14;1.014;0.005;0.119;0.018325956538319588;-0.012217304669320583;-0.015882495790719986
01:00:0A:00:00:00:00;1726013535;11/09/24;00:12:15;1.007;0.001;0.118;0.009773843921720982;-0.006108652334660292;0.0
01:00:0A:00:00:00:00;1726013536;11/09/24;00:12:16;1.005;-0.003;0.121;0.0073303827084600925;0.0;0.00855211354792118
01:00:0A:00:00:00:00;1726013537;11/09/24;00:12:17;1.0;0.002;0.119;0.010995574295520782;-0.018325956538319588;0.0024434609804302454
01:00:0A:00:00:00:00;1726013538;11/09/24;00:12:18;1.004;0.005;0.114;0.0012217304902151227;-0.01710422709584236;0.019547687843441963
01:00:0A:00:00:00:00;1726013539;11/09/24;00:12:19;1.012;0.003;0.119;0.0012217304902151227;-0.01710422709584236;0.009773843921720982
01:00:0A:00:00:00:00;1726013540;11/09/24;00:12:20;1.016;0.003;0.121;0.004886921960860491;-0.01710422709584236;-0.0024434609804302454
01:00:0A:00:00:00:00;1726013541;11/09/24;00:12:21;1.017;0.007;0.119;-0.0024434609804302454;-0.010995574295520782;0.0073303827084600925
01:00:0A:00:00:00:00;1726013542;11/09/24;00:12:22;1.016;0.0;0.121;-0.0012217304902151227;-0.0012217304902151227;0.0036651913542300463
01:00:0A:00:00:00:00;1726013543;11/09/24;00:12:23;1.013;0.002;0.12;0.006108652334660292;-0.0073303827084600925;-0.006108652334660292
01:00:0A:00:00:00:00;1726013544;11/09/24;00:12:24;1.011;0.003;0.117;0.0024434609804302454;-0.009773843921720982;0.0024434609804302454
01:00:0A:00:00:00:00;1726013545;11/09/24;00:12:25;1.01;-0.003;0.12;0.0036651913542300463;-0.0036651913542300463;0.006108652334660292
01:00:0A:00:00:00:00;1726013546;11/09/24;00:12:26;1.007;0.0;0.12;0.012217304669320583;-0.014660765416920185;-0.006108652334660292
01:00:0A:00:00:00:00;1726013547;11/09/24;00:12:27;1.006;0.001;0.117;0.0073303827084600925;-0.014660765416920185;0.00855211354792118
01:00:0A:00:00:00:00;1726013548;11/09/24;00:12:28;1.008;0.0;0.118;0.006108652334660292;-0.013439035043120384;0.015882495790719986
01:00:0A:00:00:00:00;1726013549;11/09/24;00:12:29;1.013;0.0;0.121;0.01710422709584236;-0.02076941914856434;-0.004886921960860491
01:00:0A:00:00:00:00;1726013550;11/09/24;00:12:30;1.016;0.005;0.12;0.010995574295520782;-0.015882495790719986;0.00855211354792118
01:00:0A:00:00:00:00;1726013551;11/09/24;00:12:31;1.018;0.0;0.122;0.010995574295520782;-0.006108652334660292;0.004886921960860491
01:00:0A:00:00:00:00;1726013552;11/09/24;00:12:32;1.016;0.0;0.123;0.018325956538319588;-0.0073303827084600925;-0.00855211354792118
01:00:0A:00:00:00:00;1726013553;11/09/24;00:12:33;1.012;0.003;0.118;0.012217304669320583;-0.006108652334660292;0.0024434609804302454
01:00:0A:00:00:00:00;1726013554;11/09/24;00:12:34;1.013;-0.002;0.12;0.009773843921720982;-0.0024434609804302454;0.009773843921720982
01:00:0A:00:00:00:00;1726013555;11/09/24;00:12:35;1.013;0.001;0.118;0.01710422709584236;-0.00855211354792118;-0.0024434609804302454
01:00:0A:00:00:00:00;1726013556;11/09/24;00:12:36;1.011;0.008;0.115;0.014660765416920185;-0.00855211354792118;0.0
01:00:0A:00:00:00:00;1726013557;11/09/24;00:12:37;1.005;0.0;0.117;0.012217304669320583;-0.00855211354792118;0.006108652334660292
01:00:0A:00:00:00:00;1726013558;11/09/24;00:12:38;1.006;0.002;0.119;0.019547687843441963;-0.024434609338641167;-0.009773843921720982
01:00:0A:00:00:00:00;1726013559;11/09/24;00:12:39;1.013;0.003;0.119;0.012217304669320583;-0.024434609338641167;0.0012217304902151227
01:00:0A:00:00:00:00;1726013560;11/09/24;00:12:40;1.022;0.0;0.122;0.0073303827084600925;-0.0036651913542300463;0.00855211354792118
01:00:0A:00:00:00:00;1726013561;11/09/24;00:12:41;1.024;0.002;0.123;0.012217304669320583;-0.0036651913542300463;-0.0012217304902151227
01:00:0A:00:00:00:00;1726013562;11/09/24;00:12:42;1.013;0.007;0.117;0.0073303827084600925;-0.0012217304902151227;-0.0012217304902151227
01:00:0A:00:00:00:00;1726013563;11/09/24;00:12:43;1.002;0.002;0.119;0.0024434609804302454;0.0;0.0012217304902151227
01:00:0A:00:00:00:00;1726013564;11/09/24;00:12:44;0.996;0.0;0.119;0.006108652334660292;-0.02687807008624077;-0.0036651913542300463
01:00:0A:00:00:00:00;1726013565;11/09/24;00:12:45;1.01;0.005;0.117;0.0024434609804302454;-0.030543262138962746;0.0024434609804302454
01:00:0A:00:00:00:00;1726013566;11/09/24;00:12:46;1.021;0.0;0.123;-0.004886921960860491;-0.015882495790719986;0.00855211354792118
01:00:0A:00:00:00:00;1726013567;11/09/24;00:12:47;1.027;0.001;0.124;-0.0024434609804302454;-0.004886921960860491;0.0024434609804302454
01:00:0A:00:00:00:00;1726013568;11/09/24;00:12:48;1.02;0.004;0.118;-0.0024434609804302454;-0.010995574295520782;-0.0024434609804302454
01:00:0A:00:00:00:00;1726013569;11/09/24;00:12:49;1.007;0.001;0.12;-0.0073303827084600925;0.0012217304902151227;0.006108652334660292
01:00:0A:00:00:00:00;1726013570;11/09/24;00:12:50;1.001;0.001;0.119;-0.0036651913542300463;-0.010995574295520782;0.0012217304902151227
01:00:0A:00:00:00:00;1726013571;11/09/24;00:12:51;1.003;0.004;0.113;-0.006108652334660292;-0.01710422709584236;0.0036651913542300463
01:00:0A:00:00:00:00;1726013572;11/09/24;00:12:52;1.011;0.0;0.115;-0.0073303827084600925;-0.013439035043120384;0.004886921960860491
01:00:0A:00:00:00:00;1726013573;11/09/24;00:12:53;1.017;-0.001;0.12;-0.004886921960860491;-0.018325956538319588;0.0
01:00:0A:00:00:00:00;1726013574;11/09/24;00:12:54;1.016;0.001;0.113;-0.0073303827084600925;-0.01710422709584236;0.00855211354792118
01:00:0A:00:00:00:00;1726013575;11/09/24;00:12:55;1.013;0.0;0.119;-0.009773843921720982;-0.00855211354792118;0.00855211354792118
01:00:0A:00:00:00:00;1726013576;11/09/24;00:12:56;1.013;0.0;0.119;-0.006108652334660292;-0.0073303827084600925;0.0036651913542300463
01:00:0A:00:00:00:00;1726013577;11/09/24;00:12:57;1.012;0.004;0.115;-0.00855211354792118;-0.00855211354792118;0.004886921960860491
01:00:0A:00:00:00:00;1726013578;11/09/24;00:12:58;1.014;0.0;0.114;-0.009773843921720982;-0.004886921960860491;0.0024434609804302454
01:00:0A:00:00:00:00;1726013579;11/09/24;00:12:59;1.014;0.0;0.115;-0.006108652334660292;-0.013439035043120384;-0.0024434609804302454
01:00:0A:00:00:00:00;1726013580;11/09/24;00:13:00;1.01;0.001;0.115;-0.00855211354792118;-0.01710422709584236;0.0036651913542300463
01:00:0A:00:00:00:00;1726013581;11/09/24;00:13:01;1.006;0.0;0.118;-0.012217304669320583;-0.00855211354792118;0.0073303827084600925
01:00:0A:00:00:00:00;1726013582;11/09/24;00:13:02;1.007;0.0;0.121;-0.00855211354792118;-0.012217304669320583;0.0012217304902151227
01:00:0A:00:00:00:00;1726013583;11/09/24;00:13:03;1.014;0.003;0.116;-0.010995574295520782;-0.006108652334660292;0.0024434609804302454
01:00:0A:00:00:00:00;1726013584;11/09/24;00:13:04;1.015;0.002;0.117;-0.012217304669320583;-0.0036651913542300463;0.004886921960860491
01:00:0A:00:00:00:00;1726013585;11/09/24;00:13:05;1.018;0.001;0.118;-0.009773843921720982;-0.009773843921720982;0.0
01:00:0A:00:00:00:00;1726013586;11/09/24;00:13:06;1.015;0.003;0.115;-0.010995574295520782;-0.014660765416920185;0.0012217304902151227
01:00:0A:00:00:00:00;1726013587;11/09/24;00:13:07;1.012;0.001;0.12;-0.010995574295520782;-0.010995574295520782;0.0012217304902151227
01:00:0A:00:00:00:00;1726013588;11/09/24;00:13:08;1.012;0.001;0.121;-0.00855211354792118;-0.010995574295520782;-0.004886921960860491
01:00:0A:00:00:00:00;1726013589;11/09/24;00:13:09;1.013;0.0;0.118;-0.009773843921720982;-0.009773843921720982;-0.0036651913542300463
01:00:0A:00:00:00:00;1726013590;11/09/24;00:13:10;1.011;0.0;0.118;-0.012217304669320583;-0.0012217304902151227;0.0024434609804302454
01:00:0A:00:00:00:00;1726013591;11/09/24;00:13:11;1.009;0.0;0.116;-0.009773843921720982;-0.009773843921720982;0.0
01:00:0A:00:00:00:00;1726013592;11/09/24;00:13:12;1.01;0.002;0.115;-0.010995574295520782;-0.012217304669320583;0.0024434609804302454
01:00:0A:00:00:00:00;1726013593;11/09/24;00:13:13;1.01;0.001;0.115;-0.012217304669320583;-0.014660765416920185;0.004886921960860491
01:00:0A:00:00:00:00;1726013594;11/09/24;00:13:14;1.014;0.003;0.117;-0.009773843921720982;-0.019547687843441963;0.0
01:00:0A:00:00:00:00;1726013595;11/09/24;00:13:15;1.016;0.003;0.116;-0.009773843921720982;-0.015882495790719986;0.0
01:00:0A:00:00:00:00;1726013596;11/09/24;00:13:16;1.02;0.001;0.12;-0.009773843921720982;-0.012217304669320583;-0.0012217304902151227
01:00:0A:00:00:00:00;1726013597;11/09/24;00:13:17;1.018;0.001;0.122;-0.00855211354792118;-0.009773843921720982;-0.0024434609804302454
01:00:0A:00:00:00:00;1726013598;11/09/24;00:13:18;1.014;0.0;0.118;-0.00855211354792118;-0.0024434609804302454;-0.0024434609804302454
01:00:0A:00:00:00:00;1726013599;11/09/24;00:13:19;1.011;0.0;0.117;-0.00855211354792118;-0.0036651913542300463;-0.0012217304902151227
01:00:0A:00:00:00:00;1726013600;11/09/24;00:13:20;1.006;0.0;0.117;-0.006108652334660292;-0.009773843921720982;0.0
01:00:0A:00:00:00:00;1726013601;11/09/24;00:13:21;1.007;0.001;0.114;-0.0073303827084600925;-0.014660765416920185;0.0024434609804302454
01:00:0A:00:00:00:00;1726013602;11/09/24;00:13:22;1.008;0.001;0.116;-0.0073303827084600925;-0.014660765416920185;0.004886921960860491
01:00:0A:00:00:00:00;1726013603;11/09/24;00:13:23;1.013;0.001;0.118;-0.004886921960860491;-0.01710422709584236;0.0
01:00:0A:00:00:00:00;1726013604;11/09/24;00:13:24;1.016;0.002;0.119;-0.004886921960860491;-0.013439035043120384;0.0
01:00:0A:00:00:00:00;1726013605;11/09/24;00:13:25;1.016;0.003;0.119;-0.006108652334660292;-0.006108652334660292;0.0
01:00:0A:00:00:00:00;1726013606;11/09/24;00:13:26;1.016;0.001;0.119;-0.0036651913542300463;-0.014660765416920185;0.0
01:00:0A:00:00:00:00;1726013607;11/09/24;00:13:27;1.016;0.001;0.119;-0.004886921960860491;-0.006108652334660292;0.0
01:00:0A:00:00:00:00;1726013608;11/09/24;00:13:28;1.016;0.002;0.117;-0.0073303827084600925;0.0;0.0012217304902151227
01:00:0A:00:00:00:00;1726013609;11/09/24;00:13:29;1.01;0.0;0.117;-0.0073303827084600925;-0.006108652334660292;0.0012217304902151227
01:00:0A:00:00:00:00;1726013610;11/09/24;00:13:30;1.006;0.003;0.113;-0.0073303827084600925;-0.013439035043120384;0.0
01:00:0A:00:00:00:00;1726013611;11/09/24;00:13:31;1.002;0.002;0.116;-0.00855211354792118;-0.018325956538319588;0.0012217304902151227
01:00:0A:00:00:00:00;1726013612;11/09/24;00:13:32;1.008;0.001;0.121;-0.00855211354792118;-0.018325956538319588;0.0
01:00:0A:00:00:00:00;1726013613;11/09/24;00:13:33;1.015;0.001;0.121;-0.009773843921720982;-0.015882495790719986;0.0012217304902151227
01:00:0A:00:00:00:00;1726013614;11/09/24;00:13:34;1.02;0.001;0.121;-0.010995574295520782;-0.0024434609804302454;0.0036651913542300463
01:00:0A:00:00:00:00;1726013615;11/09/24;00:13:35;1.02;0.001;0.118;-0.010995574295520782;-0.0024434609804302454;0.0012217304902151227
01:00:0A:00:00:00:00;1726013616;11/09/24;00:13:36;1.015;0.003;0.118;-0.00855211354792118;-0.010995574295520782;-0.0036651913542300463
01:00:0A:00:00:00:00;1726013617;11/09/24;00:13:37;1.012;0.001;0.117;-0.009773843921720982;-0.010995574295520782;-0.0024434609804302454
01:00:0A:00:00:00:00;1726013618;11/09/24;00:13:38;1.005;0.001;0.118;-0.00855211354792118;-0.009773843921720982;-0.0012217304902151227
01:00:0A:00:00:00:00;1726013619;11/09/24;00:13:39;1.006;0.001;0.12;-0.00855211354792118;-0.009773843921720982;-0.0012217304902151227
01:00:0A:00:00:00:00;1726013620;11/09/24;00:13:40;1.01;0.0;0.117;-0.009773843921720982;-0.00855211354792118;0.0036651913542300463
01:00:0A:00:00:00:00;1726013621;11/09/24;00:13:41;1.012;0.001;0.115;-0.00855211354792118;-0.015882495790719986;0.0
01:00:0A:00:00:00:00;1726013622;11/09/24;00:13:42;1.015;0.001;0.116;-0.0073303827084600925;-0.018325956538319588;-0.004886921960860491
01:00:0A:00:00:00:00;1726013623;11/09/24;00:13:43;1.016;0.0;0.118;-0.0073303827084600925;-0.018325956538319588;-0.0036651913542300463
01:00:0A:00:00:00:00;1726013624;11/09/24;00:13:44;1.016;0.0;0.12;-0.009773843921720982;-0.00855211354792118;0.0012217304902151227
01:00:0A:00:00:00:00;1726013625;11/09/24;00:13:45;1.012;0.002;0.118;-0.009773843921720982;-0.0036651913542300463;0.004886921960860491
01:00:0A:00:00:00:00;1726013626;11/09/24;00:13:46;1.01;0.003;0.117;-0.010995574295520782;-0.0036651913542300463;0.0036651913542300463
01:00:0A:00:00:00:00;1726013627;11/09/24;00:13:47;1.007;0.003;0.113;-0.009773843921720982;-0.010995574295520782;0.0012217304902151227
01:00:0A:00:00:00:00;1726013628;11/09/24;00:13:48;1.009;0.003;0.115;-0.0073303827084600925;-0.021991148591041565;-0.006108652334660292
01:00:0A:00:00:00:00;1726013629;11/09/24;00:13:49;1.012;0.002;0.117;-0.00855211354792118;-0.018325956538319588;-0.0036651913542300463
01:00:0A:00:00:00:00;1726013630;11/09/24;00:13:50;1.015;0.0;0.12;-0.010995574295520782;-0.010995574295520782;0.0024434609804302454
01:00:0A:00:00:00:00;1726013631;11/09/24;00:13:51;1.014;0.0;0.12;-0.009773843921720982;-0.004886921960860491;0.0012217304902151227
01:00:0A:00:00:00:00;1726013632;11/09/24;00:13:52;1.012;0.001;0.115;-0.010995574295520782;-0.004886921960860491;0.004886921960860491
01:00:0A:00:00:00:00;1726013633;11/09/24;00:13:53;1.012;0.001;0.115;-0.010995574295520782;-0.010995574295520782;0.0036651913542300463
01:00:0A:00:00:00:00;1726013634;11/09/24;00:13:54;1.012;0.001;0.115;-0.00855211354792118;-0.015882495790719986;0.0012217304902151227
01:00:0A:00:00:00:00;1726013635;11/09/24;00:13:55;1.013;0.002;0.118;-0.009773843921720982;-0.015882495790719986;0.0
01:00:0A:00:00:00:00;1726013636;11/09/24;00:13:56;1.015;0.0;0.12;-0.009773843921720982;-0.010995574295520782;0.0012217304902151227
01:00:0A:00:00:00:00;1726013637;11/09/24;00:13:57;1.013;0.001;0.117;-0.009773843921720982;-0.006108652334660292;0.0024434609804302454
01:00:0A:00:00:00:00;1726013638;11/09/24;00:13:58;1.011;0.001;0.118;-0.009773843921720982;-0.006108652334660292;0.0
01:00:0A:00:00:00:00;1726013639;11/09/24;00:13:59;1.009;0.0;0.115;-0.010995574295520782;-0.014660765416920185;0.004886921960860491
01:00:0A:00:00:00:00;1726013640;11/09/24;00:14:00;1.011;0.0;0.116;-0.00855211354792118;-0.018325956538319588;0.0012217304902151227
01:00:0A:00:00:00:00;1726013641;11/09/24;00:14:01;1.016;0.002;0.12;-0.009773843921720982;-0.014660765416920185;0.0024434609804302454
01:00:0A:00:00:00:00;1726013642;11/09/24;00:14:02;1.016;0.0;0.121;-0.009773843921720982;-0.012217304669320583;0.0024434609804302454
01:00:0A:00:00:00:00;1726013643;11/09/24;00:14:03;1.014;0.0;0.118;-0.0073303827084600925;-0.0036651913542300463;-0.0012217304902151227
01:00:0A:00:00:00:00;1726013644;11/09/24;00:14:04;1.011;0.001;0.117;-0.00855211354792118;-0.004886921960860491;0.0024434609804302454
01:00:0A:00:00:00:00;1726013645;11/09/24;00:14:05;1.007;0.001;0.117;-0.00855211354792118;-0.012217304669320583;0.0024434609804302454
01:00:0A:00:00:00:00;1726013646;11/09/24;00:14:06;1.009;0.0;0.115;-0.0073303827084600925;-0.015882495790719986;0.0024434609804302454
01:00:0A:00:00:00:00;1726013647;11/09/24;00:14:07;1.009;0.002;0.118;-0.0073303827084600925;-0.014660765416920185;0.0012217304902151227
01:00:0A:00:00:00:00;1726013648;11/09/24;00:14:08;1.014;0.001;0.119;-0.0073303827084600925;-0.013439035043120384;0.0024434609804302454
01:00:0A:00:00:00:00;1726013649;11/09/24;00:14:09;1.016;0.0;0.116;-0.006108652334660292;-0.010995574295520782;0.0
01:00:0A:00:00:00:00;1726013650;11/09/24;00:14:10;1.017;0.002;0.118;-0.006108652334660292;-0.0073303827084600925;-0.0024434609804302454
01:00:0A:00:00:00:00;1726013651;11/09/24;00:14:11;1.017;0.001;0.12;-0.0073303827084600925;-0.010995574295520782;0.0024434609804302454
01:00:0A:00:00:00:00;1726013652;11/09/24;00:14:12;1.015;0.0;0.117;-0.004886921960860491;-0.0036651913542300463;-0.0036651913542300463
01:00:0A:00:00:00:00;1726013653;11/09/24;00:14:13;1.01;0.001;0.118;-0.006108652334660292;-0.0036651913542300463;0.0
01:00:0A:00:00:00:00;1726013654;11/09/24;00:14:14;1.007;0.002;0.118;-0.0073303827084600925;-0.009773843921720982;0.0036651913542300463
01:00:0A:00:00:00:00;1726013655;11/09/24;00:14:15;1.007;0.001;0.113;-0.006108652334660292;-0.013439035043120384;0.0
01:00:0A:00:00:00:00;1726013656;11/09/24;00:14:16;1.008;0.002;0.117;-0.006108652334660292;-0.01710422709584236;0.0012217304902151227
01:00:0A:00:00:00:00;1726013657;11/09/24;00:14:17;1.015;0.002;0.121;-0.0073303827084600925;-0.018325956538319588;0.0024434609804302454
01:00:0A:00:00:00:00;1726013658;11/09/24;00:14:18;1.016;0.0;0.118;-0.006108652334660292;-0.012217304669320583;0.0
01:00:0A:00:00:00:00;1726013659;11/09/24;00:14:19;1.016;0.004;0.12;-0.0073303827084600925;-0.0036651913542300463;0.0
01:00:0A:00:00:00:00;1726013660;11/09/24;00:14:20;1.014;0.001;0.118;-0.0073303827084600925;-0.010995574295520782;0.0024434609804302454
01:00:0A:00:00:00:00;1726013661;11/09/24;00:14:21;1.013;0.002;0.116;-0.0073303827084600925;-0.00855211354792118;-0.0024434609804302454
01:00:0A:00:00:00:00;1726013662;11/09/24;00:14:22;1.011;0.003;0.117;-0.0073303827084600925;-0.006108652334660292;-0.004886921960860491
01:00:0A:00:00:00:00;1726013663;11/09/24;00:14:23;1.009;0.0;0.121;-0.00855211354792118;-0.013439035043120384;0.0024434609804302454
01:00:0A:00:00:00:00;1726013664;11/09/24;00:14:24;1.009;0.0;0.118;-0.00855211354792118;-0.009773843921720982;0.0012217304902151227
01:00:0A:00:00:00:00;1726013665;11/09/24;00:14:25;1.009;0.002;0.118;-0.009773843921720982;-0.0073303827084600925;0.0036651913542300463
01:00:0A:00:00:00:00;1726013666;11/09/24;00:14:26;1.012;0.004;0.119;-0.009773843921720982;-0.014660765416920185;0.0036651913542300463
01:00:0A:00:00:00:00;1726013667;11/09/24;00:14:27;1.014;0.001;0.115;-0.00855211354792118;-0.013439035043120384;-0.0024434609804302454
01:00:0A:00:00:00:00;1726013668;11/09/24;00:14:28;1.016;0.001;0.12;-0.00855211354792118;-0.0073303827084600925;-0.0024434609804302454
01:00:0A:00:00:00:00;1726013669;11/09/24;00:14:29;1.014;0.001;0.119;-0.009773843921720982;-0.014660765416920185;0.0012217304902151227
01:00:0A:00:00:00:00;1726013670;11/09/24;00:14:30;1.013;0.0;0.117;-0.009773843921720982;-0.010995574295520782;0.004886921960860491
01:00:0A:00:00:00:00;1726013671;11/09/24;00:14:31;1.011;0.002;0.119;-0.010995574295520782;-0.004886921960860491;0.004886921960860491
01:00:0A:00:00:00:00;1726013672;11/09/24;00:14:32;1.011;0.003;0.119;-0.009773843921720982;-0.015882495790719986;0.006108652334660292
01:00:0A:00:00:00:00;1726013673;11/09/24;00:14:33;1.013;0.002;0.116;-0.00855211354792118;-0.012217304669320583;-0.0012217304902151227
01:00:0A:00:00:00:00;1726013674;11/09/24;00:14:34;1.013;0.001;0.119;-0.0073303827084600925;-0.006108652334660292;-0.0024434609804302454
01:00:0A:00:00:00:00;1726013675;11/09/24;00:14:35;1.011;0.0;0.118;-0.00855211354792118;-0.014660765416920185;0.0024434609804302454
01:00:0A:00:00:00:00;1726013676;11/09/24;00:14:36;1.011;0.0;0.114;-0.0073303827084600925;-0.012217304669320583;0.0012217304902151227
01:00:0A:00:00:00:00;1726013677;11/09/24;00:14:37;1.014;0.001;0.118;-0.0073303827084600925;-0.00855211354792118;0.0024434609804302454
01:00:0A:00:00:00:00;1726013678;11/09/24;00:14:38;1.014;0.002;0.12;-0.00855211354792118;-0.013439035043120384;0.006108652334660292
01:00:0A:00:00:00:00;1726013679;11/09/24;00:14:39;1.014;0.002;0.114;-0.006108652334660292;-0.013439035043120384;-0.0012217304902151227
01:00:0A:00:00:00:00;1726013680;11/09/24;00:14:40;1.01;0.002;0.118;-0.006108652334660292;-0.006108652334660292;-0.0024434609804302454
01:00:0A:00:00:00:00;1726013681;11/09/24;00:14:41;1.009;0.001;0.118;-0.0073303827084600925;-0.01710422709584236;0.0024434609804302454
01:00:0A:00:00:00:00;1726013682;11/09/24;00:14:42;1.01;0.0;0.115;-0.0073303827084600925;-0.015882495790719986;0.0036651913542300463
01:00:0A:00:00:00:00;1726013683;11/09/24;00:14:43;1.013;0.002;0.118;-0.0073303827084600925;-0.0073303827084600925;0.0036651913542300463
01:00:0A:00:00:00:00;1726013684;11/09/24;00:14:44;1.015;0.003;0.12;-0.0073303827084600925;-0.014660765416920185;0.0024434609804302454
01:00:0A:00:00:00:00;1726013685;11/09/24;00:14:45;1.015;0.002;0.114;-0.0073303827084600925;-0.009773843921720982;0.0
01:00:0A:00:00:00:00;1726013686;11/09/24;00:14:46;1.011;0.002;0.117;-0.0073303827084600925;-0.006108652334660292;-0.0024434609804302454
01:00:0A:00:00:00:00;1726013687;11/09/24;00:14:47;1.009;0.0;0.118;-0.0073303827084600925;-0.01710422709584236;0.0
01:00:0A:00:00:00:00;1726013688;11/09/24;00:14:48;1.01;0.001;0.114;-0.0073303827084600925;-0.01710422709584236;0.0024434609804302454
01:00:0A:00:00:00:00;1726013689;11/09/24;00:14:49;1.015;0.002;0.118;-0.00855211354792118;-0.00855211354792118;0.0012217304902151227
01:00:0A:00:00:00:00;1726013690;11/09/24;00:14:50;1.016;0.001;0.12;-0.00855211354792118;-0.013439035043120384;0.0036651913542300463
01:00:0A:00:00:00:00;1726013691;11/09/24;00:14:51;1.016;0.002;0.115;-0.0073303827084600925;-0.010995574295520782;0.0012217304902151227
01:00:0A:00:00:00:00;1726013692;11/09/24;00:14:52;1.014;0.001;0.118;-0.00855211354792118;-0.0012217304902151227;-0.0012217304902151227
01:00:0A:00:00:00:00;1726013693;11/09/24;00:14:53;1.011;0.001;0.118;-0.00855211354792118;-0.013439035043120384;0.0012217304902151227
01:00:0A:00:00:00:00;1726013694;11/09/24;00:14:54;1.009;0.001;0.114;-0.00855211354792118;-0.014660765416920185;0.0012217304902151227
01:00:0A:00:00:00:00;1726013695;11/09/24;00:14:55;1.011;0.001;0.117;-0.009773843921720982;-0.00855211354792118;0.0024434609804302454
01:00:0A:00:00:00:00;1726013696;11/09/24;00:14:56;1.013;0.002;0.121;-0.00855211354792118;-0.015882495790719986;0.0012217304902151227
01:00:0A:00:00:00:00;1726013697;11/09/24;00:14:57;1.012;0.001;0.114;-0.009773843921720982;-0.012217304669320583;0.0024434609804302454
01:00:0A:00:00:00:00;1726013698;11/09/24;00:14:58;1.012;0.001;0.117;-0.010995574295520782;-0.006108652334660292;0.0012217304902151227
01:00:0A:00:00:00:00;1726013699;11/09/24;00:14:59;1.012;0.001;0.119;-0.010995574295520782;-0.014660765416920185;0.0
01:00:0A:00:00:00:00;1726013700;11/09/24;00:15:00;1.014;0.001;0.114;-0.010995574295520782;-0.015882495790719986;0.0024434609804302454
01:00:0A:00:00:00:00;1726013701;11/09/24;00:15:01;1.015;0.001;0.118;-0.012217304669320583;-0.006108652334660292;0.0012217304902151227
01:00:0A:00:00:00:00;1726013702;11/09/24;00:15:02;1.012;0.001;0.119;-0.012217304669320583;-0.012217304669320583;0.0012217304902151227
01:00:0A:00:00:00:00;1726013703;11/09/24;00:15:03;1.012;0.001;0.114;-0.010995574295520782;-0.014660765416920185;0.0
01:00:0A:00:00:00:00;1726013704;11/09/24;00:15:04;1.01;0.001;0.116;-0.013439035043120384;-0.0073303827084600925;0.0024434609804302454
01:00:0A:00:00:00:00;1726013705;11/09/24;00:15:05;1.01;0.001;0.119;-0.012217304669320583;-0.01710422709584236;0.0024434609804302454
01:00:0A:00:00:00:00;1726013706;11/09/24;00:15:06;1.012;0.001;0.115;-0.012217304669320583;-0.015882495790719986;0.0012217304902151227
01:00:0A:00:00:00:00;1726013707;11/09/24;00:15:07;1.015;0.001;0.116;-0.013439035043120384;-0.00855211354792118;0.0024434609804302454
01:00:0A:00:00:00:00;1726013708;11/09/24;00:15:08;1.015;0.002;0.121;-0.010995574295520782;-0.013439035043120384;0.0012217304902151227
01:00:0A:00:00:00:00;1726013709;11/09/24;00:15:09;1.013;0.001;0.115;-0.010995574295520782;-0.013439035043120384;0.0
01:00:0A:00:00:00:00;1726013710;11/09/24;00:15:10;1.013;0.003;0.116;-0.012217304669320583;-0.0073303827084600925;0.0012217304902151227
01:00:0A:00:00:00:00;1726013711;11/09/24;00:15:11;1.011;0.0;0.118;-0.009773843921720982;-0.014660765416920185;-0.0012217304902151227
01:00:0A:00:00:00:00;1726013712;11/09/24;00:15:12;1.012;0.0;0.114;-0.009773843921720982;-0.015882495790719986;0.0
01:00:0A:00:00:00:00;1726013713;11/09/24;00:15:13;1.011;0.001;0.116;-0.012217304669320583;-0.00855211354792118;0.0024434609804302454
01:00:0A:00:00:00:00;1726013714;11/09/24;00:15:14;1.011;0.001;0.117;-0.009773843921720982;-0.01710422709584236;0.0024434609804302454
01:00:0A:00:00:00:00;1726013715;11/09/24;00:15:15;1.013;0.003;0.115;-0.009773843921720982;-0.01710422709584236;0.0012217304902151227
01:00:0A:00:00:00:00;1726013716;11/09/24;00:15:16;1.014;0.002;0.117;-0.010995574295520782;-0.00855211354792118;0.0
01:00:0A:00:00:00:00;1726013717;11/09/24;00:15:17;1.015;0.0;0.12;-0.00855211354792118;-0.013439035043120384;0.0
01:00:0A:00:00:00:00;1726013718;11/09/24;00:15:18;1.014;0.002;0.115;-0.009773843921720982;-0.012217304669320583;0.0
01:00:0A:00:00:00:00;1726013719;11/09/24;00:15:19;1.012;0.0;0.115;-0.012217304669320583;-0.0073303827084600925;0.004886921960860491
01:00:0A:00:00:00:00;1726013720;11/09/24;00:15:20;1.009;0.002;0.118;-0.009773843921720982;-0.013439035043120384;0.0024434609804302454
01:00:0A:00:00:00:00;1726013721;11/09/24;00:15:21;1.01;0.003;0.114;-0.00855211354792118;-0.01710422709584236;0.0012217304902151227
01:00:0A:00:00:00:00;1726013722;11/09/24;00:15:22;1.011;0.002;0.117;-0.010995574295520782;-0.00855211354792118;0.0024434609804302454
01:00:0A:00:00:00:00;1726013723;11/09/24;00:15:23;1.012;0.0;0.119;-0.00855211354792118;-0.014660765416920185;-0.0012217304902151227
01:00:0A:00:00:00:00;1726013724;11/09/24;00:15:24;1.014;0.0;0.115;-0.009773843921720982;-0.01710422709584236;0.0012217304902151227
01:00:0A:00:00:00:00;1726013725;11/09/24;00:15:25;1.014;0.0;0.117;-0.012217304669320583;-0.00855211354792118;0.006108652334660292
01:00:0A:00:00:00:00;1726013726;11/09/24;00:15:26;1.014;0.001;0.118;-0.009773843921720982;-0.014660765416920185;0.0036651913542300463
01:00:0A:00:00:00:00;1726013727;11/09/24;00:15:27;1.013;0.004;0.117;-0.00855211354792118;-0.014660765416920185;0.0
01:00:0A:00:00:00:00;1726013728;11/09/24;00:15:28;1.012;0.001;0.116;-0.010995574295520782;-0.006108652334660292;0.0
01:00:0A:00:00:00:00;1726013729;11/09/24;00:15:29;1.012;0.0;0.118;-0.009773843921720982;-0.010995574295520782;0.0
01:00:0A:00:00:00:00;1726013730;11/09/24;00:15:30;1.013;0.0;0.114;-0.00855211354792118;-0.015882495790719986;0.0
01:00:0A:00:00:00:00;1726013731;11/09/24;00:15:31;1.013;0.0;0.115;-0.010995574295520782;-0.013439035043120384;0.006108652334660292
01:00:0A:00:00:00:00;1726013732;11/09/24;00:15:32;1.015;0.001;0.119;-0.009773843921720982;-0.014660765416920185;0.004886921960860491
01:00:0A:00:00:00:00;1726013733;11/09/24;00:15:33;1.014;0.003;0.118;-0.0073303827084600925;-0.013439035043120384;-0.0012217304902151227
01:00:0A:00:00:00:00;1726013734;11/09/24;00:15:34;1.013;0.001;0.117;-0.009773843921720982;-0.0036651913542300463;0.0012217304902151227
01:00:0A:00:00:00:00;1726013735;11/09/24;00:15:35;1.012;0.0;0.118;-0.00855211354792118;-0.0073303827084600925;-0.0012217304902151227
01:00:0A:00:00:00:00;1726013736;11/09/24;00:15:36;1.012;0.0;0.115;-0.0073303827084600925;-0.014660765416920185;0.0012217304902151227
