Source;Epoch timestamp (UTC);Date;Time (UTC);Accel X (G);Accel Y (G);Accel Z (G);Gyro X (rad/s);Gyro Y (rad/s);Gyro Z (rad/s)
01:00:0A:00:00:00:00;1726099216;12/09/24;00:00:16;1.011;0.022;0.115;-0.009773843921720982;-0.012217304669320583;0.0012217304902151227
01:00:0A:00:00:00:00;1726099217;12/09/24;00:00:17;1.011;0.022;0.116;-0.009773843921720982;-0.012217304669320583;0.0012217304902151227
01:00:0A:00:00:00:00;1726099218;12/09/24;00:00:18;1.012;0.023;0.116;-0.009773843921720982;-0.012217304669320583;0.0012217304902151227
01:00:0A:00:00:00:00;1726099219;12/09/24;00:00:19;1.012;0.022;0.116;-0.009773843921720982;-0.012217304669320583;0.0012217304902151227
01:00:0A:00:00:00:00;1726099220;12/09/24;00:00:20;1.012;0.023;0.116;-0.009773843921720982;-0.012217304669320583;0.0012217304902151227
01:00:0A:00:00:00:00;1726099221;12/09/24;00:00:21;1.011;0.023;0.116;-0.009773843921720982;-0.012217304669320583;0.0012217304902151227
01:00:0A:00:00:00:00;1726099222;12/09/24;00:00:22;1.012;0.022;0.117;-0.009773843921720982;-0.012217304669320583;0.0012217304902151227
01:00:0A:00:00:00:00;1726099223;12/09/24;00:00:23;1.012;0.022;0.116;-0.009773843921720982;-0.012217304669320583;0.0012217304902151227
01:00:0A:00:00:00:00;1726099224;12/09/24;00:00:24;1.011;0.023;0.116;-0.009773843921720982;-0.012217304669320583;0.0012217304902151227
01:00:0A:00:00:00:00;1726099225;12/09/24;00:00:25;1.013;0.024;0.115;-0.010995574295520782;-0.012217304669320583;0.0012217304902151227
01:00:0A:00:00:00:00;1726099226;12/09/24;00:00:26;1.011;0.023;0.116;-0.010995574295520782;-0.012217304669320583;0.0012217304902151227
01:00:0A:00:00:00:00;1726099227;12/09/24;00:00:27;1.011;0.022;0.116;-0.010995574295520782;-0.012217304669320583;0.0012217304902151227
01:00:0A:00:00:00:00;1726099228;12/09/24;00:00:28;1.01;0.021;0.116;-0.010995574295520782;-0.012217304669320583;0.0012217304902151227
01:00:0A:00:00:00:00;1726099229;12/09/24;00:00:29;1.011;0.023;0.115;-0.010995574295520782;-0.012217304669320583;0.0012217304902151227
01:00:0A:00:00:00:00;1726099230;12/09/24;00:00:30;1.011;0.023;0.115;-0.010995574295520782;-0.012217304669320583;0.0012217304902151227
01:00:0A:00:00:00:00;1726099231;12/09/24;00:00:31;1.012;0.022;0.116;-0.010995574295520782;-0.012217304669320583;0.0012217304902151227
01:00:0A:00:00:00:00;1726099232;12/09/24;00:00:32;1.012;0.022;0.115;-0.010995574295520782;-0.012217304669320583;0.0012217304902151227
01:00:0A:00:00:00:00;1726099233;12/09/24;00:00:33;1.011;0.022;0.115;-0.010995574295520782;-0.012217304669320583;0.0012217304902151227
01:00:0A:00:00:00:00;1726099234;12/09/24;00:00:34;1.012;0.022;0.116;-0.010995574295520782;-0.012217304669320583;0.0012217304902151227
01:00:0A:00:00:00:00;1726099235;12/09/24;00:00:35;1.011;0.023;0.117;-0.010995574295520782;-0.012217304669320583;0.0012217304902151227
01:00:0A:00:00:00:00;1726099236;12/09/24;00:00:36;1.011;0.023;0.115;-0.010995574295520782;-0.012217304669320583;0.0012217304902151227
01:00:0A:00:00:00:00;1726099237;12/09/24;00:00:37;1.011;0.022;0.115;-0.010995574295520782;-0.012217304669320583;0.0012217304902151227
01:00:0A:00:00:00:00;1726099238;12/09/24;00:00:38;1.011;0.023;0.116;-0.010995574295520782;-0.012217304669320583;0.0012217304902151227
01:00:0A:00:00:00:00;1726099239;12/09/24;00:00:39;1.011;0.023;0.115;-0.010995574295520782;-0.012217304669320583;0.0012217304902151227
01:00:0A:00:00:00:00;1726099240;12/09/24;00:00:40;1.012;0.022;0.116;-0.010995574295520782;-0.012217304669320583;0.0012217304902151227
01:00:0A:00:00:00:00;1726099241;12/09/24;00:00:41;1.012;0.022;0.117;-0.010995574295520782;-0.012217304669320583;0.0012217304902151227
01:00:0A:00:00:00:00;1726099242;12/09/24;00:00:42;1.012;0.023;0.116;-0.010995574295520782;-0.012217304669320583;0.0012217304902151227
01:00:0A:00:00:00:00;1726099243;12/09/24;00:00:43;1.012;0.022;0.116;-0.010995574295520782;-0.012217304669320583;0.0012217304902151227
01:00:0A:00:00:00:00;1726099244;12/09/24;00:00:44;1.013;0.023;0.116;-0.010995574295520782;-0.012217304669320583;0.0012217304902151227
01:00:0A:00:00:00:00;1726099245;12/09/24;00:00:45;1.012;0.021;0.116;-0.010995574295520782;-0.012217304669320583;0.0012217304902151227
01:00:0A:00:00:00:00;1726099246;12/09/24;00:00:46;1.012;0.023;0.117;-0.010995574295520782;-0.012217304669320583;0.0012217304902151227
01:00:0A:00:00:00:00;1726099247;12/09/24;00:00:47;1.011;0.022;0.116;-0.010995574295520782;-0.012217304669320583;0.0012217304902151227
01:00:0A:00:00:00:00;1726099248;12/09/24;00:00:48;1.012;0.023;0.116;-0.010995574295520782;-0.012217304669320583;0.0012217304902151227
01:00:0A:00:00:00:00;1726099249;12/09/24;00:00:49;1.012;0.023;0.116;-0.010995574295520782;-0.012217304669320583;0.0012217304902151227
01:00:0A:00:00:00:00;1726099250;12/09/24;00:00:50;1.012;0.023;0.115;-0.010995574295520782;-0.012217304669320583;0.0012217304902151227
01:00:0A:00:00:00:00;1726099251;12/09/24;00:00:51;1.011;0.023;0.117;-0.010995574295520782;-0.012217304669320583;0.0012217304902151227
01:00:0A:00:00:00:00;1726099252;12/09/24;00:00:52;1.011;0.023;0.116;-0.012217304669320583;-0.012217304669320583;0.0012217304902151227
01:00:0A:00:00:00:00;1726099253;12/09/24;00:00:53;1.013;0.022;0.114;-0.010995574295520782;-0.012217304669320583;0.0012217304902151227
01:00:0A:00:00:00:00;1726099254;12/09/24;00:00:54;1.012;0.023;0.117;-0.012217304669320583;-0.012217304669320583;0.0012217304902151227
01:00:0A:00:00:00:00;1726099255;12/09/24;00:00:55;1.012;0.023;0.116;-0.012217304669320583;-0.012217304669320583;0.0012217304902151227
01:00:0A:00:00:00:00;1726099256;12/09/24;00:00:56;1.011;0.022;0.116;-0.012217304669320583;-0.012217304669320583;0.0012217304902151227
01:00:0A:00:00:00:00;1726099257;12/09/24;00:00:57;1.011;0.022;0.115;-0.012217304669320583;-0.012217304669320583;0.0012217304902151227
01:00:0A:00:00:00:00;1726099258;12/09/24;00:00:58;1.012;0.022;0.115;-0.012217304669320583;-0.012217304669320583;0.0012217304902151227
01:00:0A:00:00:00:00;1726099259;12/09/24;00:00:59;1.011;0.023;0.116;-0.012217304669320583;-0.012217304669320583;0.0012217304902151227
01:00:0A:00:00:00:00;1726099260;12/09/24;00:01:00;1.011;0.022;0.117;-0.012217304669320583;-0.012217304669320583;0.0012217304902151227
01:00:0A:00:00:00:00;1726099261;12/09/24;00:01:01;1.013;0.022;0.116;-0.012217304669320583;-0.012217304669320583;0.0012217304902151227
01:00:0A:00:00:00:00;1726099262;12/09/24;00:01:02;1.012;0.024;0.115;-0.012217304669320583;-0.012217304669320583;0.0012217304902151227
01:00:0A:00:00:00:00;1726099263;12/09/24;00:01:03;1.011;0.023;0.117;-0.012217304669320583;-0.012217304669320583;0.0012217304902151227
01:00:0A:00:00:00:00;1726099264;12/09/24;00:01:04;1.012;0.023;0.116;-0.012217304669320583;-0.012217304669320583;0.0012217304902151227
01:00:0A:00:00:00:00;1726099265;12/09/24;00:01:05;1.012;0.021;0.115;-0.012217304669320583;-0.010995574295520782;0.0012217304902151227
01:00:0A:00:00:00:00;1726099266;12/09/24;00:01:06;1.013;0.022;0.116;-0.012217304669320583;-0.012217304669320583;0.0012217304902151227
01:00:0A:00:00:00:00;1726099267;12/09/24;00:01:07;1.011;0.023;0.116;-0.012217304669320583;-0.012217304669320583;0.0012217304902151227
01:00:0A:00:00:00:00;1726099268;12/09/24;00:01:08;1.011;0.021;0.116;-0.012217304669320583;-0.012217304669320583;0.0012217304902151227
01:00:0A:00:00:00:00;1726099269;12/09/24;00:01:09;1.012;0.022;0.117;-0.012217304669320583;-0.012217304669320583;0.0012217304902151227
01:00:0A:00:00:00:00;1726099270;12/09/24;00:01:10;1.012;0.023;0.115;-0.012217304669320583;-0.012217304669320583;0.0012217304902151227
01:00:0A:00:00:00:00;1726099271;12/09/24;00:01:11;1.011;0.022;0.116;-0.012217304669320583;-0.012217304669320583;0.0012217304902151227
01:00:0A:00:00:00:00;1726099272;12/09/24;00:01:12;1.012;0.022;0.116;-0.012217304669320583;-0.012217304669320583;0.0012217304902151227
01:00:0A:00:00:00:00;1726099273;12/09/24;00:01:13;1.011;0.023;0.115;-0.012217304669320583;-0.012217304669320583;0.0012217304902151227
01:00:0A:00:00:00:00;1726099274;12/09/24;00:01:14;1.011;0.024;0.117;-0.012217304669320583;-0.012217304669320583;0.0012217304902151227
01:00:0A:00:00:00:00;1726099275;12/09/24;00:01:15;1.012;0.022;0.116;-0.012217304669320583;-0.012217304669320583;0.0012217304902151227
01:00:0A:00:00:00:00;1726099276;12/09/24;00:01:16;1.012;0.021;0.116;-0.013439035043120384;-0.012217304669320583;0.0012217304902151227
01:00:0A:00:00:00:00;1726099277;12/09/24;00:01:17;1.012;0.021;0.116;-0.012217304669320583;-0.012217304669320583;0.0012217304902151227
01:00:0A:00:00:00:00;1726099278;12/09/24;00:01:18;1.012;0.022;0.116;-0.012217304669320583;-0.012217304669320583;0.0012217304902151227
01:00:0A:00:00:00:00;1726099279;12/09/24;00:01:19;1.012;0.023;0.116;-0.013439035043120384;-0.012217304669320583;0.0012217304902151227
01:00:0A:00:00:00:00;1726099280;12/09/24;00:01:20;1.012;0.023;0.116;-0.013439035043120384;-0.012217304669320583;0.0012217304902151227
01:00:0A:00:00:00:00;1726099281;12/09/24;00:01:21;1.012;0.022;0.117;-0.013439035043120384;-0.012217304669320583;0.0012217304902151227
01:00:0A:00:00:00:00;1726099282;12/09/24;00:01:22;1.011;0.022;0.116;-0.013439035043120384;-0.012217304669320583;0.0012217304902151227
01:00:0A:00:00:00:00;1726099283;12/09/24;00:01:23;1.012;0.021;0.116;-0.013439035043120384;-0.012217304669320583;0.0012217304902151227
01:00:0A:00:00:00:00;1726099284;12/09/24;00:01:24;1.012;0.024;0.116;-0.013439035043120384;-0.012217304669320583;0.0012217304902151227
01:00:0A:00:00:00:00;1726099285;12/09/24;00:01:25;1.013;0.022;0.116;-0.012217304669320583;-0.012217304669320583;0.0012217304902151227
01:00:0A:00:00:00:00;1726099286;12/09/24;00:01:26;1.011;0.022;0.115;-0.013439035043120384;-0.012217304669320583;0.0012217304902151227
01:00:0A:00:00:00:00;1726099287;12/09/24;00:01:27;1.012;0.022;0.116;-0.013439035043120384;-0.012217304669320583;0.0012217304902151227
01:00:0A:00:00:00:00;1726099288;12/09/24;00:01:28;1.012;0.021;0.116;-0.012217304669320583;-0.012217304669320583;0.0012217304902151227
01:00:0A:00:00:00:00;1726099289;12/09/24;00:01:29;1.012;0.022;0.117;-0.013439035043120384;-0.012217304669320583;0.0012217304902151227
01:00:0A:00:00:00:00;1726099290;12/09/24;00:01:30;1.011;0.022;0.117;-0.012217304669320583;-0.012217304669320583;0.0012217304902151227
01:00:0A:00:00:00:00;1726099291;12/09/24;00:01:31;1.011;0.022;0.116;-0.012217304669320583;-0.012217304669320583;0.0012217304902151227
01:00:0A:00:00:00:00;1726099292;12/09/24;00:01:32;1.012;0.022;0.117;-0.012217304669320583;-0.012217304669320583;0.0012217304902151227
01:00:0A:00:00:00:00;1726099293;12/09/24;00:01:33;1.012;0.022;0.116;-0.012217304669320583;-0.012217304669320583;0.0012217304902151227
01:00:0A:00:00:00:00;1726099294;12/09/24;00:01:34;1.012;0.022;0.116;-0.012217304669320583;-0.012217304669320583;0.0012217304902151227
01:00:0A:00:00:00:00;1726099295;12/09/24;00:01:35;1.01;0.023;0.116;-0.012217304669320583;-0.012217304669320583;0.0012217304902151227
01:00:0A:00:00:00:00;1726099296;12/09/24;00:01:36;1.011;0.022;0.116;-0.012217304669320583;-0.012217304669320583;0.0012217304902151227
01:00:0A:00:00:00:00;1726099297;12/09/24;00:01:37;1.01;0.022;0.115;-0.012217304669320583;-0.012217304669320583;0.0012217304902151227
01:00:0A:00:00:00:00;1726099298;12/09/24;00:01:38;1.011;0.023;0.115;-0.012217304669320583;-0.012217304669320583;0.0012217304902151227
01:00:0A:00:00:00:00;1726099299;12/09/24;00:01:39;1.012;0.022;0.116;-0.012217304669320583;-0.012217304669320583;0.0012217304902151227
01:00:0A:00:00:00:00;1726099300;12/09/24;00:01:40;1.012;0.022;0.115;-0.012217304669320583;-0.012217304669320583;0.0012217304902151227
01:00:0A:00:00:00:00;1726099301;12/09/24;00:01:41;1.012;0.022;0.116;-0.012217304669320583;-0.012217304669320583;0.0012217304902151227
01:00:0A:00:00:00:00;1726099302;12/09/24;00:01:42;1.012;0.022;0.117;-0.012217304669320583;-0.012217304669320583;0.0012217304902151227
01:00:0A:00:00:00:00;1726099303;12/09/24;00:01:43;1.012;0.022;0.116;-0.012217304669320583;-0.012217304669320583;0.0012217304902151227
01:00:0A:00:00:00:00;1726099304;12/09/24;00:01:44;1.012;0.022;0.116;-0.012217304669320583;-0.012217304669320583;0.0012217304902151227
01:00:0A:00:00:00:00;1726099305;12/09/24;00:01:45;1.012;0.023;0.115;-0.012217304669320583;-0.012217304669320583;0.0012217304902151227
01:00:0A:00:00:00:00;1726099306;12/09/24;00:01:46;1.012;0.023;0.115;-0.012217304669320583;-0.012217304669320583;0.0012217304902151227
01:00:0A:00:00:00:00;1726099307;12/09/24;00:01:47;1.011;0.022;0.116;-0.012217304669320583;-0.012217304669320583;0.0012217304902151227
01:00:0A:00:00:00:00;1726099308;12/09/24;00:01:48;1.011;0.023;0.116;-0.012217304669320583;-0.012217304669320583;0.0012217304902151227
01:00:0A:00:00:00:00;1726099309;12/09/24;00:01:49;1.013;0.023;0.116;-0.012217304669320583;-0.012217304669320583;0.0012217304902151227
01:00:0A:00:00:00:00;1726099310;12/09/24;00:01:50;1.013;0.022;0.116;-0.012217304669320583;-0.012217304669320583;0.0012217304902151227
01:00:0A:00:00:00:00;1726099311;12/09/24;00:01:51;1.011;0.022;0.116;-0.012217304669320583;-0.012217304669320583;0.0012217304902151227
01:00:0A:00:00:00:00;1726099312;12/09/24;00:01:52;1.012;0.022;0.116;-0.012217304669320583;-0.012217304669320583;0.0012217304902151227
01:00:0A:00:00:00:00;1726099313;12/09/24;00:01:53;1.011;0.023;0.117;-0.010995574295520782;-0.012217304669320583;0.0012217304902151227
01:00:0A:00:00:00:00;1726099314;12/09/24;00:01:54;1.012;0.023;0.116;-0.010995574295520782;-0.012217304669320583;0.0012217304902151227
01:00:0A:00:00:00:00;1726099315;12/09/24;00:01:55;1.011;0.023;0.116;-0.010995574295520782;-0.012217304669320583;0.0012217304902151227
01:00:0A:00:00:00:00;1726099316;12/09/24;00:01:56;1.012;0.023;0.116;-0.010995574295520782;-0.012217304669320583;0.0012217304902151227
01:00:0A:00:00:00:00;1726099317;12/09/24;00:01:57;1.012;0.022;0.116;-0.010995574295520782;-0.012217304669320583;0.0012217304902151227
01:00:0A:00:00:00:00;1726099318;12/09/24;00:01:58;1.012;0.022;0.116;-0.010995574295520782;-0.012217304669320583;0.0012217304902151227
01:00:0A:00:00:00:00;1726099319;12/09/24;00:01:59;1.012;0.023;0.116;-0.010995574295520782;-0.012217304669320583;0.0012217304902151227
01:00:0A:00:00:00:00;1726099320;12/09/24;00:02:00;1.012;0.022;0.116;-0.010995574295520782;-0.012217304669320583;0.0012217304902151227
01:00:0A:00:00:00:00;1726099321;12/09/24;00:02:01;1.011;0.022;0.116;-0.010995574295520782;-0.012217304669320583;0.0012217304902151227
01:00:0A:00:00:00:00;1726099322;12/09/24;00:02:02;1.013;0.022;0.117;-0.010995574295520782;-0.012217304669320583;0.0012217304902151227
01:00:0A:00:00:00:00;1726099323;12/09/24;00:02:03;1.013;0.022;0.117;-0.010995574295520782;-0.012217304669320583;0.0012217304902151227
01:00:0A:00:00:00:00;1726099324;12/09/24;00:02:04;1.012;0.022;0.116;-0.010995574295520782;-0.012217304669320583;0.0012217304902151227
01:00:0A:00:00:00:00;1726099325;12/09/24;00:02:05;1.012;0.022;0.117;-0.009773843921720982;-0.012217304669320583;0.0012217304902151227
01:00:0A:00:00:00:00;1726099326;12/09/24;00:02:06;1.012;0.023;0.116;-0.010995574295520782;-0.012217304669320583;0.0012217304902151227
01:00:0A:00:00:00:00;1726099327;12/09/24;00:02:07;1.012;0.022;0.117;-0.009773843921720982;-0.012217304669320583;0.0012217304902151227
01:00:0A:00:00:00:00;1726099328;12/09/24;00:02:08;1.012;0.023;0.116;-0.009773843921720982;-0.012217304669320583;0.0012217304902151227
01:00:0A:00:00:00:00;1726099329;12/09/24;00:02:09;1.012;0.022;0.116;-0.009773843921720982;-0.012217304669320583;0.0012217304902151227
01:00:0A:00:00:00:00;1726099330;12/09/24;00:02:10;1.012;0.023;0.115;-0.009773843921720982;-0.012217304669320583;0.0012217304902151227
01:00:0A:00:00:00:00;1726099331;12/09/24;00:02:11;1.012;0.022;0.118;-0.009773843921720982;-0.012217304669320583;0.0012217304902151227
01:00:0A:00:00:00:00;1726099332;12/09/24;00:02:12;1.011;0.023;0.116;-0.009773843921720982;-0.012217304669320583;0.0012217304902151227
01:00:0A:00:00:00:00;1726099333;12/09/24;00:02:13;1.011;0.023;0.116;-0.009773843921720982;-0.012217304669320583;0.0012217304902151227
01:00:0A:00:00:00:00;1726099334;12/09/24;00:02:14;1.011;0.023;0.116;-0.009773843921720982;-0.012217304669320583;0.0012217304902151227
01:00:0A:00:00:00:00;1726099335;12/09/24;00:02:15;1.012;0.022;0.117;-0.009773843921720982;-0.012217304669320583;0.0012217304902151227
01:00:0A:00:00:00:00;1726099336;12/09/24;00:02:16;1.011;0.021;0.117;-0.009773843921720982;-0.012217304669320583;0.0012217304902151227
01:00:0A:00:00:00:00;1726099337;12/09/24;00:02:17;1.012;0.022;0.116;-0.009773843921720982;-0.012217304669320583;0.0012217304902151227
01:00:0A:00:00:00:00;1726099338;12/09/24;00:02:18;1.012;0.022;0.116;-0.009773843921720982;-0.012217304669320583;0.0012217304902151227
01:00:0A:00:00:00:00;1726099339;12/09/24;00:02:19;1.011;0.023;0.116;-0.009773843921720982;-0.012217304669320583;0.0012217304902151227
01:00:0A:00:00:00:00;1726099340;12/09/24;00:02:20;1.013;0.023;0.116;-0.009773843921720982;-0.012217304669320583;0.0012217304902151227
01:00:0A:00:00:00:00;1726099341;12/09/24;00:02:21;1.012;0.022;0.116;-0.009773843921720982;-0.012217304669320583;0.0012217304902151227
01:00:0A:00:00:00:00;1726099342;12/09/24;00:02:22;1.011;0.022;0.116;-0.009773843921720982;-0.012217304669320583;0.0012217304902151227
01:00:0A:00:00:00:00;1726099343;12/09/24;00:02:23;1.012;0.023;0.117;-0.00855211354792118;-0.012217304669320583;0.0012217304902151227
01:00:0A:00:00:00:00;1726099344;12/09/24;00:02:24;1.011;0.023;0.115;-0.00855211354792118;-0.012217304669320583;0.0012217304902151227
01:00:0A:00:00:00:00;1726099345;12/09/24;00:02:25;1.011;0.023;0.116;-0.009773843921720982;-0.012217304669320583;0.0012217304902151227
01:00:0A:00:00:00:00;1726099346;12/09/24;00:02:26;1.012;0.022;0.116;-0.009773843921720982;-0.012217304669320583;0.0024434609804302454
01:00:0A:00:00:00:00;1726099347;12/09/24;00:02:27;1.012;0.022;0.116;-0.00855211354792118;-0.012217304669320583;0.0012217304902151227
01:00:0A:00:00:00:00;1726099348;12/09/24;00:02:28;1.012;0.021;0.117;-0.00855211354792118;-0.012217304669320583;0.0024434609804302454
01:00:0A:00:00:00:00;1726099349;12/09/24;00:02:29;1.011;0.022;0.116;-0.00855211354792118;-0.012217304669320583;0.0024434609804302454
01:00:0A:00:00:00:00;1726099350;12/09/24;00:02:30;1.012;0.021;0.116;-0.00855211354792118;-0.012217304669320583;0.0012217304902151227
01:00:0A:00:00:00:00;1726099351;12/09/24;00:02:31;1.012;0.023;0.117;-0.00855211354792118;-0.012217304669320583;0.0012217304902151227
01:00:0A:00:00:00:00;1726099352;12/09/24;00:02:32;1.011;0.022;0.116;-0.00855211354792118;-0.010995574295520782;0.0012217304902151227
01:00:0A:00:00:00:00;1726099353;12/09/24;00:02:33;1.012;0.022;0.117;-0.00855211354792118;-0.012217304669320583;0.0012217304902151227
01:00:0A:00:00:00:00;1726099354;12/09/24;00:02:34;1.012;0.023;0.117;-0.00855211354792118;-0.012217304669320583;0.0012217304902151227
01:00:0A:00:00:00:00;1726099355;12/09/24;00:02:35;1.011;0.022;0.116;-0.00855211354792118;-0.012217304669320583;0.0012217304902151227
01:00:0A:00:00:00:00;1726099356;12/09/24;00:02:36;1.012;0.021;0.115;-0.0073303827084600925;-0.012217304669320583;0.0012217304902151227
01:00:0A:00:00:00:00;1726099357;12/09/24;00:02:37;1.01;0.022;0.115;-0.00855211354792118;-0.012217304669320583;0.0012217304902151227
01:00:0A:00:00:00:00;1726099358;12/09/24;00:02:38;1.01;0.022;0.117;-0.0073303827084600925;-0.010995574295520782;0.0012217304902151227
01:00:0A:00:00:00:00;1726099359;12/09/24;00:02:39;1.013;0.022;0.116;-0.0073303827084600925;-0.012217304669320583;0.0012217304902151227
01:00:0A:00:00:00:00;1726099360;12/09/24;00:02:40;1.012;0.022;0.117;-0.0073303827084600925;-0.012217304669320583;0.0024434609804302454
01:00:0A:00:00:00:00;1726099361;12/09/24;00:02:41;1.007;0.016;0.117;-0.004886921960860491;-0.006108652334660292;0.019547687843441963
01:00:0A:00:00:00:00;1726099362;12/09/24;00:02:42;1.005;0.026;0.096;0.012217304669320583;-0.09285151958465576;0.03298672288656235
01:00:0A:00:00:00:00;1726099363;12/09/24;00:02:43;1.045;0.006;0.116;0.028099799528717995;-0.10384709388017654;0.0036651913542300463
01:00:0A:00:00:00:00;1726099364;12/09/24;00:02:44;1.041;0.098;0.208;-0.02321287989616394;0.05864306166768074;-0.012217304669320583
01:00:0A:00:00:00:00;1726099365;12/09/24;00:02:45;1.021;0.053;0.085;0.013439035043120384;-0.06719517707824707;-0.17104226350784302
01:00:0A:00:00:00:00;1726099366;12/09/24;00:02:46;0.944;0.192;-0.043;-0.16249015927314758;-0.32620203495025635;-0.10995574295520782
01:00:0A:00:00:00:00;1726099367;12/09/24;00:02:47;0.935;-0.162;0.32;-0.38606682419776917;0.5387831330299377;0.2785545289516449
01:00:0A:00:00:00:00;1726099368;12/09/24;00:02:48;1.024;0.145;0.09;0.11239919811487198;-0.891863226890564;-0.8772024512290955
01:00:0A:00:00:00:00;1726099369;12/09/24;00:02:49;0.815;0.154;0.003;-1.215621829032898;-0.1062905490398407;1.0897835493087769
01:00:0A:00:00:00:00;1726099370;12/09/24;00:02:50;0.937;-0.281;0.186;-1.5015066862106323;0.6291911602020264;0.16004669666290283
01:00:0A:00:00:00:00;1726099371;12/09/24;00:02:51;0.959;-0.002;0.082;-0.949284553527832;-0.616973876953125;-1.3182471990585327
01:00:0A:00:00:00:00;1726099372;12/09/24;00:02:52;0.888;0.325;0.108;-1.5137239694595337;-0.778242290019989;0.7342600226402283
01:00:0A:00:00:00:00;1726099373;12/09/24;00:02:53;0.828;0.118;-0.586;-1.5919147729873657;-0.09162978082895279;0.7892378568649292
01:00:0A:00:00:00:00;1726099374;12/09/24;00:02:54;0.935;-0.177;0.244;-1.1288789510726929;-0.14049901068210602;0.28099802136421204
01:00:0A:00:00:00:00;1726099375;12/09/24;00:02:55;0.817;-0.293;-0.572;-0.28466320037841797;-1.744631052017212;1.4428637027740479
01:00:0A:00:00:00:00;1726099376;12/09/24;00:02:56;1.042;0.178;0.17;-0.33964109420776367;0.6695082783699036;-0.22602014243602753
01:00:0A:00:00:00:00;1726099377;12/09/24;00:02:57;0.883;-0.216;0.549;-0.1869247555732727;-0.5180137157440186;0.17104226350784302
01:00:0A:00:00:00:00;1726099378;12/09/24;00:02:58;0.899;-0.083;-0.241;0.0;-0.28466320037841797;0.13561207056045532
01:00:0A:00:00:00:00;1726099379;12/09/24;00:02:59;0.657;0.503;0.772;-0.3701843321323395;0.7953465580940247;-0.45326200127601624
01:00:0A:00:00:00:00;1726099380;12/09/24;00:03:00;1.031;-0.244;-0.066;-0.161268413066864;-0.5827654600143433;-0.4312708377838135
01:00:0A:00:00:00:00;1726099381;12/09/24;00:03:01;0.932;0.432;0.092;-0.34208452701568604;0.09040805697441101;-0.009773843921720982
01:00:0A:00:00:00:00;1726099382;12/09/24;00:03:02;1.015;-0.311;-0.061;-0.455705463886261;-0.2932153046131134;0.2528982162475586
01:00:0A:00:00:00:00;1726099383;12/09/24;00:03:03;1.028;-0.12;-0.031;-0.38606682419776917;0.4153883755207062;0.3029891550540924
01:00:0A:00:00:00:00;1726099384;12/09/24;00:03:04;0.807;-0.461;0.453;0.12461651116609573;0.6768386960029602;-0.019547687843441963
01:00:0A:00:00:00:00;1726099385;12/09/24;00:03:05;0.97;0.124;0.198;0.5632177591323853;-0.9395107626914978;-0.10262535512447357
01:00:0A:00:00:00:00;1726099386;12/09/24;00:03:06;1.015;-0.005;-0.126;0.2565633952617645;0.3628539443016052;0.4447098970413208
01:00:0A:00:00:00:00;1726099387;12/09/24;00:03:07;0.932;-0.079;0.439;0.5571090579032898;-0.05009094998240471;-0.030543262138962746
01:00:0A:00:00:00:00;1726099388;12/09/24;00:03:08;0.813;0.044;0.612;0.02932153083384037;1.6016886234283447;-0.8710938096046448
01:00:0A:00:00:00:00;1726099389;12/09/24;00:03:09;1.019;0.273;0.022;-0.646295428276062;-0.08674286305904388;0.05742133408784866
01:00:0A:00:00:00:00;1726099390;12/09/24;00:03:10;0.82;-0.523;0.406;-0.41783180832862854;0.21013763546943665;0.6768386960029602
01:00:0A:00:00:00:00;1726099391;12/09/24;00:03:11;0.953;-0.216;0.348;0.6243042349815369;-0.38606682419776917;-0.38606682419776917
01:00:0A:00:00:00:00;1726099392;12/09/24;00:03:12;0.947;0.092;-0.337;0.2822197377681732;-0.32131510972976685;0.4251621961593628
01:00:0A:00:00:00:00;1726099393;12/09/24;00:03:13;0.955;-0.166;0.313;0.2993239760398865;0.6621779203414917;-0.37751471996307373
01:00:0A:00:00:00:00;1726099394;12/09/24;00:03:14;0.932;0.275;-0.031;-0.0073303827084600925;-0.9382889866828918;0.08552113175392151
01:00:0A:00:00:00:00;1726099395;12/09/24;00:03:15;1.013;0.045;-0.043;-0.62796950340271;0.3848450779914856;0.5791001915931702
01:00:0A:00:00:00:00;1726099396;12/09/24;00:03:16;0.976;0.028;0.07;-0.040317103266716;-0.21013763546943665;-1.0971139669418335
01:00:0A:00:00:00:00;1726099397;12/09/24;00:03:17;0.936;0.313;0.171;-0.656069278717041;0.26511549949645996;0.5510004162788391
01:00:0A:00:00:00:00;1726099398;12/09/24;00:03:18;0.895;-0.284;0.294;-0.21868975460529327;-0.9847148060798645;0.06108652427792549
01:00:0A:00:00:00:00;1726099399;12/09/24;00:03:19;0.91;0.019;0.236;0.2541199326515198;0.6768386960029602;-1.0201449394226074
01:00:0A:00:00:00:00;1726099400;12/09/24;00:03:20;0.929;0.285;0.236;-0.3066543638706207;-1.0506882667541504;-0.01710422709584236
01:00:0A:00:00:00:00;1726099401;12/09/24;00:03:21;0.881;0.006;-0.362;-2.8906142711639404;-0.7220427393913269;1.1142181158065796
01:00:0A:00:00:00:00;1726099402;12/09/24;00:03:22;0.983;0.005;-0.196;-3.134960412979126;0.009773843921720982;1.1325441598892212
01:00:0A:00:00:00:00;1726099403;12/09/24;00:03:23;1.011;-0.122;-0.198;-3.015230655670166;0.5155702233314514;0.5803219676017761
01:00:0A:00:00:00:00;1726099404;12/09/24;00:03:24;1.042;-0.155;0.106;-1.9010125398635864;0.2076941877603531;-0.36529743671417236
01:00:0A:00:00:00:00;1726099405;12/09/24;00:03:25;1.046;0.1;0.326;-1.6872097253799438;0.059864792972803116;-0.4642575681209564
01:00:0A:00:00:00:00;1726099406;12/09/24;00:03:26;0.965;0.389;0.111;-1.7275269031524658;-0.3640756905078888;-0.15393804013729095
01:00:0A:00:00:00:00;1726099407;12/09/24;00:03:27;0.865;-0.208;-0.533;-2.331061840057373;0.2981022298336029;1.5320500135421753
01:00:0A:00:00:00:00;1726099408;12/09/24;00:03:28;0.756;0.002;0.643;-0.17837265133857727;0.1466076523065567;-1.5467108488082886
01:00:0A:00:00:00:00;1726099409;12/09/24;00:03:29;0.726;0.492;0.425;-2.54364275932312;-1.4147639274597168;-1.1484266519546509
01:00:0A:00:00:00:00;1726099410;12/09/24;00:03:30;0.932;0.215;0.391;-2.9822442531585693;-0.251676470041275;-1.6224579811096191
01:00:0A:00:00:00:00;1726099411;12/09/24;00:03:31;0.873;-0.199;0.644;-2.009746551513672;0.07452555745840073;-0.7061601877212524
01:00:0A:00:00:00:00;1726099412;12/09/24;00:03:32;0.924;0.284;0.38;-1.6212363243103027;0.021991148591041565;-0.18814648687839508
01:00:0A:00:00:00:00;1726099413;12/09/24;00:03:33;0.901;-0.189;0.483;-1.017701506614685;-0.6475171446800232;-0.4948008358478546
01:00:0A:00:00:00:00;1726099414;12/09/24;00:03:34;0.978;0.126;0.219;-1.0030406713485718;-0.059864792972803116;0.1417207270860672
01:00:0A:00:00:00:00;1726099415;12/09/24;00:03:35;1.02;-0.065;0.033;-0.9065240025520325;-0.5045746564865112;0.04642575979232788
01:00:0A:00:00:00:00;1726099416;12/09/24;00:03:36;0.904;-0.351;0.488;-0.6255260109901428;0.8393288850784302;-0.2932153046131134
01:00:0A:00:00:00:00;1726099417;12/09/24;00:03:37;0.913;0.316;0.377;-0.34574973583221436;-0.7696901559829712;-0.35552355647087097
01:00:0A:00:00:00:00;1726099418;12/09/24;00:03:38;1.05;0.128;-0.07;-0.9260717034339905;-0.1563815027475357;0.35552355647087097
01:00:0A:00:00:00:00;1726099419;12/09/24;00:03:39;0.935;0.149;0.469;-0.9712756872177124;0.21991148591041565;-0.33719760179519653
01:00:0A:00:00:00:00;1726099420;12/09/24;00:03:40;0.875;0.159;-0.464;-0.8417722582817078;-0.9187413454055786;-0.3848450779914856
01:00:0A:00:00:00:00;1726099421;12/09/24;00:03:41;1.055;0.042;0.246;-0.17837265133857727;1.0201449394226074;-0.7464773058891296
01:00:0A:00:00:00:00;1726099422;12/09/24;00:03:42;0.894;0.335;0.185;-0.9175195693969727;-0.93095862865448;0.3897320330142975
01:00:0A:00:00:00:00;1726099423;12/09/24;00:03:43;0.956;-0.11;-0.101;-1.205847978591919;-0.38240164518356323;0.21502456068992615
01:00:0A:00:00:00:00;1726099424;12/09/24;00:03:44;1.033;0.087;-0.131;-1.633453607559204;0.0757472887635231;1.2498303651809692
01:00:0A:00:00:00:00;1726099425;12/09/24;00:03:45;0.851;0.002;-0.618;-1.7690656185150146;0.37629297375679016;0.8112289905548096
01:00:0A:00:00:00:00;1726099426;12/09/24;00:03:46;0.922;0.182;0.049;0.8258897662162781;-1.3316861391067505;-1.5796974897384644
01:00:0A:00:00:00:00;1726099427;12/09/24;00:03:47;1.02;-0.306;0.207;-0.720820963382721;0.7098253965377808;0.29688048362731934
01:00:0A:00:00:00:00;1726099428;12/09/24;00:03:48;0.996;0.273;-0.294;0.4703662395477295;0.19792033731937408;1.6505578756332397
01:00:0A:00:00:00:00;1726099429;12/09/24;00:03:49;0.969;0.223;0.006;0.6731734871864319;-0.8772024512290955;1.1545352935791016
01:00:0A:00:00:00:00;1726099430;12/09/24;00:03:50;0.772;0.649;-0.38;-0.06475171446800232;-0.3799581527709961;-0.6829473376274109
01:00:0A:00:00:00:00;1726099431;12/09/24;00:03:51;0.783;0.69;-0.326;-0.1661553531885147;-0.6890559792518616;0.7183775305747986
01:00:0A:00:00:00:00;1726099432;12/09/24;00:03:52;0.775;-0.437;0.681;-0.7525859475135803;0.7134906053543091;-0.588874101638794
01:00:0A:00:00:00:00;1726099433;12/09/24;00:03:53;0.824;-0.029;-0.433;0.16249015927314758;-0.8979718685150146;0.8955284357070923
01:00:0A:00:00:00:00;1726099434;12/09/24;00:03:54;0.813;0.363;0.422;-0.3628539443016052;0.12828169763088226;-1.1447614431381226
01:00:0A:00:00:00:00;1726099435;12/09/24;00:03:55;0.981;0.103;-0.003;-1.2803735733032227;-0.607200026512146;1.4208725690841675
01:00:0A:00:00:00:00;1726099436;12/09/24;00:03:56;1.037;-0.239;-0.044;-1.0409142971038818;1.6102406978607178;-0.7110471129417419
01:00:0A:00:00:00:00;1726099437;12/09/24;00:03:57;0.805;-0.642;-0.566;-0.6829473376274109;0.2883284091949463;0.46303585171699524
01:00:0A:00:00:00:00;1726099438;12/09/24;00:03:58;0.72;0.614;-0.69;-0.43249258399009705;-1.0824532508850098;0.4239404499530792
01:00:0A:00:00:00:00;1726099439;12/09/24;00:03:59;0.746;-0.545;0.368;-0.7599163055419922;0.6572909951210022;-0.807563841342926
01:00:0A:00:00:00:00;1726099440;12/09/24;00:04:00;0.968;0.111;0.062;-0.2785545289516449;0.5839871764183044;-1.5980234146118164
01:00:0A:00:00:00:00;1726099441;12/09/24;00:04:01;1.155;0.204;0.091;-0.7110471129417419;-0.07208210229873657;0.5216788649559021
01:00:0A:00:00:00:00;1726099442;12/09/24;00:04:02;0.934;-0.02;0.314;-0.1661553531885147;-1.1239920854568481;-0.024434609338641167
01:00:0A:00:00:00:00;1726099443;12/09/24;00:04:03;0.972;0.025;0.188;0.46792274713516235;-1.0934487581253052;0.13927726447582245
01:00:0A:00:00:00:00;1726099444;12/09/24;00:04:04;0.704;0.218;0.63;0.1111774742603302;-1.3805553913116455;0.4239404499530792
01:00:0A:00:00:00:00;1726099445;12/09/24;00:04:05;0.69;0.668;0.317;1.6493362188339233;-0.34697145223617554;0.9517280459403992
01:00:0A:00:00:00:00;1726099446;12/09/24;00:04:06;0.68;0.771;-0.282;-0.10873401165008545;-1.4135421514511108;-0.4752531349658966
01:00:0A:00:00:00:00;1726099447;12/09/24;00:04:07;1.041;-0.275;-0.229;-1.7910568714141846;1.9058995246887207;0.26022857427597046
01:00:0A:00:00:00:00;1726099448;12/09/24;00:04:08;0.828;0.242;0.586;-1.1582003831863403;-0.645073652267456;-2.152688980102539
01:00:0A:00:00:00:00;1726099449;12/09/24;00:04:09;0.87;-0.649;-0.094;-0.8991935849189758;0.05375614017248154;-0.39095374941825867
01:00:0A:00:00:00:00;1726099450;12/09/24;00:04:10;0.968;-0.055;-0.078;-0.8943067193031311;1.5454890727996826;-0.0073303827084600925
01:00:0A:00:00:00:00;1726099451;12/09/24;00:04:11;0.667;0.844;-0.068;-0.10873401165008545;-1.4941763877868652;-0.00855211354792118
01:00:0A:00:00:00:00;1726099452;12/09/24;00:04:12;0.854;0.427;-0.137;-1.3475687503814697;-0.4789183437824249;0.29565879702568054
01:00:0A:00:00:00:00;1726099453;12/09/24;00:04:13;0.901;0.49;-0.176;-1.7861698865890503;-0.9162978529930115;0.08429940044879913
01:00:0A:00:00:00:00;1726099454;12/09/24;00:04:14;0.996;0.098;0.101;-2.141693592071533;-0.20525071024894714;0.720820963382721
01:00:0A:00:00:00:00;1726099455;12/09/24;00:04:15;0.953;-0.17;0.122;-1.4978415966033936;0.5607742667198181;0.15271630883216858
01:00:0A:00:00:00:00;1726099456;12/09/24;00:04:16;0.982;0.039;0.071;-0.8014551997184753;0.07452555745840073;-0.5119050741195679
01:00:0A:00:00:00:00;1726099457;12/09/24;00:04:17;1.028;0.115;0.127;-0.9712756872177124;-0.8784241676330566;0.9896016716957092
01:00:0A:00:00:00:00;1726099458;12/09/24;00:04:18;0.913;0.044;-0.365;-1.0629055500030518;0.9260717034339905;-0.1270599663257599
01:00:0A:00:00:00:00;1726099459;12/09/24;00:04:19;0.853;-0.312;0.325;-0.6536257863044739;0.4642575681209564;-0.019547687843441963
01:00:0A:00:00:00:00;1726099460;12/09/24;00:04:20;0.898;0.03;0.382;-0.9639453291893005;-0.0757472887635231;-1.253495454788208
01:00:0A:00:00:00:00;1726099461;12/09/24;00:04:21;0.849;0.287;0.388;-1.1239920854568481;-0.9993755221366882;-0.4899139106273651
01:00:0A:00:00:00:00;1726099462;12/09/24;00:04:22;0.912;0.302;-0.192;-1.3952162265777588;-0.20036379992961884;-0.15027284622192383
01:00:0A:00:00:00:00;1726099463;12/09/24;00:04:23;0.902;0.3;-0.063;-1.0128145217895508;-1.1435396671295166;-1.703092336654663
01:00:0A:00:00:00:00;1726099464;12/09/24;00:04:24;0.818;0.687;-0.145;-1.489289402961731;-0.7990117073059082;0.49724429845809937
01:00:0A:00:00:00:00;1726099465;12/09/24;00:04:25;0.937;-0.071;-0.382;-2.1868975162506104;-0.010995574295520782;-0.2981022298336029
01:00:0A:00:00:00:00;1726099466;12/09/24;00:04:26;0.921;0.092;0.511;-1.6273449659347534;0.5522221922874451;-0.5057964324951172
01:00:0A:00:00:00:00;1726099467;12/09/24;00:04:27;1.059;-0.043;0.066;-0.8600982427597046;-0.3738495111465454;-0.26633724570274353
01:00:0A:00:00:00:00;1726099468;12/09/24;00:04:28;0.852;-0.168;0.624;0.0;0.4642575681209564;-0.6096435189247131
01:00:0A:00:00:00:00;1726099469;12/09/24;00:04:29;1.013;0.051;0.055;-0.7745770812034607;-0.7061601877212524;0.27611109614372253
01:00:0A:00:00:00:00;1726099470;12/09/24;00:04:30;1.001;-0.208;0.112;-0.7623597979545593;0.513126790523529;-0.18325956165790558
01:00:0A:00:00:00:00;1726099471;12/09/24;00:04:31;1.016;0.1;-0.073;-1.215621829032898;-0.6157521605491638;0.10995574295520782
01:00:0A:00:00:00:00;1726099472;12/09/24;00:04:32;0.839;-0.5;-0.508;-1.5540411472320557;-0.15271630883216858;2.0928242206573486
01:00:0A:00:00:00:00;1726099473;12/09/24;00:04:33;0.782;-0.533;0.396;-0.30543261766433716;0.4349360466003418;-0.5436700582504272
01:00:0A:00:00:00:00;1726099474;12/09/24;00:04:34;0.871;0.148;0.45;0.2541199326515198;-1.260825753211975;-0.8869763016700745
01:00:0A:00:00:00:00;1726099475;12/09/24;00:04:35;0.905;-0.21;-0.212;-0.38117989897727966;0.251676470041275;0.8637634515762329
01:00:0A:00:00:00:00;1726099476;12/09/24;00:04:36;0.77;0.187;0.617;-0.161268413066864;1.518610954284668;-1.6102406978607178
01:00:0A:00:00:00:00;1726099477;12/09/24;00:04:37;0.647;0.4;0.757;-1.282817006111145;-1.3646730184555054;-1.3622294664382935
01:00:0A:00:00:00:00;1726099478;12/09/24;00:04:38;0.949;0.331;-0.171;-2.2259929180145264;-1.4159855842590332;0.4911356568336487
01:00:0A:00:00:00:00;1726099479;12/09/24;00:04:39;1.001;0.015;-0.295;-1.6969836950302124;-0.960280179977417;0.9810495376586914
01:00:0A:00:00:00:00;1726099480;12/09/24;00:04:40;0.982;-0.134;-0.222;-2.431243658065796;0.6756169199943542;0.47769662737846375
01:00:0A:00:00:00:00;1726099481;12/09/24;00:04:41;0.995;-0.242;0.19;-2.076941967010498;0.8637634515762329;0.09529497474431992
01:00:0A:00:00:00:00;1726099482;12/09/24;00:04:42;0.951;-0.269;0.474;-1.2657127380371094;0.5619960427284241;-0.7293730974197388
01:00:0A:00:00:00:00;1726099483;12/09/24;00:04:43;0.85;0.274;0.548;-1.3732250928878784;-0.6963863372802734;-0.5717698335647583
01:00:0A:00:00:00:00;1726099484;12/09/24;00:04:44;0.941;0.32;0.226;-1.644449234008789;-0.43860122561454773;-0.8100073337554932
01:00:0A:00:00:00:00;1726099485;12/09/24;00:04:45;0.992;0.005;0.164;-1.7214182615280151;-0.7770205736160278;0.012217304669320583
01:00:0A:00:00:00:00;1726099486;12/09/24;00:04:46;0.955;0.011;0.064;-1.5980234146118164;0.07696902006864548;0.161268413066864
01:00:0A:00:00:00:00;1726099487;12/09/24;00:04:47;0.955;-0.035;0.061;-1.2803735733032227;0.04886921867728233;-0.2932153046131134
01:00:0A:00:00:00:00;1726099488;12/09/24;00:04:48;0.971;-0.011;0.215;-1.145983099937439;-0.20891590416431427;-0.02932153083384037
01:00:0A:00:00:00:00;1726099489;12/09/24;00:04:49;0.957;0.176;0.163;-0.8539896011352539;0.0036651913542300463;-0.7305948734283447
01:00:0A:00:00:00:00;1726099490;12/09/24;00:04:50;0.937;0.129;0.396;-1.0519099235534668;0.05375614017248154;-0.03787364438176155
01:00:0A:00:00:00:00;1726099491;12/09/24;00:04:51;0.976;-0.202;0.243;-0.750142514705658;-0.07941248267889023;0.08796459436416626
01:00:0A:00:00:00:00;1726099492;12/09/24;00:04:52;0.995;-0.146;-0.051;-0.6157521605491638;-0.0012217304902151227;-0.2883284091949463
01:00:0A:00:00:00:00;1726099493;12/09/24;00:04:53;1.005;-0.012;-0.064;-1.4660764932632446;0.34574973583221436;0.10506881773471832
01:00:0A:00:00:00:00;1726099494;12/09/24;00:04:54;0.993;-0.133;0.057;-1.0726792812347412;0.1661553531885147;-0.09285151958465576
01:00:0A:00:00:00:00;1726099495;12/09/24;00:04:55;0.993;0.074;0.188;-0.6792821884155273;0.10018189996480942;-0.3885102868080139
01:00:0A:00:00:00:00;1726099496;12/09/24;00:04:56;0.988;0.097;0.139;-0.656069278717041;-0.26511549949645996;-0.23945917189121246
01:00:0A:00:00:00:00;1726099497;12/09/24;00:04:57;0.997;0.048;-0.005;-0.8197811245918274;-0.1270599663257599;0.030543262138962746
01:00:0A:00:00:00:00;1726099498;12/09/24;00:04:58;1.012;-0.038;0.075;-0.7819074988365173;0.06108652427792549;-0.021991148591041565
01:00:0A:00:00:00:00;1726099499;12/09/24;00:04:59;1.003;-0.102;0.191;-0.5106833577156067;-0.019547687843441963;-0.23945917189121246
01:00:0A:00:00:00:00;1726099500;12/09/24;00:05:00;1.016;0.071;0.166;-0.5070181488990784;-0.12217304855585098;0.004886921960860491
01:00:0A:00:00:00:00;1726099501;12/09/24;00:05:01;1.037;-0.04;0.072;-0.5021312236785889;-0.05742133408784866;0.0757472887635231
01:00:0A:00:00:00:00;1726099502;12/09/24;00:05:02;1.026;-0.036;0.128;-0.37140607833862305;0.13561207056045532;-0.04764748737215996
01:00:0A:00:00:00:00;1726099503;12/09/24;00:05:03;1.016;0.016;0.178;-0.29565879702568054;0.009773843921720982;-0.021991148591041565
01:00:0A:00:00:00:00;1726099504;12/09/24;00:05:04;1.016;0.033;0.075;-0.2834414541721344;-0.080634206533432;0.0012217304902151227
01:00:0A:00:00:00:00;1726099505;12/09/24;00:05:05;0.998;0.008;0.133;-0.2822197377681732;0.06352998316287994;0.0354301817715168
01:00:0A:00:00:00:00;1726099506;12/09/24;00:05:06;0.999;-0.006;0.171;-0.1466076523065567;-0.0012217304902151227;-0.08429940044879913
01:00:0A:00:00:00:00;1726099507;12/09/24;00:05:07;1.009;0.04;0.138;-0.12095131725072861;-0.018325956538319588;-0.06352998316287994
01:00:0A:00:00:00:00;1726099508;12/09/24;00:05:08;0.983;-0.061;0.243;0.2431243658065796;0.09773843735456467;0.07941248267889023
01:00:0A:00:00:00:00;1726099509;12/09/24;00:05:09;0.979;-0.049;0.221;0.25045475363731384;-0.13316862285137177;-0.025656338781118393
01:00:0A:00:00:00:00;1726099510;12/09/24;00:05:10;1.007;-0.006;0.053;0.25534167885780334;-0.18325956165790558;0.0708603635430336
01:00:0A:00:00:00:00;1726099511;12/09/24;00:05:11;1.036;-0.003;0.091;0.19058994948863983;0.1514945775270462;0.03787364438176155
01:00:0A:00:00:00:00;1726099512;12/09/24;00:05:12;1.028;0.078;0.262;0.17470745742321014;-0.025656338781118393;0.08918632566928864
01:00:0A:00:00:00:00;1726099513;12/09/24;00:05:13;1.048;0.027;0.015;0.1270599663257599;-0.06719517707824707;-0.02321287989616394
01:00:0A:00:00:00:00;1726099514;12/09/24;00:05:14;0.989;0.057;0.136;0.07452555745840073;0.20891590416431427;-0.05742133408784866
01:00:0A:00:00:00:00;1726099515;12/09/24;00:05:15;0.975;0.03;0.12;0.0757472887635231;-0.16493360698223114;0.018325956538319588
01:00:0A:00:00:00:00;1726099516;12/09/24;00:05:16;0.995;-0.012;0.042;0.06963863223791122;-0.03420845419168472;-0.013439035043120384
01:00:0A:00:00:00:00;1726099517;12/09/24;00:05:17;1.021;0.004;0.12;0.04398229718208313;0.06230825558304787;0.05864306166768074
01:00:0A:00:00:00:00;1726099518;12/09/24;00:05:18;1.016;0.008;0.156;0.0757472887635231;-0.0659734457731247;0.03420845419168472
01:00:0A:00:00:00:00;1726099519;12/09/24;00:05:19;1.013;0.032;0.095;0.08185594528913498;-0.014660765416920185;0.0036651913542300463
01:00:0A:00:00:00:00;1726099520;12/09/24;00:05:20;1.017;0.0;0.133;0.07696902006864548;0.024434609338641167;0.0024434609804302454
01:00:0A:00:00:00:00;1726099521;12/09/24;00:05:21;1.029;0.004;0.156;0.11728612333536148;-0.06108652427792549;-0.021991148591041565
01:00:0A:00:00:00:00;1726099522;12/09/24;00:05:22;1.025;0.014;0.095;0.06230825558304787;-0.0073303827084600925;0.019547687843441963
01:00:0A:00:00:00:00;1726099523;12/09/24;00:05:23;0.99;-0.009;0.146;0.04886921867728233;0.08918632566928864;-0.013439035043120384
01:00:0A:00:00:00:00;1726099524;12/09/24;00:05:24;0.985;-0.001;0.105;0.04764748737215996;-0.1160643920302391;0.06475171446800232
01:00:0A:00:00:00:00;1726099525;12/09/24;00:05:25;1.02;0.008;0.071;0.04153883829712868;0.006108652334660292;-0.014660765416920185
01:00:0A:00:00:00:00;1726099526;12/09/24;00:05:26;1.031;0.034;0.16;0.01710422709584236;-0.03176499158143997;0.02076941914856434
01:00:0A:00:00:00:00;1726099527;12/09/24;00:05:27;1.027;-0.01;0.117;0.04398229718208313;-0.05253440886735916;-0.01710422709584236
01:00:0A:00:00:00:00;1726099528;12/09/24;00:05:28;1.005;-0.002;0.115;0.0354301817715168;0.036651913076639175;-0.025656338781118393
01:00:0A:00:00:00:00;1726099529;12/09/24;00:05:29;1.0;0.005;0.144;0.004886921960860491;-0.006108652334660292;0.051312677562236786
01:00:0A:00:00:00:00;1726099530;12/09/24;00:05:30;1.009;0.014;0.142;0.02321287989616394;-0.025656338781118393;0.019547687843441963
01:00:0A:00:00:00:00;1726099531;12/09/24;00:05:31;1.016;0.029;0.094;0.030543262138962746;0.042760565876960754;-0.03176499158143997
01:00:0A:00:00:00:00;1726099532;12/09/24;00:05:32;0.998;0.001;0.126;0.02321287989616394;0.04764748737215996;-0.012217304669320583
01:00:0A:00:00:00:00;1726099533;12/09/24;00:05:33;0.993;-0.018;0.089;0.06230825558304787;-0.08918632566928864;-0.0073303827084600925
01:00:0A:00:00:00:00;1726099534;12/09/24;00:05:34;1.003;0.007;0.089;0.045204028487205505;-0.0036651913542300463;0.025656338781118393
01:00:0A:00:00:00:00;1726099535;12/09/24;00:05:35;1.018;0.023;0.159;0.05375614017248154;-0.039095375686883926;0.009773843921720982
01:00:0A:00:00:00:00;1726099536;12/09/24;00:05:36;1.027;0.0;0.115;0.0757472887635231;-0.05375614017248154;-0.02932153083384037
01:00:0A:00:00:00:00;1726099537;12/09/24;00:05:37;1.023;-0.001;0.128;0.05742133408784866;0.025656338781118393;0.006108652334660292
01:00:0A:00:00:00:00;1726099538;12/09/24;00:05:38;1.021;0.003;0.136;0.05619959905743599;-0.03298672288656235;0.05009094998240471
01:00:0A:00:00:00:00;1726099539;12/09/24;00:05:39;1.035;0.001;0.131;0.07452555745840073;-0.02076941914856434;0.04398229718208313
01:00:0A:00:00:00:00;1726099540;12/09/24;00:05:40;1.032;0.015;0.132;0.10018189996480942;0.02932153083384037;-0.009773843921720982
01:00:0A:00:00:00:00;1726099541;12/09/24;00:05:41;1.005;0.009;0.119;0.09896016865968704;0.036651913076639175;0.0012217304902151227
01:00:0A:00:00:00:00;1726099542;12/09/24;00:05:42;0.995;0.0;0.126;0.11362093687057495;-0.015882495790719986;-0.0073303827084600925
01:00:0A:00:00:00:00;1726099543;12/09/24;00:05:43;1.008;0.001;0.123;0.1062905490398407;-0.0012217304902151227;0.03420845419168472
01:00:0A:00:00:00:00;1726099544;12/09/24;00:05:44;1.011;0.016;0.118;0.12095131725072861;0.0073303827084600925;-0.0036651913542300463
01:00:0A:00:00:00:00;1726099545;12/09/24;00:05:45;0.999;0.006;0.107;0.12095131725072861;-0.014660765416920185;-0.0024434609804302454
01:00:0A:00:00:00:00;1726099546;12/09/24;00:05:46;0.978;-0.002;0.12;0.12217304855585098;-0.014660765416920185;0.01710422709584236
01:00:0A:00:00:00:00;1726099547;12/09/24;00:05:47;0.987;0.007;0.11;0.12461651116609573;-0.08185594528913498;0.019547687843441963
01:00:0A:00:00:00:00;1726099548;12/09/24;00:05:48;1.04;0.003;0.116;0.1111774742603302;-0.030543262138962746;0.024434609338641167
01:00:0A:00:00:00:00;1726099549;12/09/24;00:05:49;1.057;0.008;0.141;0.1160643920302391;-0.036651913076639175;0.030543262138962746
01:00:0A:00:00:00:00;1726099550;12/09/24;00:05:50;1.056;0.004;0.127;0.12339477241039276;0.025656338781118393;0.013439035043120384
01:00:0A:00:00:00:00;1726099551;12/09/24;00:05:51;1.009;0.028;0.1;0.12095131725072861;0.05009094998240471;-0.039095375686883926
01:00:0A:00:00:00:00;1726099552;12/09/24;00:05:52;0.979;-0.005;0.122;0.09651670604944229;0.0708603635430336;0.03420845419168472
01:00:0A:00:00:00:00;1726099553;12/09/24;00:05:53;0.962;0.0;0.083;0.1368338167667389;-0.08796459436416626;-0.021991148591041565
01:00:0A:00:00:00:00;1726099554;12/09/24;00:05:54;0.971;0.017;0.102;0.08429940044879913;0.05375614017248154;0.03420845419168472
01:00:0A:00:00:00:00;1726099555;12/09/24;00:05:55;1.01;-0.003;0.15;0.1111774742603302;-0.13072516024112701;0.014660765416920185
01:00:0A:00:00:00:00;1726099556;12/09/24;00:05:56;1.04;0.006;0.089;0.09529497474431992;-0.0073303827084600925;0.02076941914856434
01:00:0A:00:00:00:00;1726099557;12/09/24;00:05:57;1.05;0.012;0.164;0.08674286305904388;0.01710422709584236;0.02932153083384037
01:00:0A:00:00:00:00;1726099558;12/09/24;00:05:58;1.05;0.0;0.106;0.11239919811487198;0.004886921960860491;0.0024434609804302454
01:00:0A:00:00:00:00;1726099559;12/09/24;00:05:59;1.01;0.015;0.106;0.10506881773471832;0.05497787147760391;-0.01710422709584236
01:00:0A:00:00:00:00;1726099560;12/09/24;00:06:00;0.982;-0.002;0.115;0.08918632566928864;-0.012217304669320583;0.05864306166768074
01:00:0A:00:00:00:00;1726099561;12/09/24;00:06:01;0.986;0.009;0.101;0.1111774742603302;-0.0659734457731247;0.02321287989616394
01:00:0A:00:00:00:00;1726099562;12/09/24;00:06:02;1.008;0.022;0.116;0.09407324343919754;0.010995574295520782;0.0024434609804302454
01:00:0A:00:00:00:00;1726099563;12/09/24;00:06:03;1.009;0.017;0.148;0.08918632566928864;-0.039095375686883926;0.012217304669320583
01:00:0A:00:00:00:00;1726099564;12/09/24;00:06:04;1.016;-0.006;0.108;0.1014036238193512;-0.013439035043120384;-0.014660765416920185
01:00:0A:00:00:00:00;1726099565;12/09/24;00:06:05;1.013;-0.002;0.122;0.09529497474431992;0.014660765416920185;-0.0012217304902151227
01:00:0A:00:00:00:00;1726099566;12/09/24;00:06:06;1.01;0.002;0.123;0.08552113175392151;-0.018325956538319588;0.04398229718208313
01:00:0A:00:00:00:00;1726099567;12/09/24;00:06:07;1.015;-0.006;0.123;0.10506881773471832;-0.02076941914856434;0.009773843921720982
01:00:0A:00:00:00:00;1726099568;12/09/24;00:06:08;1.023;0.008;0.113;0.1014036238193512;-0.0073303827084600925;0.01710422709584236
01:00:0A:00:00:00:00;1726099569;12/09/24;00:06:09;1.019;0.014;0.135;0.09285151958465576;0.0012217304902151227;0.02687807008624077
01:00:0A:00:00:00:00;1726099570;12/09/24;00:06:10;1.016;0.002;0.127;0.10751228034496307;-0.02321287989616394;0.014660765416920185
01:00:0A:00:00:00:00;1726099571;12/09/24;00:06:11;1.004;0.012;0.109;0.11362093687057495;0.010995574295520782;-0.012217304669320583
01:00:0A:00:00:00:00;1726099572;12/09/24;00:06:12;0.994;0.011;0.131;0.1014036238193512;-0.0012217304902151227;0.012217304669320583
01:00:0A:00:00:00:00;1726099573;12/09/24;00:06:13;0.999;-0.007;0.113;0.11728612333536148;-0.051312677562236786;0.0024434609804302454
01:00:0A:00:00:00:00;1726099574;12/09/24;00:06:14;1.006;0.003;0.117;0.1111774742603302;-0.0024434609804302454;0.014660765416920185
01:00:0A:00:00:00:00;1726099575;12/09/24;00:06:15;1.017;0.004;0.134;0.1111774742603302;-0.02932153083384037;0.02321287989616394
01:00:0A:00:00:00:00;1726099576;12/09/24;00:06:16;1.017;0.0;0.117;0.11239919811487198;-0.015882495790719986;0.019547687843441963
01:00:0A:00:00:00:00;1726099577;12/09/24;00:06:17;1.013;0.0;0.122;0.11362093687057495;0.004886921960860491;0.00855211354792118
01:00:0A:00:00:00:00;1726099578;12/09/24;00:06:18;1.013;0.009;0.118;0.1062905490398407;-0.010995574295520782;0.028099799528717995
01:00:0A:00:00:00:00;1726099579;12/09/24;00:06:19;1.016;0.009;0.122;0.10873401165008545;-0.018325956538319588;0.01710422709584236
01:00:0A:00:00:00:00;1726099580;12/09/24;00:06:20;1.009;0.008;0.121;0.11362093687057495;-0.009773843921720982;-0.004886921960860491
01:00:0A:00:00:00:00;1726099581;12/09/24;00:06:21;1.006;0.008;0.134;0.1111774742603302;0.0036651913542300463;0.0
01:00:0A:00:00:00:00;1726099582;12/09/24;00:06:22;1.011;0.006;0.122;0.10262535512447357;-0.030543262138962746;0.021991148591041565
01:00:0A:00:00:00:00;1726099583;12/09/24;00:06:23;1.021;0.0;0.123;0.1062905490398407;0.010995574295520782;0.0012217304902151227
01:00:0A:00:00:00:00;1726099584;12/09/24;00:06:24;1.016;0.013;0.122;0.10384709388017654;0.0;-0.0036651913542300463
01:00:0A:00:00:00:00;1726099585;12/09/24;00:06:25;1.005;-0.001;0.125;0.08552113175392151;0.012217304669320583;0.025656338781118393
01:00:0A:00:00:00:00;1726099586;12/09/24;00:06:26;0.994;0.005;0.104;0.09651670604944229;-0.036651913076639175;0.0024434609804302454
01:00:0A:00:00:00:00;1726099587;12/09/24;00:06:27;1.009;0.008;0.123;0.0708603635430336;-0.014660765416920185;0.02687807008624077
01:00:0A:00:00:00:00;1726099588;12/09/24;00:06:28;1.022;0.0;0.138;0.07696902006864548;-0.040317103266716;0.019547687843441963
01:00:0A:00:00:00:00;1726099589;12/09/24;00:06:29;1.019;0.014;0.121;0.0659734457731247;0.01710422709584236;0.0073303827084600925
01:00:0A:00:00:00:00;1726099590;12/09/24;00:06:30;1.007;0.004;0.119;0.05742133408784866;0.030543262138962746;0.0073303827084600925
01:00:0A:00:00:00:00;1726099591;12/09/24;00:06:31;1.003;0.007;0.113;0.0659734457731247;-0.036651913076639175;-0.0012217304902151227
01:00:0A:00:00:00:00;1726099592;12/09/24;00:06:32;1.015;0.01;0.113;0.05253440886735916;-0.05497787147760391;0.02076941914856434
01:00:0A:00:00:00:00;1726099593;12/09/24;00:06:33;1.025;0.006;0.135;0.05497787147760391;-0.006108652334660292;-0.015882495790719986
01:00:0A:00:00:00:00;1726099594;12/09/24;00:06:34;1.018;0.011;0.141;0.05009094998240471;0.010995574295520782;-0.00855211354792118
01:00:0A:00:00:00:00;1726099595;12/09/24;00:06:35;1.007;-0.005;0.115;0.04642575979232788;0.009773843921720982;0.0
01:00:0A:00:00:00:00;1726099596;12/09/24;00:06:36;1.003;0.006;0.11;0.03787364438176155;-0.0012217304902151227;0.019547687843441963
01:00:0A:00:00:00:00;1726099597;12/09/24;00:06:37;1.009;0.007;0.123;0.0354301817715168;-0.018325956538319588;0.015882495790719986
01:00:0A:00:00:00:00;1726099598;12/09/24;00:06:38;1.008;0.014;0.12;0.03298672288656235;-0.021991148591041565;0.006108652334660292
01:00:0A:00:00:00:00;1726099599;12/09/24;00:06:39;1.005;0.004;0.118;0.025656338781118393;0.00855211354792118;-0.004886921960860491
01:00:0A:00:00:00:00;1726099600;12/09/24;00:06:40;1.003;0.004;0.121;0.024434609338641167;-0.03176499158143997;0.012217304669320583
01:00:0A:00:00:00:00;1726099601;12/09/24;00:06:41;1.01;0.01;0.113;0.012217304669320583;-0.042760565876960754;0.03298672288656235
01:00:0A:00:00:00:00;1726099602;12/09/24;00:06:42;1.019;0.006;0.136;0.02321287989616394;-0.019547687843441963;-0.006108652334660292
01:00:0A:00:00:00:00;1726099603;12/09/24;00:06:43;1.021;0.019;0.129;0.021991148591041565;0.0;-0.02076941914856434
01:00:0A:00:00:00:00;1726099604;12/09/24;00:06:44;1.02;-0.005;0.124;0.010995574295520782;0.015882495790719986;-0.0024434609804302454
01:00:0A:00:00:00:00;1726099605;12/09/24;00:06:45;1.01;-0.004;0.114;0.014660765416920185;-0.010995574295520782;0.00855211354792118
01:00:0A:00:00:00:00;1726099606;12/09/24;00:06:46;1.004;0.01;0.118;-0.0012217304902151227;-0.014660765416920185;0.03298672288656235
01:00:0A:00:00:00:00;1726099607;12/09/24;00:06:47;1.005;0.009;0.123;0.0073303827084600925;-0.03176499158143997;0.010995574295520782
01:00:0A:00:00:00:00;1726099608;12/09/24;00:06:48;1.009;0.014;0.116;0.010995574295520782;-0.009773843921720982;-0.009773843921720982
01:00:0A:00:00:00:00;1726099609;12/09/24;00:06:49;1.009;0.006;0.126;0.0036651913542300463;-0.013439035043120384;0.0036651913542300463
01:00:0A:00:00:00:00;1726099610;12/09/24;00:06:50;1.009;0.004;0.118;0.0073303827084600925;-0.024434609338641167;0.0012217304902151227
01:00:0A:00:00:00:00;1726099611;12/09/24;00:06:51;1.009;0.012;0.127;0.0036651913542300463;-0.012217304669320583;-0.0012217304902151227
01:00:0A:00:00:00:00;1726099612;12/09/24;00:06:52;1.014;0.005;0.128;0.0073303827084600925;0.0;-0.009773843921720982
01:00:0A:00:00:00:00;1726099613;12/09/24;00:06:53;1.019;0.005;0.117;0.0036651913542300463;-0.010995574295520782;0.004886921960860491
01:00:0A:00:00:00:00;1726099614;12/09/24;00:06:54;1.016;0.0;0.12;0.004886921960860491;-0.018325956538319588;0.013439035043120384
01:00:0A:00:00:00:00;1726099615;12/09/24;00:06:55;1.015;0.011;0.127;0.012217304669320583;-0.01710422709584236;0.009773843921720982
01:00:0A:00:00:00:00;1726099616;12/09/24;00:06:56;1.009;0.006;0.127;0.019547687843441963;-0.004886921960860491;0.0073303827084600925
01:00:0A:00:00:00:00;1726099617;12/09/24;00:06:57;1.005;0.009;0.119;0.03787364438176155;-0.0012217304902151227;-0.013439035043120384
01:00:0A:00:00:00:00;1726099618;12/09/24;00:06:58;1.004;0.0;0.116;0.039095375686883926;-0.01710422709584236;0.009773843921720982
01:00:0A:00:00:00:00;1726099619;12/09/24;00:06:59;1.009;0.002;0.122;0.04886921867728233;-0.02321287989616394;0.012217304669320583
01:00:0A:00:00:00:00;1726099620;12/09/24;00:07:00;1.018;0.008;0.123;0.05375614017248154;-0.01710422709584236;0.018325956538319588
01:00:0A:00:00:00:00;1726099621;12/09/24;00:07:01;1.016;0.012;0.128;0.06352998316287994;0.0;0.0036651913542300463
01:00:0A:00:00:00:00;1726099622;12/09/24;00:07:02;1.012;0.002;0.121;0.06719517707824707;0.0036651913542300463;0.006108652334660292
01:00:0A:00:00:00:00;1726099623;12/09/24;00:07:03;1.008;0.008;0.118;0.07452555745840073;-0.009773843921720982;0.006108652334660292
01:00:0A:00:00:00:00;1726099624;12/09/24;00:07:04;1.01;0.003;0.122;0.0757472887635231;-0.015882495790719986;0.019547687843441963
01:00:0A:00:00:00:00;1726099625;12/09/24;00:07:05;1.012;0.005;0.126;0.08796459436416626;-0.013439035043120384;0.00855211354792118
01:00:0A:00:00:00:00;1726099626;12/09/24;00:07:06;1.012;0.006;0.124;0.09162978082895279;-0.012217304669320583;0.009773843921720982
01:00:0A:00:00:00:00;1726099627;12/09/24;00:07:07;1.011;0.003;0.128;0.09407324343919754;-0.0073303827084600925;0.014660765416920185
01:00:0A:00:00:00:00;1726099628;12/09/24;00:07:08;1.014;0.007;0.126;0.10018189996480942;-0.00855211354792118;0.012217304669320583
01:00:0A:00:00:00:00;1726099629;12/09/24;00:07:09;1.012;0.002;0.124;0.10262535512447357;0.0036651913542300463;0.010995574295520782
01:00:0A:00:00:00:00;1726099630;12/09/24;00:07:10;1.01;0.008;0.126;0.10506881773471832;-0.009773843921720982;0.015882495790719986
01:00:0A:00:00:00:00;1726099631;12/09/24;00:07:11;1.01;0.003;0.122;0.10995574295520782;-0.012217304669320583;0.00855211354792118
01:00:0A:00:00:00:00;1726099632;12/09/24;00:07:12;1.015;0.011;0.123;0.10873401165008545;-0.00855211354792118;0.010995574295520782
01:00:0A:00:00:00:00;1726099633;12/09/24;00:07:13;1.016;0.0;0.124;0.10873401165008545;-0.0073303827084600925;0.012217304669320583
01:00:0A:00:00:00:00;1726099634;12/09/24;00:07:14;1.012;0.009;0.122;0.10384709388017654;-0.0036651913542300463;0.018325956538319588
01:00:0A:00:00:00:00;1726099635;12/09/24;00:07:15;1.006;0.009;0.121;0.09651670604944229;-0.00855211354792118;0.024434609338641167
01:00:0A:00:00:00:00;1726099636;12/09/24;00:07:16;1.002;0.009;0.117;0.09896016865968704;-0.02076941914856434;0.010995574295520782
01:00:0A:00:00:00:00;1726099637;12/09/24;00:07:17;1.008;0.012;0.123;0.09162978082895279;-0.02932153083384037;0.013439035043120384
01:00:0A:00:00:00:00;1726099638;12/09/24;00:07:18;1.016;0.004;0.13;0.08918632566928864;-0.01710422709584236;0.0073303827084600925
01:00:0A:00:00:00:00;1726099639;12/09/24;00:07:19;1.019;0.008;0.13;0.07941248267889023;0.012217304669320583;0.0073303827084600925
01:00:0A:00:00:00:00;1726099640;12/09/24;00:07:20;1.015;0.004;0.121;0.0757472887635231;0.0024434609804302454;0.013439035043120384
01:00:0A:00:00:00:00;1726099641;12/09/24;00:07:21;1.009;0.007;0.121;0.07330382615327835;-0.004886921960860491;0.009773843921720982
01:00:0A:00:00:00:00;1726099642;12/09/24;00:07:22;1.006;0.007;0.122;0.06963863223791122;-0.024434609338641167;0.004886921960860491
01:00:0A:00:00:00:00;1726099643;12/09/24;00:07:23;1.003;0.003;0.128;0.06352998316287994;-0.012217304669320583;0.0073303827084600925
01:00:0A:00:00:00:00;1726099644;12/09/24;00:07:24;1.002;-0.028;0.188;-0.0012217304902151227;0.06475171446800232;0.03176499158143997
01:00:0A:00:00:00:00;1726099645;12/09/24;00:07:25;1.012;-0.032;0.182;-0.012217304669320583;-0.024434609338641167;-0.010995574295520782
01:00:0A:00:00:00:00;1726099646;12/09/24;00:07:26;1.011;-0.002;0.124;-0.07452555745840073;-0.09162978082895279;-0.036651913076639175
01:00:0A:00:00:00:00;1726099647;12/09/24;00:07:27;1.015;0.008;0.108;-0.09407324343919754;-0.004886921960860491;-0.012217304669320583
01:00:0A:00:00:00:00;1726099648;12/09/24;00:07:28;1.01;0.002;0.139;-0.09651670604944229;-0.0024434609804302454;0.0073303827084600925
01:00:0A:00:00:00:00;1726099649;12/09/24;00:07:29;1.016;0.009;0.124;-0.07208210229873657;-0.04398229718208313;-0.013439035043120384
01:00:0A:00:00:00:00;1726099650;12/09/24;00:07:30;1.012;0.011;0.116;-0.07941248267889023;-0.0012217304902151227;-0.013439035043120384
01:00:0A:00:00:00:00;1726099651;12/09/24;00:07:31;1.011;0.001;0.138;-0.07941248267889023;0.006108652334660292;-0.0036651913542300463
01:00:0A:00:00:00:00;1726099652;12/09/24;00:07:32;1.009;0.0;0.125;-0.06352998316287994;-0.03420845419168472;-0.0024434609804302454
01:00:0A:00:00:00:00;1726099653;12/09/24;00:07:33;1.012;0.017;0.118;-0.07330382615327835;0.004886921960860491;0.006108652334660292
01:00:0A:00:00:00:00;1726099654;12/09/24;00:07:34;1.011;0.004;0.128;-0.06719517707824707;-0.013439035043120384;0.0024434609804302454
01:00:0A:00:00:00:00;1726099655;12/09/24;00:07:35;1.009;0.006;0.123;-0.04398229718208313;-0.03420845419168472;-0.025656338781118393
01:00:0A:00:00:00:00;1726099656;12/09/24;00:07:36;1.011;-0.022;0.133;-0.045204028487205505;0.009773843921720982;0.042760565876960754
01:00:0A:00:00:00:00;1726099657;12/09/24;00:07:37;1.01;-0.015;0.135;0.030543262138962746;0.006108652334660292;0.0024434609804302454
01:00:0A:00:00:00:00;1726099658;12/09/24;00:07:38;1.008;-0.002;0.155;0.0757472887635231;0.012217304669320583;0.006108652334660292
01:00:0A:00:00:00:00;1726099659;12/09/24;00:07:39;1.009;0.005;0.149;0.11728612333536148;-0.05742133408784866;-0.0024434609804302454
01:00:0A:00:00:00:00;1726099660;12/09/24;00:07:40;1.012;0.0;0.113;0.10018189996480942;-0.013439035043120384;0.014660765416920185
01:00:0A:00:00:00:00;1726099661;12/09/24;00:07:41;1.009;0.002;0.13;0.09529497474431992;0.009773843921720982;-0.006108652334660292
01:00:0A:00:00:00:00;1726099662;12/09/24;00:07:42;1.008;0.008;0.128;0.06963863223791122;-0.01710422709584236;0.02687807008624077
01:00:0A:00:00:00:00;1726099663;12/09/24;00:07:43;1.013;0.0;0.117;0.06719517707824707;-0.015882495790719986;0.010995574295520782
01:00:0A:00:00:00:00;1726099664;12/09/24;00:07:44;1.011;0.005;0.124;0.06352998316287994;-0.0024434609804302454;0.0
01:00:0A:00:00:00:00;1726099665;12/09/24;00:07:45;1.011;0.006;0.129;0.05253440886735916;-0.01710422709584236;0.009773843921720982
01:00:0A:00:00:00:00;1726099666;12/09/24;00:07:46;1.011;-0.002;0.127;0.04886921867728233;0.0012217304902151227;0.01710422709584236
01:00:0A:00:00:00:00;1726099667;12/09/24;00:07:47;1.01;0.005;0.129;0.08918632566928864;0.0;-0.0012217304902151227
01:00:0A:00:00:00:00;1726099668;12/09/24;00:07:48;1.011;0.013;0.13;0.14049901068210602;-0.028099799528717995;-0.0036651913542300463
01:00:0A:00:00:00:00;1726099669;12/09/24;00:07:49;1.011;0.0;0.128;0.11239919811487198;-0.009773843921720982;0.039095375686883926
01:00:0A:00:00:00:00;1726099670;12/09/24;00:07:50;1.012;-0.005;0.124;0.12339477241039276;-0.006108652334660292;0.010995574295520782
01:00:0A:00:00:00:00;1726099671;12/09/24;00:07:51;1.009;0.013;0.123;0.1160643920302391;0.0;0.0012217304902151227
01:00:0A:00:00:00:00;1726099672;12/09/24;00:07:52;1.012;0.005;0.121;0.09285151958465576;-0.012217304669320583;0.02687807008624077
01:00:0A:00:00:00:00;1726099673;12/09/24;00:07:53;1.008;0.004;0.138;0.13927726447582245;-0.004886921960860491;0.0
01:00:0A:00:00:00:00;1726099674;12/09/24;00:07:54;1.014;0.008;0.124;0.12828169763088226;-0.018325956538319588;0.018325956538319588
01:00:0A:00:00:00:00;1726099675;12/09/24;00:07:55;1.016;0.0;0.127;0.13072516024112701;0.006108652334660292;0.018325956538319588
01:00:0A:00:00:00:00;1726099676;12/09/24;00:07:56;1.01;0.008;0.126;0.14782939851284027;-0.015882495790719986;0.030543262138962746
01:00:0A:00:00:00:00;1726099677;12/09/24;00:07:57;1.012;-0.002;0.118;0.1417207270860672;-0.018325956538319588;0.028099799528717995
01:00:0A:00:00:00:00;1726099678;12/09/24;00:07:58;1.01;0.008;0.126;0.15515977144241333;-0.00855211354792118;0.00855211354792118
01:00:0A:00:00:00:00;1726099679;12/09/24;00:07:59;1.011;0.013;0.127;0.13927726447582245;-0.00855211354792118;0.014660765416920185
01:00:0A:00:00:00:00;1726099680;12/09/24;00:08:00;1.01;0.005;0.129;0.13072516024112701;-0.004886921960860491;0.0036651913542300463
01:00:0A:00:00:00:00;1726099681;12/09/24;00:08:01;1.013;0.007;0.125;0.12339477241039276;-0.006108652334660292;0.009773843921720982
01:00:0A:00:00:00:00;1726099682;12/09/24;00:08:02;1.01;0.005;0.124;0.10995574295520782;-0.0036651913542300463;0.0036651913542300463
01:00:0A:00:00:00:00;1726099683;12/09/24;00:08:03;1.01;0.018;0.127;0.08552113175392151;-0.014660765416920185;0.02321287989616394
01:00:0A:00:00:00:00;1726099684;12/09/24;00:08:04;1.01;0.008;0.123;0.07696902006864548;-0.015882495790719986;0.006108652334660292
01:00:0A:00:00:00:00;1726099685;12/09/24;00:08:05;1.011;0.011;0.12;0.06352998316287994;-0.0073303827084600925;0.004886921960860491
01:00:0A:00:00:00:00;1726099686;12/09/24;00:08:06;1.013;0.003;0.127;0.05009094998240471;-0.00855211354792118;0.024434609338641167
01:00:0A:00:00:00:00;1726099687;12/09/24;00:08:07;1.012;0.0;0.126;0.06352998316287994;-0.015882495790719986;0.0012217304902151227
01:00:0A:00:00:00:00;1726099688;12/09/24;00:08:08;1.01;0.01;0.122;0.05742133408784866;-0.0024434609804302454;-0.0024434609804302454
01:00:0A:00:00:00:00;1726099689;12/09/24;00:08:09;1.01;0.0;0.125;0.045204028487205505;-0.006108652334660292;0.01710422709584236
01:00:0A:00:00:00:00;1726099690;12/09/24;00:08:10;1.011;0.0;0.123;0.05497787147760391;-0.015882495790719986;0.0024434609804302454
01:00:0A:00:00:00:00;1726099691;12/09/24;00:08:11;1.01;0.009;0.122;0.04398229718208313;-0.012217304669320583;0.015882495790719986
01:00:0A:00:00:00:00;1726099692;12/09/24;00:08:12;1.011;0.01;0.123;0.04764748737215996;-0.024434609338641167;-0.013439035043120384
01:00:0A:00:00:00:00;1726099693;12/09/24;00:08:13;1.015;0.008;0.122;0.02687807008624077;-0.006108652334660292;0.010995574295520782
01:00:0A:00:00:00:00;1726099694;12/09/24;00:08:14;1.016;-0.006;0.129;0.03420845419168472;-0.006108652334660292;0.0024434609804302454
01:00:0A:00:00:00:00;1726099695;12/09/24;00:08:15;1.012;0.012;0.122;0.028099799528717995;-0.00855211354792118;0.006108652334660292
01:00:0A:00:00:00:00;1726099696;12/09/24;00:08:16;1.011;0.002;0.123;0.010995574295520782;0.0;0.028099799528717995
01:00:0A:00:00:00:00;1726099697;12/09/24;00:08:17;1.011;0.01;0.12;0.02687807008624077;-0.018325956538319588;-0.013439035043120384
01:00:0A:00:00:00:00;1726099698;12/09/24;00:08:18;1.01;0.009;0.123;0.012217304669320583;-0.00855211354792118;0.006108652334660292
01:00:0A:00:00:00:00;1726099699;12/09/24;00:08:19;1.011;-0.001;0.126;0.018325956538319588;-0.010995574295520782;0.0024434609804302454
01:00:0A:00:00:00:00;1726099700;12/09/24;00:08:20;1.011;0.004;0.123;0.024434609338641167;-0.010995574295520782;-0.0036651913542300463
01:00:0A:00:00:00:00;1726099701;12/09/24;00:08:21;1.01;0.009;0.123;0.010995574295520782;-0.009773843921720982;0.013439035043120384
01:00:0A:00:00:00:00;1726099702;12/09/24;00:08:22;1.01;0.0;0.12;0.018325956538319588;-0.014660765416920185;-0.0012217304902151227
01:00:0A:00:00:00:00;1726099703;12/09/24;00:08:23;1.009;0.005;0.123;0.013439035043120384;-0.004886921960860491;0.006108652334660292
01:00:0A:00:00:00:00;1726099704;12/09/24;00:08:24;1.011;0.009;0.118;0.015882495790719986;-0.02687807008624077;-0.0036651913542300463
01:00:0A:00:00:00:00;1726099705;12/09/24;00:08:25;1.011;0.007;0.122;-0.00855211354792118;0.009773843921720982;0.021991148591041565
01:00:0A:00:00:00:00;1726099706;12/09/24;00:08:26;1.01;-0.002;0.133;0.014660765416920185;-0.012217304669320583;-0.006108652334660292
01:00:0A:00:00:00:00;1726099707;12/09/24;00:08:27;1.013;0.01;0.117;0.01710422709584236;-0.025656338781118393;-0.00855211354792118
01:00:0A:00:00:00:00;1726099708;12/09/24;00:08:28;1.01;0.003;0.123;-0.006108652334660292;0.0024434609804302454;0.024434609338641167
01:00:0A:00:00:00:00;1726099709;12/09/24;00:08:29;1.009;0.0;0.131;0.015882495790719986;-0.014660765416920185;-0.0073303827084600925
01:00:0A:00:00:00:00;1726099710;12/09/24;00:08:30;1.01;0.013;0.121;0.010995574295520782;-0.02076941914856434;-0.0012217304902151227
01:00:0A:00:00:00:00;1726099711;12/09/24;00:08:31;1.013;0.002;0.121;-0.0012217304902151227;-0.006108652334660292;0.0073303827084600925
01:00:0A:00:00:00:00;1726099712;12/09/24;00:08:32;1.012;-0.001;0.132;0.009773843921720982;-0.010995574295520782;-0.004886921960860491
01:00:0A:00:00:00:00;1726099712;12/09/24;00:08:32;1.012;0.009;0.122;0.006108652334660292;-0.018325956538319588;0.004886921960860491
01:00:0A:00:00:00:00;1726099713;12/09/24;00:08:33;1.012;0.002;0.122;-0.0073303827084600925;0.004886921960860491;0.01710422709584236
01:00:0A:00:00:00:00;1726099714;12/09/24;00:08:34;1.009;0.005;0.129;0.0073303827084600925;-0.015882495790719986;-0.0073303827084600925
01:00:0A:00:00:00:00;1726099715;12/09/24;00:08:35;1.01;0.008;0.12;0.0024434609804302454;-0.01710422709584236;-0.0024434609804302454
01:00:0A:00:00:00:00;1726099716;12/09/24;00:08:36;1.01;0.001;0.124;-0.006108652334660292;-0.0024434609804302454;0.0073303827084600925
01:00:0A:00:00:00:00;1726099717;12/09/24;00:08:37;1.01;0.004;0.125;0.0012217304902151227;-0.012217304669320583;-0.0024434609804302454
01:00:0A:00:00:00:00;1726099718;12/09/24;00:08:38;1.011;0.009;0.122;-0.0012217304902151227;-0.015882495790719986;0.0012217304902151227
01:00:0A:00:00:00:00;1726099719;12/09/24;00:08:39;1.012;0.004;0.124;-0.006108652334660292;-0.010995574295520782;0.004886921960860491
01:00:0A:00:00:00:00;1726099720;12/09/24;00:08:40;1.013;0.001;0.125;0.0;-0.010995574295520782;-0.006108652334660292
01:00:0A:00:00:00:00;1726099721;12/09/24;00:08:41;1.012;0.007;0.126;-0.004886921960860491;-0.013439035043120384;0.004886921960860491
01:00:0A:00:00:00:00;1726099722;12/09/24;00:08:42;1.011;0.001;0.122;-0.00855211354792118;-0.0073303827084600925;0.009773843921720982
01:00:0A:00:00:00:00;1726099723;12/09/24;00:08:43;1.009;0.006;0.126;-0.0012217304902151227;-0.00855211354792118;-0.004886921960860491
01:00:0A:00:00:00:00;1726099724;12/09/24;00:08:44;1.01;0.006;0.122;-0.006108652334660292;-0.01710422709584236;0.0024434609804302454
01:00:0A:00:00:00:00;1726099725;12/09/24;00:08:45;1.011;0.001;0.122;-0.0073303827084600925;-0.006108652334660292;0.0024434609804302454
01:00:0A:00:00:00:00;1726099726;12/09/24;00:08:46;1.01;0.004;0.127;-0.0036651913542300463;-0.013439035043120384;0.0
01:00:0A:00:00:00:00;1726099727;12/09/24;00:08:47;1.012;0.006;0.122;-0.006108652334660292;-0.013439035043120384;0.0024434609804302454
01:00:0A:00:00:00:00;1726099728;12/09/24;00:08:48;1.012;0.003;0.126;-0.0073303827084600925;-0.0073303827084600925;0.0024434609804302454
01:00:0A:00:00:00:00;1726099729;12/09/24;00:08:49;1.012;0.003;0.123;-0.0024434609804302454;-0.014660765416920185;-0.0024434609804302454
01:00:0A:00:00:00:00;1726099730;12/09/24;00:08:50;1.012;0.005;0.124;-0.0073303827084600925;-0.010995574295520782;0.0036651913542300463
01:00:0A:00:00:00:00;1726099731;12/09/24;00:08:51;1.01;0.003;0.126;-0.0073303827084600925;-0.012217304669320583;0.0036651913542300463
01:00:0A:00:00:00:00;1726099732;12/09/24;00:08:52;1.011;0.005;0.122;-0.004886921960860491;-0.010995574295520782;-0.0024434609804302454
01:00:0A:00:00:00:00;1726099733;12/09/24;00:08:53;1.012;0.003;0.125;-0.0073303827084600925;-0.013439035043120384;0.0036651913542300463
01:00:0A:00:00:00:00;1726099734;12/09/24;00:08:54;1.011;0.004;0.122;-0.0073303827084600925;-0.013439035043120384;0.0024434609804302454
01:00:0A:00:00:00:00;1726099735;12/09/24;00:08:55;1.011;0.004;0.127;-0.0073303827084600925;-0.0073303827084600925;0.0012217304902151227
01:00:0A:00:00:00:00;1726099736;12/09/24;00:08:56;1.011;0.006;0.122;-0.0073303827084600925;-0.015882495790719986;0.0012217304902151227
01:00:0A:00:00:00:00;1726099737;12/09/24;00:08:57;1.012;0.001;0.123;-0.009773843921720982;-0.00855211354792118;0.0024434609804302454
01:00:0A:00:00:00:00;1726099738;12/09/24;00:08:58;1.012;0.005;0.125;-0.00855211354792118;-0.013439035043120384;0.0
01:00:0A:00:00:00:00;1726099739;12/09/24;00:08:59;1.011;0.004;0.122;-0.012217304669320583;-0.012217304669320583;0.004886921960860491
01:00:0A:00:00:00:00;1726099740;12/09/24;00:09:00;1.011;0.005;0.125;-0.010995574295520782;-0.00855211354792118;-0.0012217304902151227
01:00:0A:00:00:00:00;1726099741;12/09/24;00:09:01;1.011;0.005;0.123;-0.010995574295520782;-0.014660765416920185;-0.0012217304902151227
01:00:0A:00:00:00:00;1726099742;12/09/24;00:09:02;1.01;0.003;0.125;-0.012217304669320583;-0.009773843921720982;-0.0024434609804302454
01:00:0A:00:00:00:00;1726099743;12/09/24;00:09:03;1.011;0.002;0.126;-0.013439035043120384;-0.013439035043120384;0.0036651913542300463
01:00:0A:00:00:00:00;1726099744;12/09/24;00:09:04;1.011;0.005;0.123;-0.012217304669320583;-0.010995574295520782;-0.0012217304902151227
01:00:0A:00:00:00:00;1726099745;12/09/24;00:09:05;1.011;0.005;0.125;-0.014660765416920185;-0.013439035043120384;0.004886921960860491
01:00:0A:00:00:00:00;1726099746;12/09/24;00:09:06;1.013;0.004;0.123;-0.010995574295520782;-0.013439035043120384;-0.0024434609804302454
01:00:0A:00:00:00:00;1726099747;12/09/24;00:09:07;1.012;0.004;0.126;-0.014660765416920185;-0.0073303827084600925;0.004886921960860491
01:00:0A:00:00:00:00;1726099748;12/09/24;00:09:08;1.012;0.005;0.125;-0.009773843921720982;-0.013439035043120384;-0.0012217304902151227
01:00:0A:00:00:00:00;1726099749;12/09/24;00:09:09;1.01;0.005;0.125;-0.009773843921720982;-0.0073303827084600925;0.0012217304902151227
01:00:0A:00:00:00:00;1726099750;12/09/24;00:09:10;1.01;0.003;0.125;-0.0073303827084600925;-0.010995574295520782;-0.0024434609804302454
01:00:0A:00:00:00:00;1726099751;12/09/24;00:09:11;1.01;0.003;0.123;-0.0073303827084600925;-0.014660765416920185;0.0024434609804302454
01:00:0A:00:00:00:00;1726099752;12/09/24;00:09:12;1.011;0.003;0.125;-0.006108652334660292;-0.013439035043120384;0.004886921960860491
01:00:0A:00:00:00:00;1726099753;12/09/24;00:09:13;1.011;0.006;0.124;-0.0036651913542300463;-0.013439035043120384;0.0024434609804302454
01:00:0A:00:00:00:00;1726099754;12/09/24;00:09:14;1.012;0.004;0.124;-0.0036651913542300463;-0.00855211354792118;0.0012217304902151227
01:00:0A:00:00:00:00;1726099755;12/09/24;00:09:15;1.011;0.004;0.124;-0.0012217304902151227;-0.013439035043120384;0.0
01:00:0A:00:00:00:00;1726099756;12/09/24;00:09:16;1.011;0.002;0.123;-0.0024434609804302454;-0.010995574295520782;0.004886921960860491
01:00:0A:00:00:00:00;1726099757;12/09/24;00:09:17;1.013;0.005;0.125;-0.0012217304902151227;-0.012217304669320583;0.0036651913542300463
01:00:0A:00:00:00:00;1726099758;12/09/24;00:09:18;1.013;0.006;0.124;0.0;-0.009773843921720982;0.0
01:00:0A:00:00:00:00;1726099759;12/09/24;00:09:19;1.011;0.005;0.123;0.0;-0.006108652334660292;-0.0012217304902151227
01:00:0A:00:00:00:00;1726099760;12/09/24;00:09:20;1.009;0.003;0.122;0.0;-0.010995574295520782;0.0
01:00:0A:00:00:00:00;1726099761;12/09/24;00:09:21;1.009;0.003;0.122;-0.0012217304902151227;-0.012217304669320583;0.004886921960860491
01:00:0A:00:00:00:00;1726099762;12/09/24;00:09:22;1.01;0.006;0.126;0.024434609338641167;-0.03176499158143997;0.004886921960860491
01:00:0A:00:00:00:00;1726099763;12/09/24;00:09:23;1.016;0.006;0.101;0.04398229718208313;0.006108652334660292;0.0073303827084600925
01:00:0A:00:00:00:00;1726099764;12/09/24;00:09:24;1.012;0.005;0.124;0.08429940044879913;0.018325956538319588;0.009773843921720982
01:00:0A:00:00:00:00;1726099765;12/09/24;00:09:25;1.011;0.003;0.137;0.08307767659425735;-0.015882495790719986;0.010995574295520782
01:00:0A:00:00:00:00;1726099766;12/09/24;00:09:26;1.012;0.004;0.115;0.080634206533432;-0.02932153083384037;0.013439035043120384
01:00:0A:00:00:00:00;1726099767;12/09/24;00:09:27;1.012;0.003;0.119;0.07208210229873657;0.010995574295520782;0.004886921960860491
01:00:0A:00:00:00:00;1726099768;12/09/24;00:09:28;1.009;0.008;0.132;0.06963863223791122;-0.004886921960860491;0.0073303827084600925
01:00:0A:00:00:00:00;1726099769;12/09/24;00:09:29;1.011;0.001;0.118;0.06719517707824707;-0.02932153083384037;0.013439035043120384
01:00:0A:00:00:00:00;1726099770;12/09/24;00:09:30;1.01;0.002;0.117;0.0659734457731247;0.0012217304902151227;0.0036651913542300463
01:00:0A:00:00:00:00;1726099771;12/09/24;00:09:31;1.011;0.007;0.132;0.06108652427792549;-0.0073303827084600925;0.009773843921720982
01:00:0A:00:00:00:00;1726099772;12/09/24;00:09:32;1.013;0.003;0.122;0.059864792972803116;-0.02687807008624077;0.012217304669320583
01:00:0A:00:00:00:00;1726099773;12/09/24;00:09:33;1.013;0.0;0.117;0.05864306166768074;0.0;0.004886921960860491
01:00:0A:00:00:00:00;1726099774;12/09/24;00:09:34;1.011;0.002;0.128;0.080634206533432;-0.004886921960860491;0.019547687843441963
01:00:0A:00:00:00:00;1726099775;12/09/24;00:09:35;1.012;-0.012;0.128;0.15271630883216858;-0.019547687843441963;0.028099799528717995
01:00:0A:00:00:00:00;1726099776;12/09/24;00:09:36;1.013;0.0;0.119;0.27611109614372253;-0.00855211354792118;0.0036651913542300463
01:00:0A:00:00:00:00;1726099777;12/09/24;00:09:37;1.01;0.005;0.125;0.2895500957965851;0.012217304669320583;0.036651913076639175
01:00:0A:00:00:00:00;1726099778;12/09/24;00:09:38;1.009;-0.001;0.129;0.26511549949645996;-0.013439035043120384;0.03176499158143997
01:00:0A:00:00:00:00;1726099779;12/09/24;00:09:39;1.01;0.003;0.119;0.2638937830924988;-0.015882495790719986;0.018325956538319588
01:00:0A:00:00:00:00;1726099780;12/09/24;00:09:40;1.011;0.007;0.122;0.24190263450145721;0.004886921960860491;0.030543262138962746
01:00:0A:00:00:00:00;1726099781;12/09/24;00:09:41;1.013;0.003;0.132;0.23579397797584534;-0.00855211354792118;0.030543262138962746
01:00:0A:00:00:00:00;1726099782;12/09/24;00:09:42;1.013;0.001;0.122;0.23579397797584534;-0.01710422709584236;0.02321287989616394
01:00:0A:00:00:00:00;1726099783;12/09/24;00:09:43;1.012;0.005;0.122;0.22602014243602753;0.006108652334660292;0.018325956538319588
01:00:0A:00:00:00:00;1726099784;12/09/24;00:09:44;1.011;0.008;0.13;0.21380282938480377;-0.006108652334660292;0.02932153083384037
01:00:0A:00:00:00:00;1726099785;12/09/24;00:09:45;1.012;0.001;0.122;0.21380282938480377;-0.014660765416920185;0.02321287989616394
01:00:0A:00:00:00:00;1726099786;12/09/24;00:09:46;1.011;0.007;0.121;0.20891590416431427;0.0012217304902151227;0.015882495790719986
01:00:0A:00:00:00:00;1726099787;12/09/24;00:09:47;1.01;0.007;0.128;0.19792033731937408;-0.004886921960860491;0.024434609338641167
01:00:0A:00:00:00:00;1726099788;12/09/24;00:09:48;1.011;0.001;0.122;0.19425514340400696;-0.013439035043120384;0.025656338781118393
01:00:0A:00:00:00:00;1726099789;12/09/24;00:09:49;1.011;0.006;0.121;0.19425514340400696;-0.0036651913542300463;0.013439035043120384
01:00:0A:00:00:00:00;1726099790;12/09/24;00:09:50;1.01;0.008;0.126;0.1820378452539444;-0.004886921960860491;0.024434609338641167
01:00:0A:00:00:00:00;1726099791;12/09/24;00:09:51;1.011;0.002;0.124;0.17959438264369965;-0.012217304669320583;0.02321287989616394
01:00:0A:00:00:00:00;1726099792;12/09/24;00:09:52;1.011;0.005;0.122;0.18081611394882202;-0.0073303827084600925;0.013439035043120384
01:00:0A:00:00:00:00;1726099793;12/09/24;00:09:53;1.012;0.006;0.123;0.16982054710388184;-0.0036651913542300463;0.02076941914856434
01:00:0A:00:00:00:00;1726099794;12/09/24;00:09:54;1.012;0.003;0.124;0.16859880089759827;-0.010995574295520782;0.02076941914856434
01:00:0A:00:00:00:00;1726099795;12/09/24;00:09:55;1.012;0.004;0.122;0.16982054710388184;-0.006108652334660292;0.013439035043120384
01:00:0A:00:00:00:00;1726099796;12/09/24;00:09:56;1.011;0.007;0.123;0.16249015927314758;-0.006108652334660292;0.019547687843441963
01:00:0A:00:00:00:00;1726099797;12/09/24;00:09:57;1.011;0.002;0.123;0.16004669666290283;-0.0073303827084600925;0.02076941914856434
01:00:0A:00:00:00:00;1726099798;12/09/24;00:09:58;1.011;0.004;0.122;0.16371189057826996;-0.010995574295520782;0.013439035043120384
01:00:0A:00:00:00:00;1726099799;12/09/24;00:09:59;1.01;0.004;0.122;0.1563815027475357;-0.004886921960860491;0.019547687843441963
01:00:0A:00:00:00:00;1726099800;12/09/24;00:10:00;1.011;0.003;0.126;0.15393804013729095;-0.0073303827084600925;0.019547687843441963
01:00:0A:00:00:00:00;1726099801;12/09/24;00:10:01;1.011;0.002;0.122;0.1563815027475357;-0.012217304669320583;0.015882495790719986
01:00:0A:00:00:00:00;1726099802;12/09/24;00:10:02;1.011;0.005;0.122;0.1514945775270462;-0.0024434609804302454;0.015882495790719986
01:00:0A:00:00:00:00;1726099803;12/09/24;00:10:03;1.012;0.002;0.124;0.14905111491680145;-0.010995574295520782;0.019547687843441963
01:00:0A:00:00:00:00;1726099804;12/09/24;00:10:04;1.011;0.004;0.122;0.15027284622192383;-0.00855211354792118;0.014660765416920185
01:00:0A:00:00:00:00;1726099805;12/09/24;00:10:05;1.012;0.004;0.122;0.14538592100143433;-0.006108652334660292;0.01710422709584236
01:00:0A:00:00:00:00;1726099806;12/09/24;00:10:06;1.013;0.004;0.124;0.14416420459747314;-0.009773843921720982;0.015882495790719986
01:00:0A:00:00:00:00;1726099807;12/09/24;00:10:07;1.011;0.003;0.123;0.1417207270860672;-0.00855211354792118;0.01710422709584236
01:00:0A:00:00:00:00;1726099808;12/09/24;00:10:08;1.011;0.004;0.122;0.14049901068210602;-0.0073303827084600925;0.015882495790719986
01:00:0A:00:00:00:00;1726099809;12/09/24;00:10:09;1.01;0.004;0.123;0.13561207056045532;-0.006108652334660292;0.015882495790719986
01:00:0A:00:00:00:00;1726099810;12/09/24;00:10:10;1.011;0.004;0.123;0.13561207056045532;-0.013439035043120384;0.014660765416920185
01:00:0A:00:00:00:00;1726099811;12/09/24;00:10:11;1.011;0.003;0.123;0.13316862285137177;-0.006108652334660292;0.013439035043120384
01:00:0A:00:00:00:00;1726099812;12/09/24;00:10:12;1.011;0.004;0.125;0.13072516024112701;-0.0073303827084600925;0.014660765416920185
01:00:0A:00:00:00:00;1726099813;12/09/24;00:10:13;1.011;0.002;0.122;0.1270599663257599;-0.00855211354792118;0.018325956538319588
01:00:0A:00:00:00:00;1726099814;12/09/24;00:10:14;1.011;0.004;0.123;0.12828169763088226;-0.0073303827084600925;0.010995574295520782
01:00:0A:00:00:00:00;1726099815;12/09/24;00:10:15;1.01;0.005;0.124;0.12217304855585098;-0.00855211354792118;0.01710422709584236
01:00:0A:00:00:00:00;1726099816;12/09/24;00:10:16;1.011;0.003;0.123;0.12339477241039276;-0.010995574295520782;0.012217304669320583
01:00:0A:00:00:00:00;1726099817;12/09/24;00:10:17;1.012;0.004;0.123;0.12095131725072861;-0.006108652334660292;0.013439035043120384
01:00:0A:00:00:00:00;1726099818;12/09/24;00:10:18;1.012;0.003;0.124;0.11850785464048386;-0.00855211354792118;0.014660765416920185
01:00:0A:00:00:00:00;1726099819;12/09/24;00:10:19;1.011;0.002;0.123;0.11728612333536148;-0.009773843921720982;0.013439035043120384
01:00:0A:00:00:00:00;1726099820;12/09/24;00:10:20;1.012;0.003;0.124;0.11484266817569733;-0.00855211354792118;0.013439035043120384
01:00:0A:00:00:00:00;1726099821;12/09/24;00:10:21;1.011;0.004;0.124;0.11362093687057495;-0.00855211354792118;0.012217304669320583
01:00:0A:00:00:00:00;1726099822;12/09/24;00:10:22;1.01;0.003;0.123;0.10995574295520782;-0.00855211354792118;0.013439035043120384
01:00:0A:00:00:00:00;1726099823;12/09/24;00:10:23;1.012;0.002;0.122;0.10873401165008545;-0.009773843921720982;0.010995574295520782
01:00:0A:00:00:00:00;1726099824;12/09/24;00:10:24;1.011;0.005;0.123;0.10506881773471832;-0.00855211354792118;0.013439035043120384
01:00:0A:00:00:00:00;1726099825;12/09/24;00:10:25;1.011;0.003;0.124;0.10262535512447357;-0.009773843921720982;0.013439035043120384
01:00:0A:00:00:00:00;1726099826;12/09/24;00:10:26;1.01;0.005;0.123;0.10262535512447357;-0.00855211354792118;0.00855211354792118
01:00:0A:00:00:00:00;1726099827;12/09/24;00:10:27;1.012;0.004;0.122;0.09773843735456467;-0.0073303827084600925;0.013439035043120384
01:00:0A:00:00:00:00;1726099828;12/09/24;00:10:28;1.012;0.002;0.123;0.09651670604944229;-0.010995574295520782;0.012217304669320583
01:00:0A:00:00:00:00;1726099829;12/09/24;00:10:29;1.012;0.005;0.122;0.09407324343919754;-0.009773843921720982;0.012217304669320583
01:00:0A:00:00:00:00;1726099830;12/09/24;00:10:30;1.011;0.003;0.124;0.09162978082895279;-0.00855211354792118;0.010995574295520782
01:00:0A:00:00:00:00;1726099831;12/09/24;00:10:31;1.012;0.004;0.123;0.08918632566928864;-0.009773843921720982;0.009773843921720982
01:00:0A:00:00:00:00;1726099832;12/09/24;00:10:32;1.011;0.002;0.123;0.08674286305904388;-0.00855211354792118;0.009773843921720982
01:00:0A:00:00:00:00;1726099833;12/09/24;00:10:33;1.016;0.025;0.114;0.2015855312347412;-0.030543262138962746;-0.009773843921720982
01:00:0A:00:00:00:00;1726099834;12/09/24;00:10:34;1.013;0.025;0.099;0.3090977966785431;0.01710422709584236;0.045204028487205505
01:00:0A:00:00:00:00;1726099835;12/09/24;00:10:35;1.01;0.003;0.14;0.3176499307155609;0.03298672288656235;0.04886921867728233
01:00:0A:00:00:00:00;1726099836;12/09/24;00:10:36;1.011;0.002;0.137;0.3237585723400116;-0.04764748737215996;0.0354301817715168
01:00:0A:00:00:00:00;1726099837;12/09/24;00:10:37;1.015;0.0;0.102;0.3066543638706207;0.0;0.028099799528717995
01:00:0A:00:00:00:00;1726099838;12/09/24;00:10:38;1.01;0.012;0.134;0.29077184200286865;0.030543262138962746;0.014660765416920185
01:00:0A:00:00:00:00;1726099839;12/09/24;00:10:39;1.011;0.007;0.127;0.26511549949645996;-0.03176499158143997;0.05253440886735916
01:00:0A:00:00:00:00;1726099840;12/09/24;00:10:40;1.012;-0.008;0.112;0.27000245451927185;-0.006108652334660292;0.025656338781118393
01:00:0A:00:00:00:00;1726099841;12/09/24;00:10:41;1.01;0.014;0.128;0.2675589621067047;0.006108652334660292;0.0036651913542300463
01:00:0A:00:00:00:00;1726099842;12/09/24;00:10:42;1.011;0.011;0.125;0.23090705275535583;-0.012217304669320583;0.05375614017248154
01:00:0A:00:00:00:00;1726099843;12/09/24;00:10:43;1.013;-0.01;0.122;0.24190263450145721;-0.009773843921720982;0.024434609338641167
01:00:0A:00:00:00:00;1726099844;12/09/24;00:10:44;1.012;0.015;0.122;0.24434609711170197;-0.0073303827084600925;0.004886921960860491
01:00:0A:00:00:00:00;1726099845;12/09/24;00:10:45;1.011;0.008;0.123;0.2076941877603531;0.0012217304902151227;0.04886921867728233
01:00:0A:00:00:00:00;1726099846;12/09/24;00:10:46;1.012;-0.004;0.127;0.22357667982578278;-0.012217304669320583;0.01710422709584236
01:00:0A:00:00:00:00;1726099847;12/09/24;00:10:47;1.013;0.01;0.117;0.22113320231437683;-0.013439035043120384;0.009773843921720982
01:00:0A:00:00:00:00;1726099848;12/09/24;00:10:48;1.011;0.004;0.123;0.19425514340400696;0.0073303827084600925;0.0354301817715168
01:00:0A:00:00:00:00;1726099849;12/09/24;00:10:49;1.011;-0.001;0.128;0.20402899384498596;-0.012217304669320583;0.02076941914856434
01:00:0A:00:00:00:00;1726099850;12/09/24;00:10:50;1.012;0.008;0.117;0.2015855312347412;-0.013439035043120384;0.015882495790719986
01:00:0A:00:00:00:00;1726099851;12/09/24;00:10:51;1.011;0.003;0.123;0.18448130786418915;0.006108652334660292;0.02932153083384037
01:00:0A:00:00:00:00;1726099852;12/09/24;00:10:52;1.011;0.0;0.129;0.19058994948863983;-0.013439035043120384;0.018325956538319588
01:00:0A:00:00:00:00;1726099853;12/09/24;00:10:53;1.012;0.004;0.12;0.1869247555732727;-0.013439035043120384;0.02076941914856434
01:00:0A:00:00:00:00;1726099854;12/09/24;00:10:54;1.012;0.001;0.123;0.17959438264369965;0.006108652334660292;0.019547687843441963
01:00:0A:00:00:00:00;1726099855;12/09/24;00:10:55;1.011;0.004;0.128;0.17837265133857727;-0.013439035043120384;0.019547687843441963
01:00:0A:00:00:00:00;1726099856;12/09/24;00:10:56;1.012;0.002;0.121;0.17348572611808777;-0.012217304669320583;0.02321287989616394
01:00:0A:00:00:00:00;1726099857;12/09/24;00:10:57;1.012;0.003;0.124;0.17348572611808777;0.0012217304902151227;0.013439035043120384
01:00:0A:00:00:00:00;1726099858;12/09/24;00:10:58;1.012;0.006;0.126;0.1661553531885147;-0.010995574295520782;0.02076941914856434
01:00:0A:00:00:00:00;1726099859;12/09/24;00:10:59;1.011;0.0;0.121;0.16371189057826996;-0.010995574295520782;0.019547687843441963
01:00:0A:00:00:00:00;1726099860;12/09/24;00:11:00;1.011;0.004;0.123;0.16371189057826996;-0.0024434609804302454;0.012217304669320583
01:00:0A:00:00:00:00;1726099861;12/09/24;00:11:01;1.012;0.005;0.126;0.15515977144241333;-0.00855211354792118;0.021991148591041565
01:00:0A:00:00:00:00;1726099862;12/09/24;00:11:02;1.013;0.002;0.122;0.15515977144241333;-0.010995574295520782;0.018325956538319588
01:00:0A:00:00:00:00;1726099863;12/09/24;00:11:03;1.012;0.005;0.124;0.15393804013729095;-0.0036651913542300463;0.010995574295520782
01:00:0A:00:00:00:00;1726099864;12/09/24;00:11:04;1.01;0.005;0.124;0.14538592100143433;-0.010995574295520782;0.02076941914856434
01:00:0A:00:00:00:00;1726099865;12/09/24;00:11:05;1.011;0.0;0.122;0.14416420459747314;-0.00855211354792118;0.018325956538319588
01:00:0A:00:00:00:00;1726099866;12/09/24;00:11:06;1.011;0.006;0.124;0.14538592100143433;-0.0073303827084600925;0.010995574295520782
01:00:0A:00:00:00:00;1726099867;12/09/24;00:11:07;1.012;0.005;0.123;0.13561207056045532;-0.009773843921720982;0.019547687843441963
01:00:0A:00:00:00:00;1726099868;12/09/24;00:11:08;1.012;0.002;0.124;0.13561207056045532;-0.0073303827084600925;0.015882495790719986
01:00:0A:00:00:00:00;1726099869;12/09/24;00:11:09;1.011;0.004;0.123;0.13439035415649414;-0.009773843921720982;0.012217304669320583
01:00:0A:00:00:00:00;1726099870;12/09/24;00:11:10;1.012;0.004;0.123;0.1270599663257599;-0.006108652334660292;0.01710422709584236
01:00:0A:00:00:00:00;1726099871;12/09/24;00:11:11;1.01;0.003;0.123;0.1258382350206375;-0.009773843921720982;0.014660765416920185
01:00:0A:00:00:00:00;1726099872;12/09/24;00:11:12;1.011;0.004;0.123;0.12461651116609573;-0.009773843921720982;0.012217304669320583
01:00:0A:00:00:00:00;1726099873;12/09/24;00:11:13;1.01;0.005;0.124;0.11850785464048386;-0.0073303827084600925;0.015882495790719986
01:00:0A:00:00:00:00;1726099874;12/09/24;00:11:14;1.011;0.002;0.124;0.1160643920302391;-0.00855211354792118;0.014660765416920185
01:00:0A:00:00:00:00;1726099875;12/09/24;00:11:15;1.011;0.005;0.122;0.1160643920302391;-0.009773843921720982;0.009773843921720982
01:00:0A:00:00:00:00;1726099876;12/09/24;00:11:16;1.011;0.004;0.123;0.10873401165008545;-0.0073303827084600925;0.015882495790719986
01:00:0A:00:00:00:00;1726099877;12/09/24;00:11:17;1.011;0.002;0.125;0.10873401165008545;-0.010995574295520782;0.012217304669320583
01:00:0A:00:00:00:00;1726099878;12/09/24;00:11:18;1.011;0.005;0.123;0.1062905490398407;-0.00855211354792118;0.010995574295520782
01:00:0A:00:00:00:00;1726099879;12/09/24;00:11:19;1.012;0.004;0.123;0.1014036238193512;-0.00855211354792118;0.014660765416920185
01:00:0A:00:00:00:00;1726099880;12/09/24;00:11:20;1.011;0.003;0.123;0.1014036238193512;-0.009773843921720982;0.009773843921720982
01:00:0A:00:00:00:00;1726099881;12/09/24;00:11:21;1.012;0.004;0.122;0.09773843735456467;-0.010995574295520782;0.013439035043120384
01:00:0A:00:00:00:00;1726099882;12/09/24;00:11:22;1.011;0.004;0.122;0.09529497474431992;-0.0073303827084600925;0.010995574295520782
01:00:0A:00:00:00:00;1726099883;12/09/24;00:11:23;1.012;0.004;0.123;0.09407324343919754;-0.010995574295520782;0.010995574295520782
01:00:0A:00:00:00:00;1726099884;12/09/24;00:11:24;1.012;0.003;0.122;0.09162978082895279;-0.009773843921720982;0.010995574295520782
01:00:0A:00:00:00:00;1726099885;12/09/24;00:11:25;1.01;0.004;0.122;0.08918632566928864;-0.00855211354792118;0.010995574295520782
01:00:0A:00:00:00:00;1726099886;12/09/24;00:11:26;1.011;0.002;0.123;0.08674286305904388;-0.00855211354792118;0.010995574295520782
01:00:0A:00:00:00:00;1726099887;12/09/24;00:11:27;1.011;0.004;0.123;0.08674286305904388;-0.010995574295520782;0.009773843921720982
01:00:0A:00:00:00:00;1726099888;12/09/24;00:11:28;1.012;0.004;0.122;0.08429940044879913;-0.00855211354792118;0.010995574295520782
01:00:0A:00:00:00:00;1726099889;12/09/24;00:11:29;1.012;0.003;0.123;0.08307767659425735;-0.010995574295520782;0.009773843921720982
01:00:0A:00:00:00:00;1726099890;12/09/24;00:11:30;1.011;0.004;0.122;0.08185594528913498;-0.009773843921720982;0.010995574295520782
01:00:0A:00:00:00:00;1726099891;12/09/24;00:11:31;1.013;0.003;0.123;0.080634206533432;-0.00855211354792118;0.009773843921720982
01:00:0A:00:00:00:00;1726099892;12/09/24;00:11:32;1.011;0.003;0.123;0.080634206533432;-0.010995574295520782;0.009773843921720982
01:00:0A:00:00:00:00;1726099893;12/09/24;00:11:33;1.012;0.004;0.122;0.07819075137376785;-0.00855211354792118;0.009773843921720982
01:00:0A:00:00:00:00;1726099894;12/09/24;00:11:34;1.011;0.003;0.123;0.07819075137376785;-0.00855211354792118;0.009773843921720982
01:00:0A:00:00:00:00;1726099895;12/09/24;00:11:35;1.013;0.004;0.123;0.07819075137376785;-0.009773843921720982;0.009773843921720982
01:00:0A:00:00:00:00;1726099896;12/09/24;00:11:36;1.012;0.003;0.124;0.07696902006864548;-0.009773843921720982;0.009773843921720982
01:00:0A:00:00:00:00;1726099897;12/09/24;00:11:37;1.011;0.003;0.123;0.07696902006864548;-0.009773843921720982;0.00855211354792118
01:00:0A:00:00:00:00;1726099898;12/09/24;00:11:38;1.013;0.003;0.123;0.07452555745840073;-0.009773843921720982;0.009773843921720982
01:00:0A:00:00:00:00;1726099899;12/09/24;00:11:39;1.011;0.003;0.122;0.07452555745840073;-0.009773843921720982;0.00855211354792118
01:00:0A:00:00:00:00;1726099900;12/09/24;00:11:40;1.012;0.004;0.123;0.07330382615327835;-0.00855211354792118;0.009773843921720982
01:00:0A:00:00:00:00;1726099901;12/09/24;00:11:41;1.011;0.004;0.124;0.07330382615327835;-0.010995574295520782;0.009773843921720982
01:00:0A:00:00:00:00;1726099902;12/09/24;00:11:42;1.012;0.004;0.122;0.07208210229873657;-0.009773843921720982;0.009773843921720982
01:00:0A:00:00:00:00;1726099903;12/09/24;00:11:43;1.011;0.003;0.122;0.0708603635430336;-0.00855211354792118;0.00855211354792118
01:00:0A:00:00:00:00;1726099904;12/09/24;00:11:44;1.012;0.004;0.123;0.06963863223791122;-0.009773843921720982;0.009773843921720982
01:00:0A:00:00:00:00;1726099905;12/09/24;00:11:45;1.012;0.002;0.123;0.06841690838336945;-0.009773843921720982;0.00855211354792118
01:00:0A:00:00:00:00;1726099906;12/09/24;00:11:46;1.011;0.003;0.123;0.06719517707824707;-0.009773843921720982;0.009773843921720982
01:00:0A:00:00:00:00;1726099907;12/09/24;00:11:47;1.012;0.004;0.123;0.0659734457731247;-0.009773843921720982;0.009773843921720982
01:00:0A:00:00:00:00;1726099908;12/09/24;00:11:48;1.011;0.005;0.122;0.0659734457731247;-0.009773843921720982;0.0073303827084600925
01:00:0A:00:00:00:00;1726099909;12/09/24;00:11:49;1.011;0.004;0.123;0.06352998316287994;-0.009773843921720982;0.00855211354792118
01:00:0A:00:00:00:00;1726099910;12/09/24;00:11:50;1.011;0.004;0.123;0.06352998316287994;-0.010995574295520782;0.0073303827084600925
01:00:0A:00:00:00:00;1726099911;12/09/24;00:11:51;1.011;0.004;0.124;0.06230825558304787;-0.009773843921720982;0.00855211354792118
01:00:0A:00:00:00:00;1726099912;12/09/24;00:11:52;1.011;0.003;0.122;0.06230825558304787;-0.009773843921720982;0.0073303827084600925
01:00:0A:00:00:00:00;1726099913;12/09/24;00:11:53;1.011;0.004;0.124;0.059864792972803116;-0.00855211354792118;0.00855211354792118
01:00:0A:00:00:00:00;1726099914;12/09/24;00:11:54;1.011;0.003;0.123;0.059864792972803116;-0.010995574295520782;0.00855211354792118
01:00:0A:00:00:00:00;1726099915;12/09/24;00:11:55;1.011;0.004;0.123;0.05864306166768074;-0.009773843921720982;0.0073303827084600925
01:00:0A:00:00:00:00;1726099916;12/09/24;00:11:56;1.012;0.004;0.123;0.05742133408784866;-0.010995574295520782;0.00855211354792118
01:00:0A:00:00:00:00;1726099917;12/09/24;00:11:57;1.011;0.004;0.123;0.05619959905743599;-0.009773843921720982;0.0073303827084600925
01:00:0A:00:00:00:00;1726099918;12/09/24;00:11:58;1.011;0.005;0.124;0.05497787147760391;-0.009773843921720982;0.0073303827084600925
01:00:0A:00:00:00:00;1726099919;12/09/24;00:11:59;1.012;0.003;0.123;0.05375614017248154;-0.009773843921720982;0.0073303827084600925
01:00:0A:00:00:00:00;1726099920;12/09/24;00:12:00;1.013;0.005;0.123;0.05253440886735916;-0.010995574295520782;0.0073303827084600925
01:00:0A:00:00:00:00;1726099921;12/09/24;00:12:01;1.011;0.004;0.123;0.051312677562236786;-0.009773843921720982;0.0073303827084600925
01:00:0A:00:00:00:00;1726099922;12/09/24;00:12:02;1.012;0.004;0.124;0.051312677562236786;-0.010995574295520782;0.006108652334660292
01:00:0A:00:00:00:00;1726099923;12/09/24;00:12:03;1.012;0.004;0.122;0.04886921867728233;-0.009773843921720982;0.0073303827084600925
01:00:0A:00:00:00:00;1726099924;12/09/24;00:12:04;1.012;0.004;0.123;0.04764748737215996;-0.010995574295520782;0.006108652334660292
01:00:0A:00:00:00:00;1726099925;12/09/24;00:12:05;1.011;0.003;0.123;0.04642575979232788;-0.009773843921720982;0.0073303827084600925
01:00:0A:00:00:00:00;1726099926;12/09/24;00:12:06;1.013;0.003;0.124;0.045204028487205505;-0.009773843921720982;0.006108652334660292
01:00:0A:00:00:00:00;1726099927;12/09/24;00:12:07;1.011;0.004;0.123;0.045204028487205505;-0.010995574295520782;0.006108652334660292
01:00:0A:00:00:00:00;1726099928;12/09/24;00:12:08;1.013;0.004;0.124;0.042760565876960754;-0.009773843921720982;0.0073303827084600925
01:00:0A:00:00:00:00;1726099929;12/09/24;00:12:09;1.01;0.003;0.123;0.042760565876960754;-0.012217304669320583;0.006108652334660292
01:00:0A:00:00:00:00;1726099930;12/09/24;00:12:10;1.011;0.004;0.124;0.04153883829712868;-0.009773843921720982;0.006108652334660292
01:00:0A:00:00:00:00;1726099931;12/09/24;00:12:11;1.013;0.003;0.123;0.04153883829712868;-0.010995574295520782;0.006108652334660292
01:00:0A:00:00:00:00;1726099932;12/09/24;00:12:12;1.011;0.004;0.122;0.040317103266716;-0.009773843921720982;0.006108652334660292
01:00:0A:00:00:00:00;1726099933;12/09/24;00:12:13;1.011;0.003;0.124;0.039095375686883926;-0.010995574295520782;0.006108652334660292
01:00:0A:00:00:00:00;1726099934;12/09/24;00:12:14;1.012;0.003;0.124;0.03787364438176155;-0.010995574295520782;0.006108652334660292
01:00:0A:00:00:00:00;1726099935;12/09/24;00:12:15;1.011;0.003;0.123;0.03787364438176155;-0.009773843921720982;0.006108652334660292
01:00:0A:00:00:00:00;1726099936;12/09/24;00:12:16;1.012;0.004;0.123;0.03787364438176155;-0.010995574295520782;0.004886921960860491
01:00:0A:00:00:00:00;1726099937;12/09/24;00:12:17;1.011;0.004;0.123;0.036651913076639175;-0.010995574295520782;0.006108652334660292
01:00:0A:00:00:00:00;1726099938;12/09/24;00:12:18;1.011;0.004;0.122;0.0354301817715168;-0.010995574295520782;0.006108652334660292
01:00:0A:00:00:00:00;1726099939;12/09/24;00:12:19;1.011;0.005;0.124;0.0354301817715168;-0.010995574295520782;0.004886921960860491
01:00:0A:00:00:00:00;1726099940;12/09/24;00:12:20;1.011;0.003;0.122;0.03420845419168472;-0.009773843921720982;0.006108652334660292
01:00:0A:00:00:00:00;1726099941;12/09/24;00:12:21;1.012;0.004;0.123;0.03420845419168472;-0.010995574295520782;0.004886921960860491
01:00:0A:00:00:00:00;1726099942;12/09/24;00:12:22;1.011;0.004;0.122;0.03298672288656235;-0.009773843921720982;0.006108652334660292
01:00:0A:00:00:00:00;1726099943;12/09/24;00:12:23;1.011;0.005;0.124;0.03298672288656235;-0.010995574295520782;0.004886921960860491
01:00:0A:00:00:00:00;1726099944;12/09/24;00:12:24;1.013;0.004;0.123;0.03298672288656235;-0.010995574295520782;0.004886921960860491
01:00:0A:00:00:00:00;1726099945;12/09/24;00:12:25;1.011;0.003;0.124;0.03176499158143997;-0.009773843921720982;0.004886921960860491
01:00:0A:00:00:00:00;1726099946;12/09/24;00:12:26;1.011;0.005;0.122;0.03176499158143997;-0.012217304669320583;0.004886921960860491
01:00:0A:00:00:00:00;1726099947;12/09/24;00:12:27;1.011;0.004;0.123;0.030543262138962746;-0.009773843921720982;0.004886921960860491
01:00:0A:00:00:00:00;1726099948;12/09/24;00:12:28;1.011;0.003;0.123;0.030543262138962746;-0.010995574295520782;0.004886921960860491
01:00:0A:00:00:00:00;1726099949;12/09/24;00:12:29;1.012;0.004;0.122;0.030543262138962746;-0.009773843921720982;0.0036651913542300463
01:00:0A:00:00:00:00;1726099950;12/09/24;00:12:30;1.011;0.004;0.124;0.02932153083384037;-0.010995574295520782;0.004886921960860491
01:00:0A:00:00:00:00;1726099951;12/09/24;00:12:31;1.012;0.004;0.122;0.02932153083384037;-0.010995574295520782;0.004886921960860491
01:00:0A:00:00:00:00;1726099952;12/09/24;00:12:32;1.011;0.004;0.123;0.028099799528717995;-0.010995574295520782;0.006108652334660292
01:00:0A:00:00:00:00;1726099953;12/09/24;00:12:33;1.012;0.003;0.122;0.02932153083384037;-0.010995574295520782;0.004886921960860491
01:00:0A:00:00:00:00;1726099954;12/09/24;00:12:34;1.011;0.003;0.123;0.028099799528717995;-0.009773843921720982;0.004886921960860491
01:00:0A:00:00:00:00;1726099955;12/09/24;00:12:35;1.012;0.002;0.123;0.028099799528717995;-0.010995574295520782;0.004886921960860491
01:00:0A:00:00:00:00;1726099956;12/09/24;00:12:36;1.01;0.004;0.122;0.028099799528717995;-0.010995574295520782;0.006108652334660292
01:00:0A:00:00:00:00;1726099957;12/09/24;00:12:37;1.012;0.004;0.123;0.028099799528717995;-0.009773843921720982;0.004886921960860491
01:00:0A:00:00:00:00;1726099958;12/09/24;00:12:38;1.011;0.003;0.123;0.028099799528717995;-0.010995574295520782;0.004886921960860491
01:00:0A:00:00:00:00;1726099959;12/09/24;00:12:39;1.012;0.003;0.123;0.028099799528717995;-0.013439035043120384;0.015882495790719986
01:00:0A:00:00:00:00;1726099960;12/09/24;00:12:40;1.012;-0.016;0.122;0.05375614017248154;-0.00855211354792118;0.02321287989616394
01:00:0A:00:00:00:00;1726099961;12/09/24;00:12:41;1.012;-0.016;0.124;0.1111774742603302;-0.00855211354792118;0.0036651913542300463
01:00:0A:00:00:00:00;1726099962;12/09/24;00:12:42;1.012;0.0;0.129;0.1368338167667389;-0.0073303827084600925;-0.0024434609804302454
01:00:0A:00:00:00:00;1726099963;12/09/24;00:12:43;1.011;0.009;0.12;0.12095131725072861;-0.01710422709584236;0.015882495790719986
01:00:0A:00:00:00:00;1726099964;12/09/24;00:12:44;1.012;0.0;0.122;0.10873401165008545;0.0;0.021991148591041565
01:00:0A:00:00:00:00;1726099965;12/09/24;00:12:45;1.01;0.002;0.127;0.11850785464048386;-0.013439035043120384;0.0024434609804302454
01:00:0A:00:00:00:00;1726099966;12/09/24;00:12:46;1.012;0.007;0.12;0.1062905490398407;-0.013439035043120384;0.01710422709584236
01:00:0A:00:00:00:00;1726099967;12/09/24;00:12:47;1.012;0.0;0.123;0.10018189996480942;-0.0012217304902151227;0.01710422709584236
01:00:0A:00:00:00:00;1726099968;12/09/24;00:12:48;1.01;0.004;0.127;0.10751228034496307;-0.013439035043120384;0.0036651913542300463
01:00:0A:00:00:00:00;1726099969;12/09/24;00:12:49;1.012;0.006;0.121;0.09651670604944229;-0.012217304669320583;0.01710422709584236
01:00:0A:00:00:00:00;1726099970;12/09/24;00:12:50;1.011;-0.001;0.125;0.09529497474431992;-0.0024434609804302454;0.012217304669320583
01:00:0A:00:00:00:00;1726099971;12/09/24;00:12:51;1.011;0.004;0.126;0.09896016865968704;-0.013439035043120384;0.006108652334660292
01:00:0A:00:00:00:00;1726099972;12/09/24;00:12:52;1.012;0.004;0.122;0.08918632566928864;-0.012217304669320583;0.015882495790719986
01:00:0A:00:00:00:00;1726099973;12/09/24;00:12:53;1.012;0.0;0.124;0.09040805697441101;-0.0036651913542300463;0.009773843921720982
01:00:0A:00:00:00:00;1726099974;12/09/24;00:12:54;1.01;0.006;0.126;0.09040805697441101;-0.013439035043120384;0.00855211354792118
01:00:0A:00:00:00:00;1726099975;12/09/24;00:12:55;1.011;0.001;0.121;0.08307767659425735;-0.010995574295520782;0.014660765416920185
01:00:0A:00:00:00:00;1726099976;12/09/24;00:12:56;1.011;0.002;0.124;0.08552113175392151;-0.004886921960860491;0.0073303827084600925
01:00:0A:00:00:00:00;1726099977;12/09/24;00:12:57;1.011;0.005;0.125;0.08185594528913498;-0.014660765416920185;0.009773843921720982
01:00:0A:00:00:00:00;1726099978;12/09/24;00:12:58;1.011;0.002;0.122;0.07696902006864548;-0.009773843921720982;0.013439035043120384
01:00:0A:00:00:00:00;1726099979;12/09/24;00:12:59;1.011;0.003;0.125;0.07819075137376785;-0.006108652334660292;0.006108652334660292
01:00:0A:00:00:00:00;1726099980;12/09/24;00:13:00;1.011;0.004;0.123;0.0757472887635231;-0.012217304669320583;0.009773843921720982
01:00:0A:00:00:00:00;1726099981;12/09/24;00:13:01;1.012;0.003;0.122;0.07208210229873657;-0.009773843921720982;0.010995574295520782
01:00:0A:00:00:00:00;1726099982;12/09/24;00:13:02;1.011;0.003;0.124;0.07208210229873657;-0.0073303827084600925;0.0073303827084600925
01:00:0A:00:00:00:00;1726099983;12/09/24;00:13:03;1.01;0.004;0.124;0.06963863223791122;-0.012217304669320583;0.009773843921720982
01:00:0A:00:00:00:00;1726099984;12/09/24;00:13:04;1.012;0.002;0.122;0.0659734457731247;-0.009773843921720982;0.010995574295520782
01:00:0A:00:00:00:00;1726099985;12/09/24;00:13:05;1.011;0.002;0.124;0.06719517707824707;-0.00855211354792118;0.006108652334660292
01:00:0A:00:00:00:00;1726099986;12/09/24;00:13:06;1.011;0.006;0.124;0.06230825558304787;-0.012217304669320583;0.009773843921720982
01:00:0A:00:00:00:00;1726099987;12/09/24;00:13:07;1.011;0.002;0.123;0.059864792972803116;-0.009773843921720982;0.009773843921720982
01:00:0A:00:00:00:00;1726099988;12/09/24;00:13:08;1.011;0.003;0.124;0.06230825558304787;-0.00855211354792118;0.004886921960860491
01:00:0A:00:00:00:00;1726099989;12/09/24;00:13:09;1.012;0.005;0.124;0.05619959905743599;-0.012217304669320583;0.009773843921720982
01:00:0A:00:00:00:00;1726099990;12/09/24;00:13:10;1.013;0.002;0.123;0.05619959905743599;-0.009773843921720982;0.0073303827084600925
01:00:0A:00:00:00:00;1726099991;12/09/24;00:13:11;1.01;0.004;0.124;0.05497787147760391;-0.009773843921720982;0.006108652334660292
01:00:0A:00:00:00:00;1726099992;12/09/24;00:13:12;1.011;0.003;0.125;0.05253440886735916;-0.010995574295520782;0.00855211354792118
01:00:0A:00:00:00:00;1726099993;12/09/24;00:13:13;1.012;0.003;0.123;0.051312677562236786;-0.009773843921720982;0.006108652334660292
01:00:0A:00:00:00:00;1726099994;12/09/24;00:13:14;1.01;0.003;0.123;0.05009094998240471;-0.009773843921720982;0.006108652334660292
01:00:0A:00:00:00:00;1726099995;12/09/24;00:13:15;1.012;0.004;0.124;0.04764748737215996;-0.010995574295520782;0.0073303827084600925
01:00:0A:00:00:00:00;1726099996;12/09/24;00:13:16;1.011;0.002;0.122;0.04642575979232788;-0.009773843921720982;0.0073303827084600925
01:00:0A:00:00:00:00;1726099997;12/09/24;00:13:17;1.011;0.01;0.127;0.07819075137376785;-0.0073303827084600925;-0.0012217304902151227
01:00:0A:00:00:00:00;1726099998;12/09/24;00:13:18;1.011;0.019;0.123;0.13072516024112701;-0.014660765416920185;0.010995574295520782
01:00:0A:00:00:00:00;1726099999;12/09/24;00:13:19;1.011;0.008;0.119;0.1661553531885147;-0.006108652334660292;0.0354301817715168
01:00:0A:00:00:00:00;1726100000;12/09/24;00:13:20;1.01;-0.002;0.127;0.16371189057826996;-0.0012217304902151227;0.018325956538319588
01:00:0A:00:00:00:00;1726100001;12/09/24;00:13:21;1.011;0.01;0.123;0.16249015927314758;-0.018325956538319588;0.0073303827084600925
01:00:0A:00:00:00:00;1726100002;12/09/24;00:13:22;1.013;0.005;0.119;0.13805554807186127;-0.004886921960860491;0.028099799528717995
01:00:0A:00:00:00:00;1726100003;12/09/24;00:13:23;1.011;0.0;0.127;0.14049901068210602;-0.0024434609804302454;0.013439035043120384
01:00:0A:00:00:00:00;1726100004;12/09/24;00:13:24;1.012;0.008;0.123;0.1368338167667389;-0.018325956538319588;0.010995574295520782
01:00:0A:00:00:00:00;1726100005;12/09/24;00:13:25;1.012;0.003;0.118;0.11972958594560623;-0.0024434609804302454;0.021991148591041565
01:00:0A:00:00:00:00;1726100006;12/09/24;00:13:26;1.011;0.001;0.129;0.12217304855585098;-0.004886921960860491;0.00855211354792118
01:00:0A:00:00:00:00;1726100007;12/09/24;00:13:27;1.011;0.006;0.122;0.1160643920302391;-0.018325956538319588;0.013439035043120384
01:00:0A:00:00:00:00;1726100008;12/09/24;00:13:28;1.011;0.001;0.121;0.10506881773471832;-0.0012217304902151227;0.01710422709584236
01:00:0A:00:00:00:00;1726100009;12/09/24;00:13:29;1.01;0.004;0.128;0.1062905490398407;-0.0073303827084600925;0.00855211354792118
01:00:0A:00:00:00:00;1726100010;12/09/24;00:13:30;1.011;0.007;0.122;0.09773843735456467;-0.01710422709584236;0.013439035043120384
01:00:0A:00:00:00:00;1726100011;12/09/24;00:13:31;1.011;0.002;0.122;0.09162978082895279;-0.0024434609804302454;0.013439035043120384
01:00:0A:00:00:00:00;1726100012;12/09/24;00:13:32;1.01;0.004;0.126;0.09162978082895279;-0.00855211354792118;0.0073303827084600925
01:00:0A:00:00:00:00;1726100013;12/09/24;00:13:33;1.012;0.005;0.121;0.08429940044879913;-0.014660765416920185;0.013439035043120384
01:00:0A:00:00:00:00;1726100014;12/09/24;00:13:34;1.012;0.001;0.122;0.080634206533432;-0.004886921960860491;0.010995574295520782
01:00:0A:00:00:00:00;1726100015;12/09/24;00:13:35;1.012;0.005;0.125;0.07941248267889023;-0.009773843921720982;0.0073303827084600925
01:00:0A:00:00:00:00;1726100016;12/09/24;00:13:36;1.012;0.005;0.122;0.07330382615327835;-0.014660765416920185;0.013439035043120384
01:00:0A:00:00:00:00;1726100017;12/09/24;00:13:37;1.012;0.002;0.122;0.0708603635430336;-0.004886921960860491;0.00855211354792118
01:00:0A:00:00:00:00;1726100018;12/09/24;00:13:38;1.011;0.006;0.125;0.0708603635430336;-0.009773843921720982;0.006108652334660292
01:00:0A:00:00:00:00;1726100019;12/09/24;00:13:39;1.011;0.002;0.122;0.06352998316287994;-0.012217304669320583;0.012217304669320583
01:00:0A:00:00:00:00;1726100020;12/09/24;00:13:40;1.011;0.002;0.123;0.06475171446800232;-0.006108652334660292;0.006108652334660292
01:00:0A:00:00:00:00;1726100021;12/09/24;00:13:41;1.011;0.004;0.124;0.06230825558304787;-0.009773843921720982;0.0073303827084600925
01:00:0A:00:00:00:00;1726100022;12/09/24;00:13:42;1.011;0.003;0.122;0.05864306166768074;-0.012217304669320583;0.010995574295520782
01:00:0A:00:00:00:00;1726100023;12/09/24;00:13:43;1.012;0.002;0.122;0.05864306166768074;-0.0073303827084600925;0.004886921960860491
01:00:0A:00:00:00:00;1726100024;12/09/24;00:13:44;1.011;0.004;0.123;0.05619959905743599;-0.010995574295520782;0.0073303827084600925
01:00:0A:00:00:00:00;1726100025;12/09/24;00:13:45;1.011;0.004;0.122;0.05253440886735916;-0.010995574295520782;0.00855211354792118
01:00:0A:00:00:00:00;1726100026;12/09/24;00:13:46;1.012;0.002;0.123;0.05253440886735916;-0.00855211354792118;0.006108652334660292
01:00:0A:00:00:00:00;1726100027;12/09/24;00:13:47;1.011;0.004;0.124;0.051312677562236786;-0.010995574295520782;0.006108652334660292
01:00:0A:00:00:00:00;1726100028;12/09/24;00:13:48;1.01;0.003;0.122;0.04764748737215996;-0.010995574295520782;0.00855211354792118
01:00:0A:00:00:00:00;1726100029;12/09/24;00:13:49;1.012;0.003;0.124;0.04764748737215996;-0.00855211354792118;0.004886921960860491
01:00:0A:00:00:00:00;1726100030;12/09/24;00:13:50;1.011;0.005;0.122;0.04642575979232788;-0.010995574295520782;0.006108652334660292
01:00:0A:00:00:00:00;1726100031;12/09/24;00:13:51;1.011;0.003;0.122;0.042760565876960754;-0.010995574295520782;0.00855211354792118
01:00:0A:00:00:00:00;1726100032;12/09/24;00:13:52;1.01;0.003;0.123;0.04398229718208313;-0.009773843921720982;0.004886921960860491
01:00:0A:00:00:00:00;1726100033;12/09/24;00:13:53;1.011;0.004;0.124;0.04153883829712868;-0.010995574295520782;0.0073303827084600925
01:00:0A:00:00:00:00;1726100034;12/09/24;00:13:54;1.012;0.002;0.122;0.039095375686883926;-0.010995574295520782;0.0073303827084600925
01:00:0A:00:00:00:00;1726100035;12/09/24;00:13:55;1.011;0.005;0.122;0.039095375686883926;-0.009773843921720982;0.004886921960860491
01:00:0A:00:00:00:00;1726100036;12/09/24;00:13:56;1.012;0.005;0.123;0.036651913076639175;-0.010995574295520782;0.0073303827084600925
01:00:0A:00:00:00:00;1726100037;12/09/24;00:13:57;1.012;0.003;0.122;0.0354301817715168;-0.010995574295520782;0.006108652334660292
01:00:0A:00:00:00:00;1726100038;12/09/24;00:13:58;1.011;0.002;0.123;0.0354301817715168;-0.009773843921720982;0.004886921960860491
01:00:0A:00:00:00:00;1726100039;12/09/24;00:13:59;1.012;0.003;0.124;0.03298672288656235;-0.010995574295520782;0.006108652334660292
01:00:0A:00:00:00:00;1726100040;12/09/24;00:14:00;1.011;0.003;0.122;0.03176499158143997;-0.010995574295520782;0.006108652334660292
01:00:0A:00:00:00:00;1726100041;12/09/24;00:14:01;1.011;0.003;0.122;0.03176499158143997;-0.009773843921720982;0.0036651913542300463
01:00:0A:00:00:00:00;1726100042;12/09/24;00:14:02;1.011;0.004;0.123;0.02932153083384037;-0.010995574295520782;0.004886921960860491
01:00:0A:00:00:00:00;1726100043;12/09/24;00:14:03;1.012;0.004;0.123;0.028099799528717995;-0.010995574295520782;0.006108652334660292
01:00:0A:00:00:00:00;1726100044;12/09/24;00:14:04;1.012;0.004;0.123;0.028099799528717995;-0.009773843921720982;0.0036651913542300463
01:00:0A:00:00:00:00;1726100045;12/09/24;00:14:05;1.011;0.003;0.123;0.025656338781118393;-0.010995574295520782;0.004886921960860491
01:00:0A:00:00:00:00;1726100046;12/09/24;00:14:06;1.012;0.002;0.122;0.025656338781118393;-0.010995574295520782;0.004886921960860491
01:00:0A:00:00:00:00;1726100047;12/09/24;00:14:07;1.011;0.004;0.123;0.024434609338641167;-0.010995574295520782;0.0036651913542300463
01:00:0A:00:00:00:00;1726100048;12/09/24;00:14:08;1.012;0.003;0.122;0.021991148591041565;-0.010995574295520782;0.006108652334660292
01:00:0A:00:00:00:00;1726100049;12/09/24;00:14:09;1.012;0.003;0.123;0.021991148591041565;-0.010995574295520782;0.0036651913542300463
01:00:0A:00:00:00:00;1726100050;12/09/24;00:14:10;1.012;0.004;0.122;0.02076941914856434;-0.010995574295520782;0.004886921960860491
01:00:0A:00:00:00:00;1726100051;12/09/24;00:14:11;1.01;0.003;0.122;0.019547687843441963;-0.010995574295520782;0.0036651913542300463
01:00:0A:00:00:00:00;1726100052;12/09/24;00:14:12;1.01;0.003;0.122;0.019547687843441963;-0.010995574295520782;0.0036651913542300463
01:00:0A:00:00:00:00;1726100053;12/09/24;00:14:13;1.011;0.004;0.122;0.018325956538319588;-0.010995574295520782;0.0036651913542300463
01:00:0A:00:00:00:00;1726100054;12/09/24;00:14:14;1.012;0.004;0.123;0.01710422709584236;-0.010995574295520782;0.004886921960860491
01:00:0A:00:00:00:00;1726100055;12/09/24;00:14:15;1.012;0.003;0.122;0.01710422709584236;-0.010995574295520782;0.0036651913542300463
01:00:0A:00:00:00:00;1726100056;12/09/24;00:14:16;1.011;0.003;0.123;0.015882495790719986;-0.010995574295520782;0.0036651913542300463
01:00:0A:00:00:00:00;1726100057;12/09/24;00:14:17;1.012;0.004;0.122;0.014660765416920185;-0.010995574295520782;0.0036651913542300463
01:00:0A:00:00:00:00;1726100058;12/09/24;00:14:18;1.011;0.003;0.123;0.014660765416920185;-0.010995574295520782;0.0036651913542300463
01:00:0A:00:00:00:00;1726100059;12/09/24;00:14:19;1.012;0.003;0.122;0.014660765416920185;-0.010995574295520782;0.0024434609804302454
01:00:0A:00:00:00:00;1726100060;12/09/24;00:14:20;1.012;0.004;0.124;0.013439035043120384;-0.010995574295520782;0.0036651913542300463
01:00:0A:00:00:00:00;1726100061;12/09/24;00:14:21;1.011;0.002;0.123;0.013439035043120384;-0.010995574295520782;0.0024434609804302454
01:00:0A:00:00:00:00;1726100062;12/09/24;00:14:22;1.011;0.003;0.122;0.012217304669320583;-0.010995574295520782;0.0036651913542300463
01:00:0A:00:00:00:00;1726100063;12/09/24;00:14:23;1.012;0.004;0.123;0.012217304669320583;-0.010995574295520782;0.0036651913542300463
01:00:0A:00:00:00:00;1726100064;12/09/24;00:14:24;1.011;0.003;0.122;0.012217304669320583;-0.010995574295520782;0.0024434609804302454
01:00:0A:00:00:00:00;1726100065;12/09/24;00:14:25;1.012;0.003;0.123;0.010995574295520782;-0.010995574295520782;0.0036651913542300463
01:00:0A:00:00:00:00;1726100066;12/09/24;00:14:26;1.011;0.003;0.123;0.010995574295520782;-0.010995574295520782;0.0036651913542300463
01:00:0A:00:00:00:00;1726100067;12/09/24;00:14:27;1.011;0.003;0.123;0.010995574295520782;-0.010995574295520782;0.0036651913542300463
01:00:0A:00:00:00:00;1726100068;12/09/24;00:14:28;1.012;0.004;0.123;0.010995574295520782;-0.010995574295520782;0.0024434609804302454
01:00:0A:00:00:00:00;1726100069;12/09/24;00:14:29;1.012;0.004;0.123;0.009773843921720982;-0.010995574295520782;0.0036651913542300463
01:00:0A:00:00:00:00;1726100070;12/09/24;00:14:30;1.012;0.004;0.122;0.009773843921720982;-0.010995574295520782;0.0024434609804302454
01:00:0A:00:00:00:00;1726100071;12/09/24;00:14:31;1.011;0.004;0.123;0.009773843921720982;-0.010995574295520782;0.0024434609804302454
01:00:0A:00:00:00:00;1726100072;12/09/24;00:14:32;1.012;0.003;0.123;0.009773843921720982;-0.010995574295520782;0.0036651913542300463
01:00:0A:00:00:00:00;1726100073;12/09/24;00:14:33;1.011;0.003;0.123;0.009773843921720982;-0.010995574295520782;0.0024434609804302454
01:00:0A:00:00:00:00;1726100074;12/09/24;00:14:34;1.011;0.003;0.123;0.00855211354792118;-0.010995574295520782;0.0036651913542300463
01:00:0A:00:00:00:00;1726100075;12/09/24;00:14:35;1.012;0.003;0.122;0.00855211354792118;-0.010995574295520782;0.0036651913542300463
01:00:0A:00:00:00:00;1726100076;12/09/24;00:14:36;1.011;0.003;0.122;0.00855211354792118;-0.010995574295520782;0.0024434609804302454
01:00:0A:00:00:00:00;1726100077;12/09/24;00:14:37;1.012;0.004;0.123;0.00855211354792118;-0.010995574295520782;0.0024434609804302454
01:00:0A:00:00:00:00;1726100078;12/09/24;00:14:38;1.011;0.003;0.123;0.00855211354792118;-0.010995574295520782;0.0024434609804302454
01:00:0A:00:00:00:00;1726100079;12/09/24;00:14:39;1.011;0.002;0.123;0.00855211354792118;-0.010995574295520782;0.0036651913542300463
01:00:0A:00:00:00:00;1726100080;12/09/24;00:14:40;1.011;0.003;0.123;0.00855211354792118;-0.010995574295520782;0.0036651913542300463
01:00:0A:00:00:00:00;1726100081;12/09/24;00:14:41;1.011;0.004;0.122;0.00855211354792118;-0.010995574295520782;0.0036651913542300463
01:00:0A:00:00:00:00;1726100082;12/09/24;00:14:42;1.011;0.003;0.123;0.00855211354792118;-0.010995574295520782;0.0024434609804302454
01:00:0A:00:00:00:00;1726100083;12/09/24;00:14:43;1.011;0.003;0.122;0.0073303827084600925;-0.010995574295520782;0.0024434609804302454
01:00:0A:00:00:00:00;1726100084;12/09/24;00:14:44;1.011;0.004;0.122;0.0073303827084600925;-0.010995574295520782;0.0024434609804302454
01:00:0A:00:00:00:00;1726100085;12/09/24;00:14:45;1.011;0.002;0.123;0.0073303827084600925;-0.010995574295520782;0.0024434609804302454
01:00:0A:00:00:00:00;1726100086;12/09/24;00:14:46;1.012;0.003;0.122;0.0073303827084600925;-0.010995574295520782;0.0024434609804302454
01:00:0A:00:00:00:00;1726100087;12/09/24;00:14:47;1.01;0.003;0.123;0.0073303827084600925;-0.010995574295520782;0.0024434609804302454
01:00:0A:00:00:00:00;1726100088;12/09/24;00:14:48;1.011;0.004;0.122;0.0073303827084600925;-0.010995574295520782;0.0024434609804302454
01:00:0A:00:00:00:00;1726100089;12/09/24;00:14:49;1.011;0.004;0.122;0.006108652334660292;-0.010995574295520782;0.0024434609804302454
01:00:0A:00:00:00:00;1726100090;12/09/24;00:14:50;1.01;0.002;0.123;0.006108652334660292;-0.010995574295520782;0.0024434609804302454
01:00:0A:00:00:00:00;1726100091;12/09/24;00:14:51;1.012;0.004;0.122;0.006108652334660292;-0.010995574295520782;0.0024434609804302454
01:00:0A:00:00:00:00;1726100092;12/09/24;00:14:52;1.01;0.003;0.123;0.006108652334660292;-0.010995574295520782;0.0024434609804302454
01:00:0A:00:00:00:00;1726100093;12/09/24;00:14:53;1.01;0.004;0.122;0.006108652334660292;-0.010995574295520782;0.0024434609804302454
01:00:0A:00:00:00:00;1726100094;12/09/24;00:14:54;1.01;0.003;0.122;0.006108652334660292;-0.010995574295520782;0.0024434609804302454
01:00:0A:00:00:00:00;1726100095;12/09/24;00:14:55;1.011;0.004;0.123;0.006108652334660292;-0.010995574295520782;0.0024434609804302454
01:00:0A:00:00:00:00;1726100096;12/09/24;00:14:56;1.011;0.003;0.123;0.006108652334660292;-0.010995574295520782;0.0024434609804302454
01:00:0A:00:00:00:00;1726100097;12/09/24;00:14:57;1.01;0.003;0.123;0.006108652334660292;-0.010995574295520782;0.0024434609804302454
01:00:0A:00:00:00:00;1726100098;12/09/24;00:14:58;1.011;0.004;0.123;0.006108652334660292;-0.010995574295520782;0.0024434609804302454
01:00:0A:00:00:00:00;1726100099;12/09/24;00:14:59;1.011;0.002;0.122;0.006108652334660292;-0.010995574295520782;0.0024434609804302454
01:00:0A:00:00:00:00;1726100100;12/09/24;00:15:00;1.013;0.003;0.123;0.004886921960860491;-0.010995574295520782;0.0024434609804302454
01:00:0A:00:00:00:00;1726100101;12/09/24;00:15:01;1.011;0.003;0.123;0.004886921960860491;-0.010995574295520782;0.0024434609804302454
01:00:0A:00:00:00:00;1726100102;12/09/24;00:15:02;1.011;0.004;0.123;0.004886921960860491;-0.010995574295520782;0.0024434609804302454
01:00:0A:00:00:00:00;1726100103;12/09/24;00:15:03;1.012;0.004;0.123;0.004886921960860491;-0.010995574295520782;0.0036651913542300463
01:00:0A:00:00:00:00;1726100104;12/09/24;00:15:04;1.011;0.003;0.123;0.004886921960860491;-0.010995574295520782;0.0024434609804302454
01:00:0A:00:00:00:00;1726100105;12/09/24;00:15:05;1.011;0.004;0.123;0.004886921960860491;-0.010995574295520782;0.0024434609804302454
01:00:0A:00:00:00:00;1726100106;12/09/24;00:15:06;1.011;0.003;0.123;0.004886921960860491;-0.010995574295520782;0.0024434609804302454
01:00:0A:00:00:00:00;1726100107;12/09/24;00:15:07;1.01;0.003;0.123;0.004886921960860491;-0.010995574295520782;0.0024434609804302454
01:00:0A:00:00:00:00;1726100108;12/09/24;00:15:08;1.012;0.003;0.122;0.004886921960860491;-0.010995574295520782;0.0024434609804302454
01:00:0A:00:00:00:00;1726100109;12/09/24;00:15:09;1.011;0.003;0.123;0.004886921960860491;-0.010995574295520782;0.0024434609804302454
01:00:0A:00:00:00:00;1726100110;12/09/24;00:15:10;1.012;0.003;0.123;0.0036651913542300463;-0.010995574295520782;0.0024434609804302454
01:00:0A:00:00:00:00;1726100111;12/09/24;00:15:11;1.011;0.003;0.123;0.004886921960860491;-0.010995574295520782;0.0024434609804302454
01:00:0A:00:00:00:00;1726100112;12/09/24;00:15:12;1.011;0.003;0.124;0.0036651913542300463;-0.010995574295520782;0.0024434609804302454
01:00:0A:00:00:00:00;1726100113;12/09/24;00:15:13;1.011;0.004;0.123;0.0036651913542300463;-0.010995574295520782;0.0024434609804302454
01:00:0A:00:00:00:00;1726100114;12/09/24;00:15:14;1.012;0.003;0.123;0.0036651913542300463;-0.010995574295520782;0.0024434609804302454
01:00:0A:00:00:00:00;1726100115;12/09/24;00:15:15;1.011;0.003;0.123;0.0036651913542300463;-0.010995574295520782;0.0024434609804302454
01:00:0A:00:00:00:00;1726100116;12/09/24;00:15:16;1.011;0.003;0.123;0.0036651913542300463;-0.010995574295520782;0.0024434609804302454
01:00:0A:00:00:00:00;1726100117;12/09/24;00:15:17;1.012;0.003;0.123;0.0036651913542300463;-0.010995574295520782;0.0024434609804302454
01:00:0A:00:00:00:00;1726100118;12/09/24;00:15:18;1.011;0.002;0.123;0.0036651913542300463;-0.012217304669320583;0.0024434609804302454
01:00:0A:00:00:00:00;1726100119;12/09/24;00:15:19;1.012;0.004;0.123;0.0036651913542300463;-0.010995574295520782;0.0024434609804302454
01:00:0A:00:00:00:00;1726100120;12/09/24;00:15:20;1.011;0.003;0.122;0.0024434609804302454;-0.010995574295520782;0.0024434609804302454
01:00:0A:00:00:00:00;1726100121;12/09/24;00:15:21;1.011;0.004;0.123;0.0024434609804302454;-0.010995574295520782;0.0024434609804302454
01:00:0A:00:00:00:00;1726100122;12/09/24;00:15:22;1.011;0.004;0.122;0.0024434609804302454;-0.010995574295520782;0.0024434609804302454
01:00:0A:00:00:00:00;1726100123;12/09/24;00:15:23;1.011;0.004;0.123;0.0024434609804302454;-0.010995574295520782;0.0024434609804302454
01:00:0A:00:00:00:00;1726100124;12/09/24;00:15:24;1.011;0.003;0.122;0.0024434609804302454;-0.010995574295520782;0.0024434609804302454
01:00:0A:00:00:00:00;1726100125;12/09/24;00:15:25;1.012;0.003;0.123;0.0024434609804302454;-0.010995574295520782;0.0024434609804302454
01:00:0A:00:00:00:00;1726100126;12/09/24;00:15:26;1.01;0.003;0.124;0.0024434609804302454;-0.010995574295520782;0.0024434609804302454
01:00:0A:00:00:00:00;1726100127;12/09/24;00:15:27;1.01;0.003;0.123;0.0024434609804302454;-0.010995574295520782;0.0024434609804302454
01:00:0A:00:00:00:00;1726100128;12/09/24;00:15:28;1.011;0.004;0.123;0.0012217304902151227;-0.012217304669320583;0.0012217304902151227
01:00:0A:00:00:00:00;1726100129;12/09/24;00:15:29;1.011;0.002;0.122;0.0012217304902151227;-0.010995574295520782;0.0024434609804302454
01:00:0A:00:00:00:00;1726100130;12/09/24;00:15:30;1.011;0.003;0.123;0.0012217304902151227;-0.010995574295520782;0.0024434609804302454
01:00:0A:00:00:00:00;1726100131;12/09/24;00:15:31;1.012;0.004;0.123;0.0012217304902151227;-0.010995574295520782;0.0024434609804302454
