Source;Epoch timestamp (UTC);Date;Time (UTC);Accel X (G);Accel Y (G);Accel Z (G);Gyro X (rad/s);Gyro Y (rad/s);Gyro Z (rad/s)
01:00:0A:00:00:00:00;1725667213;07/09/24;00:00:13;1.011;0.015;0.119;0.051312677562236786;-0.009773843921720982;0.00855211354792118
01:00:0A:00:00:00:00;1725667214;07/09/24;00:00:14;1.012;0.015;0.119;0.051312677562236786;-0.009773843921720982;0.00855211354792118
01:00:0A:00:00:00:00;1725667215;07/09/24;00:00:15;1.012;0.015;0.12;0.051312677562236786;-0.009773843921720982;0.006108652334660292
01:00:0A:00:00:00:00;1725667216;07/09/24;00:00:16;1.012;0.015;0.119;0.05009094998240471;-0.009773843921720982;0.006108652334660292
01:00:0A:00:00:00:00;1725667217;07/09/24;00:00:17;1.01;0.015;0.12;0.05009094998240471;-0.009773843921720982;0.0073303827084600925
01:00:0A:00:00:00:00;1725667218;07/09/24;00:00:18;1.011;0.014;0.12;0.04886921867728233;-0.009773843921720982;0.006108652334660292
01:00:0A:00:00:00:00;1725667219;07/09/24;00:00:19;1.011;0.015;0.119;0.04764748737215996;-0.009773843921720982;0.0073303827084600925
01:00:0A:00:00:00:00;1725667220;07/09/24;00:00:20;1.011;0.014;0.119;0.04642575979232788;-0.009773843921720982;0.0073303827084600925
01:00:0A:00:00:00:00;1725667221;07/09/24;00:00:21;1.012;0.015;0.119;0.04642575979232788;-0.009773843921720982;0.006108652334660292
01:00:0A:00:00:00:00;1725667222;07/09/24;00:00:22;1.011;0.015;0.119;0.04642575979232788;-0.009773843921720982;0.006108652334660292
01:00:0A:00:00:00:00;1725667223;07/09/24;00:00:23;1.01;0.013;0.12;0.045204028487205505;-0.009773843921720982;0.006108652334660292
01:00:0A:00:00:00:00;1725667224;07/09/24;00:00:24;1.011;0.014;0.12;0.045204028487205505;-0.009773843921720982;0.006108652334660292
01:00:0A:00:00:00:00;1725667225;07/09/24;00:00:25;1.011;0.014;0.12;0.045204028487205505;-0.009773843921720982;0.0073303827084600925
01:00:0A:00:00:00:00;1725667226;07/09/24;00:00:26;1.012;0.013;0.118;0.04398229718208313;-0.00855211354792118;0.0073303827084600925
01:00:0A:00:00:00:00;1725667227;07/09/24;00:00:27;1.012;0.015;0.119;0.04398229718208313;-0.00855211354792118;0.006108652334660292
01:00:0A:00:00:00:00;1725667228;07/09/24;00:00:28;1.011;0.015;0.119;0.04398229718208313;-0.010995574295520782;0.006108652334660292
01:00:0A:00:00:00:00;1725667229;07/09/24;00:00:29;1.011;0.014;0.121;0.04398229718208313;-0.009773843921720982;0.006108652334660292
01:00:0A:00:00:00:00;1725667230;07/09/24;00:00:30;1.012;0.015;0.12;0.042760565876960754;-0.009773843921720982;0.006108652334660292
01:00:0A:00:00:00:00;1725667231;07/09/24;00:00:31;1.012;0.016;0.12;0.042760565876960754;-0.00855211354792118;0.0073303827084600925
01:00:0A:00:00:00:00;1725667232;07/09/24;00:00:32;1.01;0.015;0.12;0.04153883829712868;-0.00855211354792118;0.0073303827084600925
01:00:0A:00:00:00:00;1725667233;07/09/24;00:00:33;1.011;0.016;0.12;0.04153883829712868;-0.00855211354792118;0.0073303827084600925
01:00:0A:00:00:00:00;1725667234;07/09/24;00:00:34;1.012;0.015;0.119;0.04153883829712868;-0.012217304669320583;0.006108652334660292
01:00:0A:00:00:00:00;1725667235;07/09/24;00:00:35;1.012;0.015;0.119;0.040317103266716;-0.012217304669320583;0.006108652334660292
01:00:0A:00:00:00:00;1725667236;07/09/24;00:00:36;1.012;0.016;0.12;0.040317103266716;-0.009773843921720982;0.006108652334660292
01:00:0A:00:00:00:00;1725667237;07/09/24;00:00:37;1.013;0.016;0.119;0.039095375686883926;-0.00855211354792118;0.006108652334660292
01:00:0A:00:00:00:00;1725667238;07/09/24;00:00:38;1.011;0.015;0.119;0.03787364438176155;-0.0073303827084600925;0.006108652334660292
01:00:0A:00:00:00:00;1725667239;07/09/24;00:00:39;1.011;0.015;0.119;0.03787364438176155;-0.009773843921720982;0.006108652334660292
01:00:0A:00:00:00:00;1725667240;07/09/24;00:00:40;1.011;0.015;0.119;0.036651913076639175;-0.010995574295520782;0.006108652334660292
01:00:0A:00:00:00:00;1725667241;07/09/24;00:00:41;1.011;0.014;0.119;0.0354301817715168;-0.010995574295520782;0.006108652334660292
01:00:0A:00:00:00:00;1725667242;07/09/24;00:00:42;1.012;0.015;0.119;0.0354301817715168;-0.009773843921720982;0.006108652334660292
01:00:0A:00:00:00:00;1725667243;07/09/24;00:00:43;1.012;0.015;0.119;0.03420845419168472;-0.00855211354792118;0.006108652334660292
01:00:0A:00:00:00:00;1725667244;07/09/24;00:00:44;1.01;0.015;0.118;0.03298672288656235;-0.00855211354792118;0.006108652334660292
01:00:0A:00:00:00:00;1725667245;07/09/24;00:00:45;1.01;0.015;0.118;0.03176499158143997;-0.010995574295520782;0.006108652334660292
01:00:0A:00:00:00:00;1725667246;07/09/24;00:00:46;1.011;0.014;0.118;0.03176499158143997;-0.012217304669320583;0.004886921960860491
01:00:0A:00:00:00:00;1725667247;07/09/24;00:00:47;1.012;0.015;0.119;0.030543262138962746;-0.012217304669320583;0.006108652334660292
01:00:0A:00:00:00:00;1725667248;07/09/24;00:00:48;1.013;0.015;0.119;0.02932153083384037;-0.009773843921720982;0.006108652334660292
01:00:0A:00:00:00:00;1725667249;07/09/24;00:00:49;1.011;0.014;0.12;0.02932153083384037;-0.009773843921720982;0.0036651913542300463
01:00:0A:00:00:00:00;1725667250;07/09/24;00:00:50;1.011;0.016;0.119;0.028099799528717995;-0.009773843921720982;0.006108652334660292
01:00:0A:00:00:00:00;1725667251;07/09/24;00:00:51;1.01;0.014;0.119;0.02687807008624077;-0.010995574295520782;0.006108652334660292
01:00:0A:00:00:00:00;1725667252;07/09/24;00:00:52;1.011;0.014;0.119;0.02687807008624077;-0.012217304669320583;0.004886921960860491
01:00:0A:00:00:00:00;1725667253;07/09/24;00:00:53;1.012;0.016;0.118;0.025656338781118393;-0.010995574295520782;0.006108652334660292
01:00:0A:00:00:00:00;1725667254;07/09/24;00:00:54;1.011;0.015;0.12;0.025656338781118393;-0.009773843921720982;0.0073303827084600925
01:00:0A:00:00:00:00;1725667255;07/09/24;00:00:55;1.011;0.014;0.119;0.025656338781118393;-0.010995574295520782;0.004886921960860491
01:00:0A:00:00:00:00;1725667256;07/09/24;00:00:56;1.011;0.016;0.118;0.025656338781118393;-0.010995574295520782;0.004886921960860491
01:00:0A:00:00:00:00;1725667257;07/09/24;00:00:57;1.01;0.014;0.12;0.024434609338641167;-0.010995574295520782;0.006108652334660292
01:00:0A:00:00:00:00;1725667258;07/09/24;00:00:58;1.011;0.013;0.119;0.025656338781118393;-0.012217304669320583;0.004886921960860491
01:00:0A:00:00:00:00;1725667259;07/09/24;00:00:59;1.012;0.014;0.119;0.024434609338641167;-0.010995574295520782;0.006108652334660292
01:00:0A:00:00:00:00;1725667260;07/09/24;00:01:00;1.01;0.015;0.119;0.02321287989616394;-0.010995574295520782;0.006108652334660292
01:00:0A:00:00:00:00;1725667261;07/09/24;00:01:01;1.011;0.013;0.12;0.025656338781118393;-0.010995574295520782;0.0024434609804302454
01:00:0A:00:00:00:00;1725667262;07/09/24;00:01:02;1.011;0.014;0.118;0.024434609338641167;-0.010995574295520782;0.004886921960860491
01:00:0A:00:00:00:00;1725667263;07/09/24;00:01:03;1.011;0.014;0.119;0.02321287989616394;-0.009773843921720982;0.006108652334660292
01:00:0A:00:00:00:00;1725667264;07/09/24;00:01:04;1.011;0.013;0.119;0.024434609338641167;-0.010995574295520782;0.004886921960860491
01:00:0A:00:00:00:00;1725667265;07/09/24;00:01:05;1.01;0.016;0.119;0.02321287989616394;-0.010995574295520782;0.004886921960860491
01:00:0A:00:00:00:00;1725667266;07/09/24;00:01:06;1.012;0.014;0.119;0.021991148591041565;-0.009773843921720982;0.0073303827084600925
01:00:0A:00:00:00:00;1725667267;07/09/24;00:01:07;1.011;0.015;0.119;0.02321287989616394;-0.010995574295520782;0.0036651913542300463
01:00:0A:00:00:00:00;1725667268;07/09/24;00:01:08;1.011;0.015;0.119;0.021991148591041565;-0.010995574295520782;0.0036651913542300463
01:00:0A:00:00:00:00;1725667269;07/09/24;00:01:09;1.012;0.014;0.119;0.019547687843441963;-0.010995574295520782;0.0073303827084600925
01:00:0A:00:00:00:00;1725667270;07/09/24;00:01:10;1.012;0.014;0.119;0.02076941914856434;-0.010995574295520782;0.004886921960860491
01:00:0A:00:00:00:00;1725667271;07/09/24;00:01:11;1.011;0.017;0.119;0.02076941914856434;-0.010995574295520782;0.0036651913542300463
01:00:0A:00:00:00:00;1725667272;07/09/24;00:01:12;1.012;0.015;0.119;0.018325956538319588;-0.009773843921720982;0.006108652334660292
01:00:0A:00:00:00:00;1725667273;07/09/24;00:01:13;1.012;0.014;0.12;0.019547687843441963;-0.010995574295520782;0.0036651913542300463
01:00:0A:00:00:00:00;1725667274;07/09/24;00:01:14;1.012;0.015;0.118;0.019547687843441963;-0.012217304669320583;0.0036651913542300463
01:00:0A:00:00:00:00;1725667275;07/09/24;00:01:15;1.012;0.014;0.119;0.015882495790719986;-0.009773843921720982;0.0073303827084600925
01:00:0A:00:00:00:00;1725667276;07/09/24;00:01:16;1.012;0.014;0.119;0.018325956538319588;-0.009773843921720982;0.0036651913542300463
01:00:0A:00:00:00:00;1725667277;07/09/24;00:01:17;1.011;0.015;0.119;0.018325956538319588;-0.010995574295520782;0.0012217304902151227
01:00:0A:00:00:00:00;1725667278;07/09/24;00:01:18;1.011;0.015;0.119;0.014660765416920185;-0.010995574295520782;0.0073303827084600925
01:00:0A:00:00:00:00;1725667279;07/09/24;00:01:19;1.011;0.013;0.119;0.01710422709584236;-0.010995574295520782;0.0036651913542300463
01:00:0A:00:00:00:00;1725667280;07/09/24;00:01:20;1.011;0.016;0.119;0.01710422709584236;-0.012217304669320583;0.0024434609804302454
01:00:0A:00:00:00:00;1725667281;07/09/24;00:01:21;1.013;0.015;0.119;0.014660765416920185;-0.010995574295520782;0.006108652334660292
01:00:0A:00:00:00:00;1725667282;07/09/24;00:01:22;1.012;0.013;0.118;0.01710422709584236;-0.009773843921720982;0.0036651913542300463
01:00:0A:00:00:00:00;1725667283;07/09/24;00:01:23;1.011;0.016;0.119;0.01710422709584236;-0.010995574295520782;0.0012217304902151227
01:00:0A:00:00:00:00;1725667284;07/09/24;00:01:24;1.009;0.014;0.119;0.015882495790719986;-0.010995574295520782;0.006108652334660292
01:00:0A:00:00:00:00;1725667285;07/09/24;00:01:25;1.01;0.013;0.119;0.01710422709584236;-0.010995574295520782;0.004886921960860491
01:00:0A:00:00:00:00;1725667286;07/09/24;00:01:26;1.011;0.016;0.119;0.018325956538319588;-0.012217304669320583;0.0024434609804302454
01:00:0A:00:00:00:00;1725667287;07/09/24;00:01:27;1.014;0.017;0.12;0.015882495790719986;-0.010995574295520782;0.006108652334660292
01:00:0A:00:00:00:00;1725667288;07/09/24;00:01:28;1.011;0.012;0.12;0.018325956538319588;-0.010995574295520782;0.0036651913542300463
01:00:0A:00:00:00:00;1725667289;07/09/24;00:01:29;1.011;0.015;0.119;0.02076941914856434;-0.010995574295520782;0.0012217304902151227
01:00:0A:00:00:00:00;1725667290;07/09/24;00:01:30;1.01;0.016;0.119;0.018325956538319588;-0.009773843921720982;0.0073303827084600925
01:00:0A:00:00:00:00;1725667291;07/09/24;00:01:31;1.012;0.013;0.12;0.019547687843441963;-0.010995574295520782;0.006108652334660292
01:00:0A:00:00:00:00;1725667292;07/09/24;00:01:32;1.012;0.015;0.119;0.021991148591041565;-0.012217304669320583;0.0024434609804302454
01:00:0A:00:00:00:00;1725667293;07/09/24;00:01:33;1.013;0.014;0.119;0.019547687843441963;-0.009773843921720982;0.006108652334660292
01:00:0A:00:00:00:00;1725667294;07/09/24;00:01:34;1.012;0.013;0.12;0.021991148591041565;-0.010995574295520782;0.004886921960860491
01:00:0A:00:00:00:00;1725667295;07/09/24;00:01:35;1.011;0.016;0.119;0.024434609338641167;-0.010995574295520782;0.0024434609804302454
01:00:0A:00:00:00:00;1725667296;07/09/24;00:01:36;1.011;0.015;0.119;0.021991148591041565;-0.009773843921720982;0.006108652334660292
01:00:0A:00:00:00:00;1725667297;07/09/24;00:01:37;1.011;0.012;0.12;0.02321287989616394;-0.010995574295520782;0.006108652334660292
01:00:0A:00:00:00:00;1725667298;07/09/24;00:01:38;1.012;0.015;0.119;0.02687807008624077;-0.012217304669320583;0.0012217304902151227
01:00:0A:00:00:00:00;1725667299;07/09/24;00:01:39;1.012;0.016;0.119;0.02321287989616394;-0.009773843921720982;0.0073303827084600925
01:00:0A:00:00:00:00;1725667300;07/09/24;00:01:40;1.011;0.015;0.12;0.024434609338641167;-0.009773843921720982;0.006108652334660292
01:00:0A:00:00:00:00;1725667301;07/09/24;00:01:41;1.011;0.014;0.119;0.02687807008624077;-0.012217304669320583;0.0012217304902151227
01:00:0A:00:00:00:00;1725667302;07/09/24;00:01:42;1.01;0.016;0.118;0.024434609338641167;-0.009773843921720982;0.0073303827084600925
01:00:0A:00:00:00:00;1725667303;07/09/24;00:01:43;1.012;0.013;0.12;0.025656338781118393;-0.010995574295520782;0.006108652334660292
01:00:0A:00:00:00:00;1725667304;07/09/24;00:01:44;1.011;0.015;0.119;0.02932153083384037;-0.013439035043120384;0.0012217304902151227
01:00:0A:00:00:00:00;1725667305;07/09/24;00:01:45;1.012;0.017;0.118;0.025656338781118393;-0.009773843921720982;0.0073303827084600925
01:00:0A:00:00:00:00;1725667306;07/09/24;00:01:46;1.01;0.014;0.12;0.025656338781118393;-0.009773843921720982;0.0073303827084600925
01:00:0A:00:00:00:00;1725667307;07/09/24;00:01:47;1.013;0.015;0.118;0.02932153083384037;-0.012217304669320583;0.0012217304902151227
01:00:0A:00:00:00:00;1725667308;07/09/24;00:01:48;1.011;0.015;0.117;0.025656338781118393;-0.00855211354792118;0.0073303827084600925
01:00:0A:00:00:00:00;1725667309;07/09/24;00:01:49;1.011;0.013;0.121;0.02687807008624077;-0.009773843921720982;0.0073303827084600925
01:00:0A:00:00:00:00;1725667310;07/09/24;00:01:50;1.01;0.015;0.119;0.030543262138962746;-0.014660765416920185;0.0024434609804302454
01:00:0A:00:00:00:00;1725667311;07/09/24;00:01:51;1.012;0.015;0.117;0.02687807008624077;-0.00855211354792118;0.0073303827084600925
01:00:0A:00:00:00:00;1725667312;07/09/24;00:01:52;1.012;0.012;0.12;0.028099799528717995;-0.009773843921720982;0.0073303827084600925
01:00:0A:00:00:00:00;1725667313;07/09/24;00:01:53;1.012;0.013;0.119;0.03176499158143997;-0.013439035043120384;0.0024434609804302454
01:00:0A:00:00:00:00;1725667314;07/09/24;00:01:54;1.011;0.015;0.117;0.028099799528717995;-0.00855211354792118;0.006108652334660292
01:00:0A:00:00:00:00;1725667315;07/09/24;00:01:55;1.011;0.012;0.121;0.028099799528717995;-0.009773843921720982;0.0073303827084600925
01:00:0A:00:00:00:00;1725667316;07/09/24;00:01:56;1.011;0.015;0.118;0.03298672288656235;-0.013439035043120384;0.0024434609804302454
01:00:0A:00:00:00:00;1725667317;07/09/24;00:01:57;1.012;0.016;0.119;0.02932153083384037;-0.00855211354792118;0.0073303827084600925
01:00:0A:00:00:00:00;1725667318;07/09/24;00:01:58;1.013;0.013;0.121;0.02932153083384037;-0.0073303827084600925;0.0073303827084600925
01:00:0A:00:00:00:00;1725667319;07/09/24;00:01:59;1.012;0.015;0.118;0.03420845419168472;-0.013439035043120384;0.0024434609804302454
01:00:0A:00:00:00:00;1725667320;07/09/24;00:02:00;1.011;0.016;0.117;0.02932153083384037;-0.00855211354792118;0.0073303827084600925
01:00:0A:00:00:00:00;1725667321;07/09/24;00:02:01;1.011;0.013;0.121;0.030543262138962746;-0.00855211354792118;0.0073303827084600925
01:00:0A:00:00:00:00;1725667322;07/09/24;00:02:02;1.011;0.014;0.12;0.03420845419168472;-0.014660765416920185;0.0036651913542300463
01:00:0A:00:00:00:00;1725667323;07/09/24;00:02:03;1.013;0.017;0.117;0.030543262138962746;-0.00855211354792118;0.006108652334660292
01:00:0A:00:00:00:00;1725667324;07/09/24;00:02:04;1.012;0.012;0.121;0.030543262138962746;-0.0073303827084600925;0.0073303827084600925
01:00:0A:00:00:00:00;1725667325;07/09/24;00:02:05;1.01;0.014;0.119;0.0354301817715168;-0.014660765416920185;0.0036651913542300463
01:00:0A:00:00:00:00;1725667326;07/09/24;00:02:06;1.01;0.015;0.118;0.030543262138962746;-0.00855211354792118;0.0073303827084600925
01:00:0A:00:00:00:00;1725667327;07/09/24;00:02:07;1.012;0.013;0.122;0.030543262138962746;-0.0073303827084600925;0.0073303827084600925
01:00:0A:00:00:00:00;1725667328;07/09/24;00:02:08;1.011;0.015;0.119;0.0354301817715168;-0.014660765416920185;0.0024434609804302454
01:00:0A:00:00:00:00;1725667329;07/09/24;00:02:09;1.012;0.016;0.118;0.03176499158143997;-0.00855211354792118;0.006108652334660292
01:00:0A:00:00:00:00;1725667330;07/09/24;00:02:10;1.011;0.013;0.122;0.030543262138962746;-0.0073303827084600925;0.006108652334660292
01:00:0A:00:00:00:00;1725667331;07/09/24;00:02:11;1.011;0.014;0.119;0.0354301817715168;-0.015882495790719986;0.0036651913542300463
01:00:0A:00:00:00:00;1725667332;07/09/24;00:02:12;1.011;0.017;0.116;0.03176499158143997;-0.009773843921720982;0.006108652334660292
01:00:0A:00:00:00:00;1725667333;07/09/24;00:02:13;1.011;0.014;0.121;0.030543262138962746;-0.0073303827084600925;0.0073303827084600925
01:00:0A:00:00:00:00;1725667334;07/09/24;00:02:14;1.012;0.015;0.121;0.03420845419168472;-0.014660765416920185;0.0036651913542300463
01:00:0A:00:00:00:00;1725667335;07/09/24;00:02:15;1.012;0.015;0.116;0.030543262138962746;-0.00855211354792118;0.006108652334660292
01:00:0A:00:00:00:00;1725667336;07/09/24;00:02:16;1.011;0.014;0.12;0.030543262138962746;-0.006108652334660292;0.0073303827084600925
01:00:0A:00:00:00:00;1725667337;07/09/24;00:02:17;1.011;0.015;0.12;0.03420845419168472;-0.01710422709584236;0.0036651913542300463
01:00:0A:00:00:00:00;1725667338;07/09/24;00:02:18;1.012;0.016;0.116;0.030543262138962746;-0.010995574295520782;0.0073303827084600925
01:00:0A:00:00:00:00;1725667339;07/09/24;00:02:19;1.012;0.015;0.122;0.02932153083384037;-0.004886921960860491;0.0073303827084600925
01:00:0A:00:00:00:00;1725667340;07/09/24;00:02:20;1.012;0.015;0.12;0.03298672288656235;-0.014660765416920185;0.0036651913542300463
01:00:0A:00:00:00:00;1725667341;07/09/24;00:02:21;1.011;0.016;0.116;0.030543262138962746;-0.010995574295520782;0.006108652334660292
01:00:0A:00:00:00:00;1725667342;07/09/24;00:02:22;1.011;0.014;0.121;0.02932153083384037;-0.006108652334660292;0.006108652334660292
01:00:0A:00:00:00:00;1725667343;07/09/24;00:02:23;1.012;0.015;0.121;0.03298672288656235;-0.015882495790719986;0.004886921960860491
01:00:0A:00:00:00:00;1725667344;07/09/24;00:02:24;1.011;0.015;0.115;0.030543262138962746;-0.010995574295520782;0.0073303827084600925
01:00:0A:00:00:00:00;1725667345;07/09/24;00:02:25;1.011;0.015;0.121;0.028099799528717995;-0.004886921960860491;0.006108652334660292
01:00:0A:00:00:00:00;1725667346;07/09/24;00:02:26;1.011;0.016;0.121;0.03176499158143997;-0.015882495790719986;0.0036651913542300463
01:00:0A:00:00:00:00;1725667347;07/09/24;00:02:27;1.011;0.015;0.115;0.02932153083384037;-0.010995574295520782;0.006108652334660292
01:00:0A:00:00:00:00;1725667348;07/09/24;00:02:28;1.012;0.013;0.121;0.028099799528717995;-0.004886921960860491;0.006108652334660292
01:00:0A:00:00:00:00;1725667349;07/09/24;00:02:29;1.011;0.014;0.121;0.030543262138962746;-0.015882495790719986;0.004886921960860491
01:00:0A:00:00:00:00;1725667350;07/09/24;00:02:30;1.011;0.015;0.116;0.02932153083384037;-0.012217304669320583;0.006108652334660292
01:00:0A:00:00:00:00;1725667351;07/09/24;00:02:31;1.011;0.015;0.121;0.02687807008624077;-0.0036651913542300463;0.006108652334660292
01:00:0A:00:00:00:00;1725667352;07/09/24;00:02:32;1.011;0.014;0.121;0.02932153083384037;-0.014660765416920185;0.0036651913542300463
01:00:0A:00:00:00:00;1725667353;07/09/24;00:02:33;1.011;0.015;0.115;0.028099799528717995;-0.013439035043120384;0.004886921960860491
01:00:0A:00:00:00:00;1725667354;07/09/24;00:02:34;1.011;0.014;0.12;0.025656338781118393;-0.004886921960860491;0.004886921960860491
01:00:0A:00:00:00:00;1725667355;07/09/24;00:02:35;1.011;0.015;0.122;0.028099799528717995;-0.014660765416920185;0.006108652334660292
01:00:0A:00:00:00:00;1725667356;07/09/24;00:02:36;1.013;0.015;0.116;0.02687807008624077;-0.012217304669320583;0.006108652334660292
01:00:0A:00:00:00:00;1725667357;07/09/24;00:02:37;1.011;0.015;0.12;0.025656338781118393;-0.004886921960860491;0.004886921960860491
01:00:0A:00:00:00:00;1725667358;07/09/24;00:02:38;1.011;0.016;0.122;0.028099799528717995;-0.014660765416920185;0.004886921960860491
01:00:0A:00:00:00:00;1725667359;07/09/24;00:02:39;1.012;0.014;0.117;0.02687807008624077;-0.013439035043120384;0.006108652334660292
01:00:0A:00:00:00:00;1725667360;07/09/24;00:02:40;1.011;0.015;0.119;0.024434609338641167;-0.0036651913542300463;0.004886921960860491
01:00:0A:00:00:00:00;1725667361;07/09/24;00:02:41;1.011;0.015;0.122;0.025656338781118393;-0.013439035043120384;0.006108652334660292
01:00:0A:00:00:00:00;1725667362;07/09/24;00:02:42;1.013;0.015;0.116;0.025656338781118393;-0.013439035043120384;0.006108652334660292
01:00:0A:00:00:00:00;1725667363;07/09/24;00:02:43;1.012;0.015;0.119;0.024434609338641167;-0.004886921960860491;0.0036651913542300463
01:00:0A:00:00:00:00;1725667364;07/09/24;00:02:44;1.01;0.015;0.122;0.025656338781118393;-0.013439035043120384;0.006108652334660292
01:00:0A:00:00:00:00;1725667365;07/09/24;00:02:45;1.012;0.015;0.117;0.024434609338641167;-0.014660765416920185;0.006108652334660292
01:00:0A:00:00:00:00;1725667366;07/09/24;00:02:46;1.011;0.015;0.119;0.024434609338641167;-0.004886921960860491;0.0036651913542300463
01:00:0A:00:00:00:00;1725667367;07/09/24;00:02:47;1.01;0.015;0.122;0.024434609338641167;-0.012217304669320583;0.006108652334660292
01:00:0A:00:00:00:00;1725667368;07/09/24;00:02:48;1.012;0.014;0.116;0.024434609338641167;-0.014660765416920185;0.006108652334660292
01:00:0A:00:00:00:00;1725667369;07/09/24;00:02:49;1.011;0.015;0.119;0.024434609338641167;-0.004886921960860491;0.0036651913542300463
01:00:0A:00:00:00:00;1725667370;07/09/24;00:02:50;1.01;0.016;0.122;0.025656338781118393;-0.012217304669320583;0.004886921960860491
01:00:0A:00:00:00:00;1725667371;07/09/24;00:02:51;1.01;0.013;0.117;0.024434609338641167;-0.013439035043120384;0.006108652334660292
01:00:0A:00:00:00:00;1725667372;07/09/24;00:02:52;1.011;0.014;0.118;0.024434609338641167;-0.004886921960860491;0.0036651913542300463
01:00:0A:00:00:00:00;1725667373;07/09/24;00:02:53;1.011;0.016;0.121;0.025656338781118393;-0.012217304669320583;0.006108652334660292
01:00:0A:00:00:00:00;1725667374;07/09/24;00:02:54;1.011;0.014;0.118;0.025656338781118393;-0.014660765416920185;0.0073303827084600925
01:00:0A:00:00:00:00;1725667375;07/09/24;00:02:55;1.012;0.015;0.119;0.024434609338641167;-0.004886921960860491;0.0024434609804302454
01:00:0A:00:00:00:00;1725667376;07/09/24;00:02:56;1.011;0.016;0.122;0.024434609338641167;-0.010995574295520782;0.004886921960860491
01:00:0A:00:00:00:00;1725667377;07/09/24;00:02:57;1.011;0.014;0.118;0.024434609338641167;-0.014660765416920185;0.0073303827084600925
01:00:0A:00:00:00:00;1725667378;07/09/24;00:02:58;1.012;0.014;0.118;0.024434609338641167;-0.004886921960860491;0.0024434609804302454
01:00:0A:00:00:00:00;1725667379;07/09/24;00:02:59;1.011;0.016;0.121;0.024434609338641167;-0.010995574295520782;0.004886921960860491
01:00:0A:00:00:00:00;1725667380;07/09/24;00:03:00;1.012;0.014;0.118;0.024434609338641167;-0.014660765416920185;0.0073303827084600925
01:00:0A:00:00:00:00;1725667381;07/09/24;00:03:01;1.01;0.015;0.117;0.024434609338641167;-0.006108652334660292;0.0024434609804302454
01:00:0A:00:00:00:00;1725667382;07/09/24;00:03:02;1.011;0.016;0.122;0.024434609338641167;-0.010995574295520782;0.004886921960860491
01:00:0A:00:00:00:00;1725667383;07/09/24;00:03:03;1.012;0.013;0.118;0.024434609338641167;-0.014660765416920185;0.0073303827084600925
01:00:0A:00:00:00:00;1725667384;07/09/24;00:03:04;1.011;0.014;0.118;0.024434609338641167;-0.006108652334660292;0.0036651913542300463
01:00:0A:00:00:00:00;1725667385;07/09/24;00:03:05;1.012;0.017;0.122;0.02321287989616394;-0.010995574295520782;0.006108652334660292
01:00:0A:00:00:00:00;1725667386;07/09/24;00:03:06;1.011;0.014;0.118;0.02321287989616394;-0.014660765416920185;0.0073303827084600925
01:00:0A:00:00:00:00;1725667387;07/09/24;00:03:07;1.011;0.014;0.118;0.024434609338641167;-0.006108652334660292;0.0024434609804302454
01:00:0A:00:00:00:00;1725667388;07/09/24;00:03:08;1.011;0.016;0.121;0.02321287989616394;-0.009773843921720982;0.004886921960860491
01:00:0A:00:00:00:00;1725667389;07/09/24;00:03:09;1.012;0.014;0.118;0.021991148591041565;-0.014660765416920185;0.00855211354792118
01:00:0A:00:00:00:00;1725667390;07/09/24;00:03:10;1.011;0.013;0.119;0.02321287989616394;-0.0073303827084600925;0.0024434609804302454
01:00:0A:00:00:00:00;1725667391;07/09/24;00:03:11;1.012;0.017;0.122;0.021991148591041565;-0.009773843921720982;0.004886921960860491
01:00:0A:00:00:00:00;1725667392;07/09/24;00:03:12;1.011;0.014;0.118;0.021991148591041565;-0.014660765416920185;0.0073303827084600925
01:00:0A:00:00:00:00;1725667393;07/09/24;00:03:13;1.011;0.014;0.117;0.02321287989616394;-0.0073303827084600925;0.0012217304902151227
01:00:0A:00:00:00:00;1725667394;07/09/24;00:03:14;1.011;0.017;0.121;0.02076941914856434;-0.009773843921720982;0.004886921960860491
01:00:0A:00:00:00:00;1725667395;07/09/24;00:03:15;1.011;0.014;0.119;0.02076941914856434;-0.014660765416920185;0.0073303827084600925
01:00:0A:00:00:00:00;1725667396;07/09/24;00:03:16;1.011;0.014;0.118;0.021991148591041565;-0.00855211354792118;0.0024434609804302454
01:00:0A:00:00:00:00;1725667397;07/09/24;00:03:17;1.012;0.016;0.12;0.019547687843441963;-0.009773843921720982;0.0036651913542300463
01:00:0A:00:00:00:00;1725667398;07/09/24;00:03:18;1.012;0.013;0.119;0.019547687843441963;-0.014660765416920185;0.0073303827084600925
01:00:0A:00:00:00:00;1725667399;07/09/24;00:03:19;1.011;0.012;0.117;0.02076941914856434;-0.00855211354792118;0.0012217304902151227
01:00:0A:00:00:00:00;1725667400;07/09/24;00:03:20;1.01;0.016;0.122;0.019547687843441963;-0.009773843921720982;0.004886921960860491
01:00:0A:00:00:00:00;1725667401;07/09/24;00:03:21;1.011;0.014;0.12;0.01710422709584236;-0.014660765416920185;0.00855211354792118
01:00:0A:00:00:00:00;1725667402;07/09/24;00:03:22;1.011;0.015;0.118;0.019547687843441963;-0.00855211354792118;0.0012217304902151227
01:00:0A:00:00:00:00;1725667403;07/09/24;00:03:23;1.011;0.016;0.12;0.018325956538319588;-0.00855211354792118;0.0036651913542300463
01:00:0A:00:00:00:00;1725667404;07/09/24;00:03:24;1.011;0.015;0.119;0.01710422709584236;-0.013439035043120384;0.0073303827084600925
01:00:0A:00:00:00:00;1725667405;07/09/24;00:03:25;1.011;0.013;0.118;0.018325956538319588;-0.009773843921720982;0.0012217304902151227
01:00:0A:00:00:00:00;1725667406;07/09/24;00:03:26;1.01;0.017;0.121;0.01710422709584236;-0.00855211354792118;0.0024434609804302454
01:00:0A:00:00:00:00;1725667407;07/09/24;00:03:27;1.011;0.012;0.12;0.014660765416920185;-0.013439035043120384;0.00855211354792118
01:00:0A:00:00:00:00;1725667408;07/09/24;00:03:28;1.012;0.014;0.117;0.01710422709584236;-0.009773843921720982;0.0012217304902151227
01:00:0A:00:00:00:00;1725667409;07/09/24;00:03:29;1.011;0.017;0.12;0.015882495790719986;-0.009773843921720982;0.0036651913542300463
01:00:0A:00:00:00:00;1725667410;07/09/24;00:03:30;1.011;0.014;0.119;0.013439035043120384;-0.014660765416920185;0.0073303827084600925
01:00:0A:00:00:00:00;1725667411;07/09/24;00:03:31;1.012;0.013;0.119;0.015882495790719986;-0.009773843921720982;0.0012217304902151227
01:00:0A:00:00:00:00;1725667412;07/09/24;00:03:32;1.01;0.017;0.12;0.014660765416920185;-0.00855211354792118;0.0024434609804302454
01:00:0A:00:00:00:00;1725667413;07/09/24;00:03:33;1.011;0.015;0.12;0.012217304669320583;-0.013439035043120384;0.00855211354792118
01:00:0A:00:00:00:00;1725667414;07/09/24;00:03:34;1.012;0.013;0.119;0.014660765416920185;-0.009773843921720982;0.0012217304902151227
01:00:0A:00:00:00:00;1725667415;07/09/24;00:03:35;1.011;0.017;0.12;0.014660765416920185;-0.009773843921720982;0.0012217304902151227
01:00:0A:00:00:00:00;1725667416;07/09/24;00:03:36;1.012;0.014;0.121;0.010995574295520782;-0.013439035043120384;0.00855211354792118
01:00:0A:00:00:00:00;1725667417;07/09/24;00:03:37;1.012;0.013;0.118;0.014660765416920185;-0.010995574295520782;0.0024434609804302454
01:00:0A:00:00:00:00;1725667418;07/09/24;00:03:38;1.011;0.017;0.12;0.013439035043120384;-0.00855211354792118;0.0024434609804302454
01:00:0A:00:00:00:00;1725667419;07/09/24;00:03:39;1.011;0.014;0.12;0.010995574295520782;-0.013439035043120384;0.0073303827084600925
01:00:0A:00:00:00:00;1725667420;07/09/24;00:03:40;1.012;0.013;0.117;0.013439035043120384;-0.010995574295520782;0.0012217304902151227
01:00:0A:00:00:00:00;1725667421;07/09/24;00:03:41;1.013;0.017;0.12;0.012217304669320583;-0.009773843921720982;0.0024434609804302454
01:00:0A:00:00:00:00;1725667422;07/09/24;00:03:42;1.011;0.015;0.12;0.009773843921720982;-0.013439035043120384;0.00855211354792118
01:00:0A:00:00:00:00;1725667423;07/09/24;00:03:43;1.011;0.012;0.119;0.012217304669320583;-0.010995574295520782;0.0024434609804302454
01:00:0A:00:00:00:00;1725667424;07/09/24;00:03:44;1.011;0.016;0.119;0.012217304669320583;-0.00855211354792118;0.0012217304902151227
01:00:0A:00:00:00:00;1725667425;07/09/24;00:03:45;1.011;0.014;0.12;0.009773843921720982;-0.013439035043120384;0.00855211354792118
01:00:0A:00:00:00:00;1725667426;07/09/24;00:03:46;1.011;0.013;0.118;0.012217304669320583;-0.012217304669320583;0.0024434609804302454
01:00:0A:00:00:00:00;1725667427;07/09/24;00:03:47;1.011;0.017;0.12;0.012217304669320583;-0.009773843921720982;0.0012217304902151227
01:00:0A:00:00:00:00;1725667428;07/09/24;00:03:48;1.012;0.015;0.119;0.00855211354792118;-0.013439035043120384;0.00855211354792118
01:00:0A:00:00:00:00;1725667429;07/09/24;00:03:49;1.012;0.013;0.118;0.012217304669320583;-0.010995574295520782;0.0024434609804302454
01:00:0A:00:00:00:00;1725667430;07/09/24;00:03:50;1.011;0.017;0.12;0.012217304669320583;-0.00855211354792118;0.0012217304902151227
01:00:0A:00:00:00:00;1725667431;07/09/24;00:03:51;1.012;0.016;0.12;0.00855211354792118;-0.012217304669320583;0.00855211354792118
01:00:0A:00:00:00:00;1725667432;07/09/24;00:03:52;1.011;0.013;0.117;0.012217304669320583;-0.012217304669320583;0.0036651913542300463
01:00:0A:00:00:00:00;1725667433;07/09/24;00:03:53;1.01;0.015;0.119;0.012217304669320583;-0.009773843921720982;0.0012217304902151227
01:00:0A:00:00:00:00;1725667434;07/09/24;00:03:54;1.012;0.015;0.12;0.00855211354792118;-0.012217304669320583;0.0073303827084600925
01:00:0A:00:00:00:00;1725667435;07/09/24;00:03:55;1.011;0.012;0.119;0.010995574295520782;-0.010995574295520782;0.0036651913542300463
01:00:0A:00:00:00:00;1725667436;07/09/24;00:03:56;1.01;0.017;0.119;0.012217304669320583;-0.009773843921720982;0.0012217304902151227
01:00:0A:00:00:00:00;1725667437;07/09/24;00:03:57;1.01;0.016;0.119;0.00855211354792118;-0.012217304669320583;0.00855211354792118
01:00:0A:00:00:00:00;1725667438;07/09/24;00:03:58;1.011;0.012;0.118;0.010995574295520782;-0.012217304669320583;0.0036651913542300463
01:00:0A:00:00:00:00;1725667439;07/09/24;00:03:59;1.011;0.016;0.12;0.012217304669320583;-0.009773843921720982;0.0012217304902151227
01:00:0A:00:00:00:00;1725667440;07/09/24;00:04:00;1.011;0.015;0.12;0.00855211354792118;-0.012217304669320583;0.0073303827084600925
01:00:0A:00:00:00:00;1725667441;07/09/24;00:04:01;1.012;0.013;0.119;0.010995574295520782;-0.010995574295520782;0.0036651913542300463
01:00:0A:00:00:00:00;1725667442;07/09/24;00:04:02;1.012;0.016;0.119;0.012217304669320583;-0.009773843921720982;0.0
01:00:0A:00:00:00:00;1725667443;07/09/24;00:04:03;1.012;0.016;0.12;0.00855211354792118;-0.012217304669320583;0.0073303827084600925
01:00:0A:00:00:00:00;1725667444;07/09/24;00:04:04;1.012;0.014;0.119;0.010995574295520782;-0.012217304669320583;0.0036651913542300463
01:00:0A:00:00:00:00;1725667445;07/09/24;00:04:05;1.011;0.016;0.119;0.012217304669320583;-0.009773843921720982;0.0
01:00:0A:00:00:00:00;1725667446;07/09/24;00:04:06;1.012;0.015;0.12;0.00855211354792118;-0.012217304669320583;0.0073303827084600925
01:00:0A:00:00:00:00;1725667447;07/09/24;00:04:07;1.011;0.012;0.118;0.009773843921720982;-0.012217304669320583;0.0036651913542300463
01:00:0A:00:00:00:00;1725667448;07/09/24;00:04:08;1.011;0.016;0.119;0.010995574295520782;-0.009773843921720982;0.0
01:00:0A:00:00:00:00;1725667449;07/09/24;00:04:09;1.011;0.016;0.12;0.0073303827084600925;-0.012217304669320583;0.0073303827084600925
01:00:0A:00:00:00:00;1725667450;07/09/24;00:04:10;1.011;0.013;0.119;0.009773843921720982;-0.012217304669320583;0.0036651913542300463
01:00:0A:00:00:00:00;1725667451;07/09/24;00:04:11;1.011;0.016;0.117;0.009773843921720982;-0.010995574295520782;0.0
01:00:0A:00:00:00:00;1725667452;07/09/24;00:04:12;1.005;0.015;0.117;0.00855211354792118;-0.019547687843441963;0.0073303827084600925
01:00:0A:00:00:00:00;1725667453;07/09/24;00:04:13;1.01;0.015;0.122;0.00855211354792118;-0.018325956538319588;0.010995574295520782
01:00:0A:00:00:00:00;1725667454;07/09/24;00:04:14;1.022;0.019;0.124;0.009773843921720982;-0.012217304669320583;0.0036651913542300463
01:00:0A:00:00:00:00;1725667455;07/09/24;00:04:15;1.028;0.018;0.127;0.012217304669320583;0.0024434609804302454;-0.0036651913542300463
01:00:0A:00:00:00:00;1725667456;07/09/24;00:04:16;1.007;0.017;0.121;0.012217304669320583;0.00855211354792118;0.0
01:00:0A:00:00:00:00;1725667457;07/09/24;00:04:17;0.987;0.017;0.11;0.013439035043120384;0.0;-0.0036651913542300463
01:00:0A:00:00:00:00;1725667458;07/09/24;00:04:18;0.983;0.014;0.108;0.01710422709584236;-0.02687807008624077;-0.009773843921720982
01:00:0A:00:00:00:00;1725667459;07/09/24;00:04:19;1.005;0.002;0.113;0.012217304669320583;-0.04153883829712868;0.010995574295520782
01:00:0A:00:00:00:00;1725667460;07/09/24;00:04:20;1.044;-0.002;0.122;0.014660765416920185;-0.02321287989616394;0.03176499158143997
01:00:0A:00:00:00:00;1725667461;07/09/24;00:04:21;1.051;0.015;0.117;0.015882495790719986;-0.0073303827084600925;0.0354301817715168
01:00:0A:00:00:00:00;1725667462;07/09/24;00:04:22;1.021;0.031;0.121;0.01710422709584236;0.009773843921720982;-0.0012217304902151227
01:00:0A:00:00:00:00;1725667463;07/09/24;00:04:23;0.986;0.049;0.126;0.004886921960860491;0.02076941914856434;-0.02932153083384037
01:00:0A:00:00:00:00;1725667464;07/09/24;00:04:24;0.973;0.014;0.131;0.0073303827084600925;-0.03176499158143997;0.012217304669320583
01:00:0A:00:00:00:00;1725667465;07/09/24;00:04:25;1.006;0.016;0.119;0.05497787147760391;-0.04764748737215996;-0.08674286305904388
01:00:0A:00:00:00:00;1725667466;07/09/24;00:04:26;1.052;0.059;0.113;-0.028099799528717995;0.036651913076639175;0.019547687843441963
01:00:0A:00:00:00:00;1725667467;07/09/24;00:04:27;1.042;-0.034;0.135;-0.030543262138962746;0.03298672288656235;0.06719517707824707
01:00:0A:00:00:00:00;1725667468;07/09/24;00:04:28;0.994;0.042;0.078;0.013439035043120384;-0.05009094998240471;-0.08796459436416626
01:00:0A:00:00:00:00;1725667469;07/09/24;00:04:29;0.93;0.005;0.118;-0.06475171446800232;0.009773843921720982;0.14538592100143433
01:00:0A:00:00:00:00;1725667470;07/09/24;00:04:30;0.958;0.011;0.118;0.06719517707824707;-0.21991148591041565;-0.12339477241039276
01:00:0A:00:00:00:00;1725667471;07/09/24;00:04:31;1.053;0.065;0.079;-0.1062905490398407;0.1563815027475357;0.21624629199504852
01:00:0A:00:00:00:00;1725667472;07/09/24;00:04:32;1.072;-0.162;0.234;0.17470745742321014;-0.13805554807186127;-0.23090705275535583
01:00:0A:00:00:00:00;1725667473;07/09/24;00:04:33;1.03;0.305;-0.123;-0.025656338781118393;-0.12217304855585098;-0.14782939851284027
01:00:0A:00:00:00:00;1725667474;07/09/24;00:04:34;0.929;-0.452;0.229;0.024434609338641167;0.2382374405860901;0.7073819637298584
01:00:0A:00:00:00:00;1725667475;07/09/24;00:04:35;0.968;0.195;-0.018;0.5424482822418213;-0.39828410744667053;-0.7550294399261475
01:00:0A:00:00:00:00;1725667476;07/09/24;00:04:36;0.956;0.043;0.106;-0.07941248267889023;0.3445279896259308;0.6609562039375305
01:00:0A:00:00:00:00;1725667477;07/09/24;00:04:37;0.964;-0.131;0.136;0.5119050741195679;-0.34208452701568604;-0.38117989897727966
01:00:0A:00:00:00:00;1725667478;07/09/24;00:04:38;1.0;0.281;0.086;0.3701843321323395;0.4740314185619354;0.12950342893600464
01:00:0A:00:00:00:00;1725667479;07/09/24;00:04:39;1.052;-0.122;0.085;1.0665706396102905;0.013439035043120384;0.0073303827084600925
01:00:0A:00:00:00:00;1725667480;07/09/24;00:04:40;0.983;-0.006;0.31;1.2657127380371094;-0.11728612333536148;0.19058994948863983
01:00:0A:00:00:00:00;1725667481;07/09/24;00:04:41;0.953;-0.222;-0.041;1.4563027620315552;-0.5448917746543884;0.03787364438176155
01:00:0A:00:00:00:00;1725667482;07/09/24;00:04:42;0.96;0.024;-0.064;1.7263051271438599;-0.09896016865968704;-0.8881980776786804
01:00:0A:00:00:00:00;1725667483;07/09/24;00:04:43;0.982;0.102;-0.138;1.243721604347229;0.5461135506629944;-0.0073303827084600925
01:00:0A:00:00:00:00;1725667484;07/09/24;00:04:44;1.031;0.08;0.152;1.0873401165008545;0.09896016865968704;0.06352998316287994
01:00:0A:00:00:00:00;1725667485;07/09/24;00:04:45;1.06;0.038;0.099;1.0042624473571777;0.0659734457731247;0.10262535512447357
01:00:0A:00:00:00:00;1725667486;07/09/24;00:04:46;1.013;0.216;0.082;0.7562511563301086;0.09162978082895279;-0.19914205372333527
01:00:0A:00:00:00:00;1725667487;07/09/24;00:04:47;0.969;0.021;0.11;0.3701843321323395;0.1722639948129654;0.3579670488834381
01:00:0A:00:00:00:00;1725667488;07/09/24;00:04:48;0.939;0.035;0.169;0.4862487316131592;-0.006108652334660292;-0.006108652334660292
01:00:0A:00:00:00:00;1725667489;07/09/24;00:04:49;0.976;-0.026;0.206;0.45204028487205505;-0.14905111491680145;0.29565879702568054
01:00:0A:00:00:00:00;1725667490;07/09/24;00:04:50;1.002;-0.107;0.267;0.7550294399261475;-0.32131510972976685;0.014660765416920185
01:00:0A:00:00:00:00;1725667491;07/09/24;00:04:51;1.068;-0.121;0.158;0.8600982427597046;-0.13927726447582245;0.10018189996480942
01:00:0A:00:00:00:00;1725667492;07/09/24;00:04:52;1.067;-0.127;0.098;1.0555751323699951;-0.20402899384498596;-0.04642575979232788
01:00:0A:00:00:00:00;1725667493;07/09/24;00:04:53;1.004;-0.065;-0.135;1.0690141916275024;-0.43860122561454773;-0.09896016865968704
01:00:0A:00:00:00:00;1725667494;07/09/24;00:04:54;0.971;-0.003;0.029;0.9639453291893005;0.2773328125476837;-0.35063666105270386
01:00:0A:00:00:00:00;1725667495;07/09/24;00:04:55;0.963;0.024;0.116;0.7061601877212524;0.10262535512447357;0.19425514340400696
01:00:0A:00:00:00:00;1725667496;07/09/24;00:04:56;1.005;-0.014;0.093;0.6902776956558228;-0.16982054710388184;0.02687807008624077
01:00:0A:00:00:00:00;1725667497;07/09/24;00:04:57;1.033;-0.058;0.001;0.5827654600143433;0.06841690838336945;0.0012217304902151227
01:00:0A:00:00:00:00;1725667498;07/09/24;00:04:58;1.052;-0.005;0.134;0.5595525503158569;0.024434609338641167;0.0036651913542300463
01:00:0A:00:00:00:00;1725667499;07/09/24;00:04:59;1.057;0.0;0.025;0.513126790523529;-0.10873401165008545;0.009773843921720982
01:00:0A:00:00:00:00;1725667500;07/09/24;00:05:00;1.032;-0.109;0.04;0.46547931432724;0.06475171446800232;0.06108652427792549
01:00:0A:00:00:00:00;1725667501;07/09/24;00:05:01;0.984;0.136;0.122;0.4740314185619354;0.14905111491680145;-0.3335324227809906
01:00:0A:00:00:00:00;1725667502;07/09/24;00:05:02;0.987;0.046;-0.06;0.15515977144241333;-0.15393804013729095;0.24190263450145721
01:00:0A:00:00:00:00;1725667503;07/09/24;00:05:03;0.975;-0.014;0.161;0.11972958594560623;0.5766568183898926;0.11972958594560623
01:00:0A:00:00:00:00;1725667504;07/09/24;00:05:04;0.891;-0.066;0.374;0.39706242084503174;-0.7232644557952881;0.6365215182304382
01:00:0A:00:00:00:00;1725667505;07/09/24;00:05:05;0.966;-0.275;0.048;1.0348056554794312;-0.6682865619659424;-0.32620203495025635
01:00:0A:00:00:00:00;1725667506;07/09/24;00:05:06;1.027;-0.066;-0.098;1.1899654865264893;0.16371189057826996;-0.35552355647087097
01:00:0A:00:00:00:00;1725667507;07/09/24;00:05:07;1.015;0.215;0.166;0.9260717034339905;0.2871066629886627;0.09651670604944229
01:00:0A:00:00:00:00;1725667508;07/09/24;00:05:08;0.975;-0.001;0.334;0.8038986325263977;0.1576032191514969;0.35063666105270386
01:00:0A:00:00:00:00;1725667509;07/09/24;00:05:09;0.972;-0.077;0.177;0.959058403968811;-0.42271876335144043;0.4080579876899719
01:00:0A:00:00:00:00;1725667510;07/09/24;00:05:10;0.985;-0.123;0.137;1.1887438297271729;-0.20891590416431427;-0.18448130786418915
01:00:0A:00:00:00:00;1725667511;07/09/24;00:05:11;1.016;0.106;0.04;0.9138543605804443;0.23457224667072296;0.1661553531885147
01:00:0A:00:00:00:00;1725667512;07/09/24;00:05:12;1.027;0.099;0.274;0.6829473376274109;0.09529497474431992;0.2565633952617645
01:00:0A:00:00:00:00;1725667513;07/09/24;00:05:13;1.064;-0.075;0.148;0.7305948734283447;-0.1869247555732727;0.05864306166768074
01:00:0A:00:00:00:00;1725667514;07/09/24;00:05:14;1.036;0.011;-0.106;0.6670648455619812;-0.04764748737215996;-0.1111774742603302
01:00:0A:00:00:00:00;1725667515;07/09/24;00:05:15;0.953;0.177;0.286;0.5021312236785889;0.38728854060173035;-0.16982054710388184
01:00:0A:00:00:00:00;1725667516;07/09/24;00:05:16;0.984;0.077;0.0;0.21380282938480377;-0.485027015209198;0.2871066629886627
01:00:0A:00:00:00:00;1725667517;07/09/24;00:05:17;0.985;-0.081;0.061;0.0708603635430336;0.5864306092262268;0.07696902006864548
01:00:0A:00:00:00:00;1725667518;07/09/24;00:05:18;0.934;0.095;0.355;0.2687807083129883;-0.12217304855585098;-0.12339477241039276
01:00:0A:00:00:00:00;1725667519;07/09/24;00:05:19;1.018;-0.085;0.07;0.2076941877603531;-0.19303341209888458;0.34208452701568604
01:00:0A:00:00:00:00;1725667520;07/09/24;00:05:20;1.0;0.007;0.177;0.3689626157283783;0.1771509200334549;-0.24190263450145721
01:00:0A:00:00:00:00;1725667521;07/09/24;00:05:21;0.976;0.081;0.085;0.22113320231437683;-0.07941248267889023;0.025656338781118393
01:00:0A:00:00:00:00;1725667522;07/09/24;00:05:22;0.98;-0.078;0.045;0.21991148591041565;0.10262535512447357;0.05742133408784866
01:00:0A:00:00:00:00;1725667523;07/09/24;00:05:23;1.001;0.072;0.134;0.3848450779914856;0.02932153083384037;-0.19058994948863983
01:00:0A:00:00:00:00;1725667524;07/09/24;00:05:24;0.984;0.29;0.138;0.05864306166768074;0.13561207056045532;0.2895500957965851
01:00:0A:00:00:00:00;1725667525;07/09/24;00:05:25;0.991;-0.162;0.304;0.2382374405860901;-0.1014036238193512;0.3946189284324646
01:00:0A:00:00:00:00;1725667526;07/09/24;00:05:26;0.933;-0.327;0.325;0.96883225440979;-0.46547931432724;0.1466076523065567
01:00:0A:00:00:00:00;1725667527;07/09/24;00:05:27;1.002;-0.163;0.14;1.4049899578094482;-0.4251621961593628;0.02321287989616394
01:00:0A:00:00:00:00;1725667528;07/09/24;00:05:28;1.029;0.041;0.058;1.4062117338180542;-0.1466076523065567;-0.08674286305904388
01:00:0A:00:00:00:00;1725667529;07/09/24;00:05:29;1.032;-0.017;0.197;1.2082914113998413;0.34574973583221436;0.1014036238193512
01:00:0A:00:00:00:00;1725667530;07/09/24;00:05:30;0.945;0.206;0.425;1.1191051006317139;0.19058994948863983;0.37629297375679016
01:00:0A:00:00:00:00;1725667531;07/09/24;00:05:31;1.017;-0.186;0.126;1.0885618925094604;-0.15393804013729095;0.4691444933414459
01:00:0A:00:00:00:00;1725667532;07/09/24;00:05:32;0.998;0.142;0.159;1.2486084699630737;-0.018325956538319588;-0.2626720666885376
01:00:0A:00:00:00:00;1725667533;07/09/24;00:05:33;0.98;0.147;0.175;0.7635815143585205;0.3799581527709961;0.3701843321323395
01:00:0A:00:00:00:00;1725667534;07/09/24;00:05:34;0.953;0.039;0.351;0.7953465580940247;-0.02321287989616394;0.3237585723400116
01:00:0A:00:00:00:00;1725667535;07/09/24;00:05:35;1.012;0.078;0.173;0.7929030656814575;-0.21624629199504852;0.26511549949645996
01:00:0A:00:00:00:00;1725667536;07/09/24;00:05:36;1.03;-0.146;0.134;0.8014551997184753;0.09285151958465576;0.20402899384498596
01:00:0A:00:00:00:00;1725667537;07/09/24;00:05:37;1.013;0.123;0.107;0.8087855577468872;-0.10506881773471832;-0.1661553531885147
01:00:0A:00:00:00:00;1725667538;07/09/24;00:05:38;1.009;-0.003;0.093;0.4691444933414459;0.14782939851284027;0.2382374405860901
01:00:0A:00:00:00:00;1725667539;07/09/24;00:05:39;0.989;-0.019;0.166;0.5265658497810364;-0.00855211354792118;0.02932153083384037
01:00:0A:00:00:00:00;1725667540;07/09/24;00:05:40;0.991;0.035;0.194;0.4740314185619354;0.17837265133857727;0.10995574295520782
01:00:0A:00:00:00:00;1725667541;07/09/24;00:05:41;0.959;0.003;0.384;0.5693264007568359;0.0659734457731247;0.2565633952617645
01:00:0A:00:00:00:00;1725667542;07/09/24;00:05:42;0.977;-0.092;0.352;0.8332201242446899;-0.1111774742603302;0.31154125928878784
01:00:0A:00:00:00:00;1725667543;07/09/24;00:05:43;0.998;-0.127;0.266;1.0934487581253052;-0.37262779474258423;0.2993239760398865
01:00:0A:00:00:00:00;1725667544;07/09/24;00:05:44;0.978;-0.268;0.116;1.4086552858352661;-0.322536826133728;0.030543262138962746
01:00:0A:00:00:00:00;1725667545;07/09/24;00:05:45;1.027;-0.003;0.04;1.5125023126602173;-0.2993239760398865;0.019547687843441963
01:00:0A:00:00:00:00;1725667546;07/09/24;00:05:46;0.956;-0.253;0.365;1.6163493394851685;-0.3323107063770294;0.32498031854629517
01:00:0A:00:00:00:00;1725667547;07/09/24;00:05:47;0.961;-0.319;0.23;1.927890658378601;-0.5791001915931702;0.48869219422340393
01:00:0A:00:00:00:00;1725667548;07/09/24;00:05:48;0.995;-0.069;0.207;2.087937355041504;-0.3787364363670349;0.27611109614372253
01:00:0A:00:00:00:00;1725667549;07/09/24;00:05:49;0.988;-0.061;0.168;1.9132298231124878;0.24923302233219147;-0.014660765416920185
01:00:0A:00:00:00:00;1725667550;07/09/24;00:05:50;0.904;0.41;0.028;1.2363911867141724;0.3543018400669098;0.045204028487205505
01:00:0A:00:00:00:00;1725667551;07/09/24;00:05:51;0.867;0.382;0.327;0.11484266817569733;0.6866125464439392;0.5314527750015259
01:00:0A:00:00:00:00;1725667552;07/09/24;00:05:52;0.847;-0.02;0.569;0.2015855312347412;-0.20891590416431427;0.5277875661849976
01:00:0A:00:00:00:00;1725667553;07/09/24;00:05:53;1.002;-0.088;0.103;0.6230825185775757;-0.7318165302276611;0.1258382350206375
01:00:0A:00:00:00:00;1725667554;07/09/24;00:05:54;0.966;-0.06;-0.197;0.5791001915931702;-0.07330382615327835;-0.1918116807937622
01:00:0A:00:00:00:00;1725667555;07/09/24;00:05:55;0.998;0.034;0.122;0.39095374941825867;0.6365215182304382;0.09162978082895279
01:00:0A:00:00:00:00;1725667556;07/09/24;00:05:56;0.974;0.009;0.233;0.44348815083503723;-0.513126790523529;0.35063666105270386
01:00:0A:00:00:00:00;1725667557;07/09/24;00:05:57;1.017;-0.152;-0.073;0.4960225820541382;0.0659734457731247;-0.10751228034496307
01:00:0A:00:00:00:00;1725667558;07/09/24;00:05:58;1.018;0.174;0.177;0.39584067463874817;0.21868975460529327;0.07452555745840073
01:00:0A:00:00:00:00;1725667559;07/09/24;00:05:59;0.99;0.008;0.376;0.3946189284324646;-0.0036651913542300463;0.4544837474822998
01:00:0A:00:00:00:00;1725667560;07/09/24;00:06:00;0.971;-0.331;0.066;0.8784241676330566;-0.5803219676017761;0.17348572611808777
01:00:0A:00:00:00:00;1725667561;07/09/24;00:06:01;0.989;-0.121;-0.003;1.292590856552124;-0.313984751701355;-0.4202752709388733
01:00:0A:00:00:00:00;1725667562;07/09/24;00:06:02;0.976;0.118;0.147;1.0396926403045654;0.28466320037841797;0.03298672288656235
01:00:0A:00:00:00:00;1725667563;07/09/24;00:06:03;0.99;0.108;0.171;0.8576548099517822;-0.35063666105270386;0.4105014204978943
01:00:0A:00:00:00:00;1725667564;07/09/24;00:06:04;1.039;-0.085;-0.01;1.0213667154312134;0.16493360698223114;-0.35552355647087097
01:00:0A:00:00:00:00;1725667565;07/09/24;00:06:05;0.977;0.344;0.169;0.8698720932006836;0.24923302233219147;-0.07330382615327835
01:00:0A:00:00:00:00;1725667566;07/09/24;00:06:06;0.999;0.192;0.131;0.3848450779914856;0.48380526900291443;0.5314527750015259
01:00:0A:00:00:00:00;1725667567;07/09/24;00:06:07;0.722;-0.308;0.638;0.7293730974197388;-0.2015855312347412;1.1679743528366089
01:00:0A:00:00:00:00;1725667568;07/09/24;00:06:08;0.723;-0.371;0.564;1.606575608253479;-1.1362093687057495;1.3158037662506104
01:00:0A:00:00:00:00;1725667569;07/09/24;00:06:09;0.913;-0.208;0.402;2.177123785018921;-0.7941248416900635;0.7195992469787598
01:00:0A:00:00:00:00;1725667570;07/09/24;00:06:10;1.01;-0.185;-0.04;2.1624629497528076;-0.29565879702568054;0.039095375686883926
01:00:0A:00:00:00:00;1725667571;07/09/24;00:06:11;1.015;0.129;0.25;2.0732765197753906;0.5717698335647583;0.15515977144241333
01:00:0A:00:00:00:00;1725667572;07/09/24;00:06:12;0.977;0.247;0.3;1.6542229652404785;0.01710422709584236;0.7489207983016968
01:00:0A:00:00:00:00;1725667573;07/09/24;00:06:13;0.935;-0.346;0.29;1.8350391387939453;-0.06719517707824707;0.5387831330299377
01:00:0A:00:00:00:00;1725667574;07/09/24;00:06:14;1.008;0.11;0.045;1.9498817920684814;-0.37140607833862305;0.4605923891067505
01:00:0A:00:00:00:00;1725667575;07/09/24;00:06:15;0.948;-0.207;0.283;1.9889771938323975;0.294437050819397;0.17104226350784302
01:00:0A:00:00:00:00;1725667576;07/09/24;00:06:16;0.98;0.203;0.033;1.6566665172576904;-0.09773843735456467;0.4337143301963806
01:00:0A:00:00:00:00;1725667577;07/09/24;00:06:17;1.015;-0.124;0.11;1.4844024181365967;0.08918632566928864;-0.11728612333536148
01:00:0A:00:00:00:00;1725667578;07/09/24;00:06:18;1.039;0.014;-0.025;1.2889256477355957;-0.0354301817715168;0.18814648687839508
01:00:0A:00:00:00:00;1725667579;07/09/24;00:06:19;1.015;-0.066;0.321;1.3365731239318848;0.18081611394882202;-0.05742133408784866
01:00:0A:00:00:00:00;1725667580;07/09/24;00:06:20;1.022;0.18;0.07;1.0897835493087769;-0.05497787147760391;0.07941248267889023
01:00:0A:00:00:00:00;1725667581;07/09/24;00:06:21;1.013;-0.02;0.217;0.9077457189559937;0.2321287840604782;0.05619959905743599
01:00:0A:00:00:00:00;1725667582;07/09/24;00:06:22;0.994;0.044;0.06;0.891863226890564;-0.2687807083129883;0.00855211354792118
01:00:0A:00:00:00:00;1725667583;07/09/24;00:06:23;0.98;-0.044;0.033;0.7513642311096191;0.17592918872833252;-0.07941248267889023
01:00:0A:00:00:00:00;1725667584;07/09/24;00:06:24;0.99;0.049;0.156;0.7098253965377808;0.09162978082895279;-0.02932153083384037
01:00:0A:00:00:00:00;1725667585;07/09/24;00:06:25;1.02;-0.013;0.187;0.6475171446800232;-0.0073303827084600925;0.21868975460529327
01:00:0A:00:00:00:00;1725667586;07/09/24;00:06:26;1.038;-0.063;0.152;0.7635815143585205;-0.0036651913542300463;-0.05619959905743599
01:00:0A:00:00:00:00;1725667587;07/09/24;00:06:27;1.026;0.096;0.029;0.616973876953125;0.039095375686883926;-0.08552113175392151
01:00:0A:00:00:00:00;1725667588;07/09/24;00:06:28;0.981;-0.001;0.171;0.3689626157283783;0.2736676335334778;0.2541199326515198
01:00:0A:00:00:00:00;1725667589;07/09/24;00:06:29;0.955;-0.026;0.157;0.5180137157440186;-0.15393804013729095;0.11484266817569733
01:00:0A:00:00:00:00;1725667590;07/09/24;00:06:30;0.976;-0.025;0.059;0.5681046843528748;-0.08918632566928864;0.04398229718208313
01:00:0A:00:00:00:00;1725667591;07/09/24;00:06:31;1.041;0.002;0.111;0.5351179242134094;0.1062905490398407;-0.010995574295520782
01:00:0A:00:00:00:00;1725667592;07/09/24;00:06:32;1.058;0.086;0.202;0.4495967924594879;-0.08307767659425735;0.1673770695924759
01:00:0A:00:00:00:00;1725667593;07/09/24;00:06:33;1.062;-0.265;0.04;0.5607742667198181;-0.039095375686883926;0.1111774742603302
01:00:0A:00:00:00:00;1725667594;07/09/24;00:06:34;1.02;0.258;0.116;0.5314527750015259;0.12095131725072861;-0.21135938167572021
01:00:0A:00:00:00:00;1725667595;07/09/24;00:06:35;0.992;-0.148;0.188;0.2883284091949463;0.2028072476387024;0.5962044596672058
01:00:0A:00:00:00:00;1725667596;07/09/24;00:06:36;1.001;0.081;0.042;0.6218608021736145;-0.24068090319633484;-0.294437050819397
01:00:0A:00:00:00:00;1725667597;07/09/24;00:06:37;0.96;0.069;0.044;0.2981022298336029;0.18081611394882202;0.12095131725072861
01:00:0A:00:00:00:00;1725667598;07/09/24;00:06:38;0.948;0.005;0.163;0.28588491678237915;-0.07452555745840073;0.12217304855585098
01:00:0A:00:00:00:00;1725667599;07/09/24;00:06:39;0.988;0.044;0.121;0.32009339332580566;-0.24190263450145721;0.00855211354792118
01:00:0A:00:00:00:00;1725667600;07/09/24;00:06:40;1.036;0.068;0.007;0.16249015927314758;0.15027284622192383;0.018325956538319588
01:00:0A:00:00:00:00;1725667601;07/09/24;00:06:41;1.028;-0.002;0.222;0.1722639948129654;0.02687807008624077;-0.024434609338641167
01:00:0A:00:00:00:00;1725667602;07/09/24;00:06:42;1.037;0.023;0.077;0.18936821818351746;-0.10018189996480942;-0.01710422709584236
01:00:0A:00:00:00:00;1725667603;07/09/24;00:06:43;1.02;0.01;0.075;0.10995574295520782;0.06963863223791122;0.051312677562236786
01:00:0A:00:00:00:00;1725667604;07/09/24;00:06:44;1.004;0.005;0.153;0.14416420459747314;0.006108652334660292;0.03176499158143997
01:00:0A:00:00:00:00;1725667605;07/09/24;00:06:45;1.013;0.002;0.111;0.1918116807937622;-0.09407324343919754;0.015882495790719986
01:00:0A:00:00:00:00;1725667606;07/09/24;00:06:46;1.008;-0.025;0.095;0.1966986060142517;0.06963863223791122;0.013439035043120384
01:00:0A:00:00:00:00;1725667607;07/09/24;00:06:47;0.994;0.001;0.156;0.2321287840604782;0.09896016865968704;-0.0024434609804302454
01:00:0A:00:00:00:00;1725667608;07/09/24;00:06:48;0.999;0.021;0.128;0.2223549485206604;-0.06230825558304787;0.09162978082895279
01:00:0A:00:00:00:00;1725667609;07/09/24;00:06:49;1.024;-0.007;0.095;0.2223549485206604;-0.0036651913542300463;0.06352998316287994
01:00:0A:00:00:00:00;1725667610;07/09/24;00:06:50;1.033;0.029;0.139;0.2577851116657257;-0.006108652334660292;-0.00855211354792118
01:00:0A:00:00:00:00;1725667611;07/09/24;00:06:51;1.032;0.041;0.131;0.23579397797584534;-0.02321287989616394;0.009773843921720982
01:00:0A:00:00:00:00;1725667612;07/09/24;00:06:52;1.023;-0.01;0.135;0.22357667982578278;0.03298672288656235;0.03420845419168472
01:00:0A:00:00:00:00;1725667613;07/09/24;00:06:53;0.986;0.006;0.136;0.2541199326515198;0.06108652427792549;-0.013439035043120384
01:00:0A:00:00:00:00;1725667614;07/09/24;00:06:54;0.972;0.011;0.109;0.22357667982578278;0.006108652334660292;0.07208210229873657
01:00:0A:00:00:00:00;1725667615;07/09/24;00:06:55;0.978;0.006;0.093;0.22602014243602753;0.010995574295520782;0.05009094998240471
01:00:0A:00:00:00:00;1725667616;07/09/24;00:06:56;1.017;0.029;0.115;0.22968533635139465;-0.07452555745840073;0.03787364438176155
01:00:0A:00:00:00:00;1725667617;07/09/24;00:06:57;1.044;0.029;0.107;0.2015855312347412;-0.040317103266716;0.05497787147760391
01:00:0A:00:00:00:00;1725667618;07/09/24;00:06:58;1.057;0.008;0.136;0.21380282938480377;0.014660765416920185;0.0024434609804302454
01:00:0A:00:00:00:00;1725667619;07/09/24;00:06:59;1.048;0.025;0.122;0.22113320231437683;0.012217304669320583;-0.024434609338641167
01:00:0A:00:00:00:00;1725667620;07/09/24;00:07:00;0.991;-0.002;0.113;0.18814648687839508;0.02321287989616394;0.04764748737215996
01:00:0A:00:00:00:00;1725667621;07/09/24;00:07:01;0.96;0.001;0.12;0.19058994948863983;0.028099799528717995;0.028099799528717995
01:00:0A:00:00:00:00;1725667622;07/09/24;00:07:02;0.967;0.018;0.116;0.17837265133857727;-0.0036651913542300463;0.06352998316287994
01:00:0A:00:00:00:00;1725667623;07/09/24;00:07:03;0.995;0.022;0.116;0.17470745742321014;0.0012217304902151227;0.03787364438176155
01:00:0A:00:00:00:00;1725667624;07/09/24;00:07:04;1.031;0.026;0.121;0.1820378452539444;-0.05253440886735916;-0.0036651913542300463
01:00:0A:00:00:00:00;1725667625;07/09/24;00:07:05;1.042;0.014;0.122;0.15882496535778046;-0.039095375686883926;0.004886921960860491
01:00:0A:00:00:00:00;1725667626;07/09/24;00:07:06;1.033;0.009;0.136;0.1368338167667389;-0.0073303827084600925;0.006108652334660292
01:00:0A:00:00:00:00;1725667627;07/09/24;00:07:07;1.019;0.021;0.144;0.1160643920302391;0.015882495790719986;0.013439035043120384
01:00:0A:00:00:00:00;1725667628;07/09/24;00:07:08;1.016;0.022;0.128;0.09651670604944229;0.03298672288656235;0.00855211354792118
01:00:0A:00:00:00:00;1725667629;07/09/24;00:07:09;0.994;0.015;0.108;0.08307767659425735;0.02076941914856434;0.014660765416920185
01:00:0A:00:00:00:00;1725667630;07/09/24;00:07:10;0.982;0.005;0.099;0.0757472887635231;-0.02076941914856434;0.0354301817715168
01:00:0A:00:00:00:00;1725667631;07/09/24;00:07:11;0.989;0.013;0.099;0.07452555745840073;-0.06108652427792549;0.03787364438176155
01:00:0A:00:00:00:00;1725667632;07/09/24;00:07:12;1.009;0.025;0.117;0.07208210229873657;-0.05497787147760391;0.025656338781118393
01:00:0A:00:00:00:00;1725667633;07/09/24;00:07:13;1.028;0.029;0.141;0.06230825558304787;-0.024434609338641167;0.0036651913542300463
01:00:0A:00:00:00:00;1725667634;07/09/24;00:07:14;1.027;0.03;0.128;0.039095375686883926;0.012217304669320583;-0.012217304669320583
01:00:0A:00:00:00:00;1725667635;07/09/24;00:07:15;1.018;0.033;0.12;0.014660765416920185;0.03298672288656235;-0.00855211354792118
01:00:0A:00:00:00:00;1725667636;07/09/24;00:07:16;1.002;0.013;0.114;0.015882495790719986;0.013439035043120384;-0.019547687843441963
01:00:0A:00:00:00:00;1725667637;07/09/24;00:07:17;0.997;0.016;0.114;0.02687807008624077;-0.03176499158143997;-0.02321287989616394
01:00:0A:00:00:00:00;1725667638;07/09/24;00:07:18;1.009;0.013;0.109;0.006108652334660292;-0.04642575979232788;0.015882495790719986
01:00:0A:00:00:00:00;1725667639;07/09/24;00:07:19;1.021;-0.001;0.127;0.0024434609804302454;-0.014660765416920185;0.013439035043120384
01:00:0A:00:00:00:00;1725667640;07/09/24;00:07:20;1.025;0.007;0.134;0.010995574295520782;0.0012217304902151227;0.006108652334660292
01:00:0A:00:00:00:00;1725667641;07/09/24;00:07:21;1.016;0.027;0.118;-0.0036651913542300463;0.0;0.019547687843441963
01:00:0A:00:00:00:00;1725667642;07/09/24;00:07:22;1.0;0.018;0.122;-0.0073303827084600925;0.006108652334660292;0.00855211354792118
01:00:0A:00:00:00:00;1725667643;07/09/24;00:07:23;1.001;0.012;0.135;0.018325956538319588;-0.00855211354792118;-0.03787364438176155
01:00:0A:00:00:00:00;1725667644;07/09/24;00:07:24;1.015;0.013;0.123;0.006108652334660292;0.00855211354792118;-0.012217304669320583
01:00:0A:00:00:00:00;1725667645;07/09/24;00:07:25;1.014;-0.001;0.102;-0.006108652334660292;0.012217304669320583;0.02321287989616394
01:00:0A:00:00:00:00;1725667646;07/09/24;00:07:26;1.005;0.009;0.111;0.006108652334660292;-0.010995574295520782;-0.0073303827084600925
01:00:0A:00:00:00:00;1725667647;07/09/24;00:07:27;0.996;0.029;0.115;-0.0036651913542300463;-0.06475171446800232;0.014660765416920185
01:00:0A:00:00:00:00;1725667648;07/09/24;00:07:28;1.007;0.01;0.121;-0.024434609338641167;-0.06352998316287994;0.036651913076639175
01:00:0A:00:00:00:00;1725667649;07/09/24;00:07:29;1.022;0.017;0.146;-0.02321287989616394;0.006108652334660292;0.0036651913542300463
01:00:0A:00:00:00:00;1725667650;07/09/24;00:07:30;1.02;0.038;0.146;-0.0354301817715168;0.02932153083384037;0.00855211354792118
01:00:0A:00:00:00:00;1725667651;07/09/24;00:07:31;1.01;0.025;0.115;-0.04398229718208313;0.021991148591041565;0.010995574295520782
01:00:0A:00:00:00:00;1725667652;07/09/24;00:07:32;1.008;0.019;0.11;-0.024434609338641167;-0.02321287989616394;-0.024434609338641167
01:00:0A:00:00:00:00;1725667653;07/09/24;00:07:33;1.015;0.028;0.126;-0.019547687843441963;-0.05253440886735916;-0.028099799528717995
01:00:0A:00:00:00:00;1725667654;07/09/24;00:07:34;1.023;0.005;0.143;-0.025656338781118393;-0.02687807008624077;-0.00855211354792118
01:00:0A:00:00:00:00;1725667655;07/09/24;00:07:35;1.018;0.002;0.15;-0.028099799528717995;0.015882495790719986;0.0
01:00:0A:00:00:00:00;1725667656;07/09/24;00:07:36;0.997;0.016;0.133;-0.039095375686883926;0.05497787147760391;0.018325956538319588
01:00:0A:00:00:00:00;1725667657;07/09/24;00:07:37;0.993;0.011;0.115;-0.04153883829712868;0.030543262138962746;0.02932153083384037
01:00:0A:00:00:00:00;1725667658;07/09/24;00:07:38;1.003;0.013;0.098;-0.015882495790719986;-0.021991148591041565;-0.013439035043120384
01:00:0A:00:00:00:00;1725667659;07/09/24;00:07:39;1.006;0.024;0.104;-0.014660765416920185;-0.06352998316287994;-0.013439035043120384
01:00:0A:00:00:00:00;1725667660;07/09/24;00:07:40;1.003;0.009;0.122;-0.019547687843441963;-0.080634206533432;-0.0012217304902151227
01:00:0A:00:00:00:00;1725667661;07/09/24;00:07:41;1.01;0.001;0.14;-0.024434609338641167;-0.039095375686883926;0.0012217304902151227
01:00:0A:00:00:00:00;1725667662;07/09/24;00:07:42;1.021;0.016;0.135;-0.036651913076639175;-0.02321287989616394;0.02687807008624077
01:00:0A:00:00:00:00;1725667663;07/09/24;00:07:43;1.042;0.018;0.13;-0.03420845419168472;-0.0012217304902151227;0.021991148591041565
01:00:0A:00:00:00:00;1725667664;07/09/24;00:07:44;1.02;0.141;0.095;-0.5192354917526245;0.34086278080940247;0.024434609338641167
01:00:0A:00:00:00:00;1725667665;07/09/24;00:07:45;1.014;0.074;0.13;-0.3640756905078888;0.019547687843441963;0.14049901068210602
01:00:0A:00:00:00:00;1725667666;07/09/24;00:07:46;1.003;-0.067;0.071;-0.22968533635139465;-0.04398229718208313;-0.0024434609804302454
01:00:0A:00:00:00:00;1725667667;07/09/24;00:07:47;0.973;0.06;0.118;-0.1576032191514969;0.09040805697441101;-0.18814648687839508
01:00:0A:00:00:00:00;1725667668;07/09/24;00:07:48;0.98;0.046;0.146;-0.2638937830924988;-0.2015855312347412;0.18570303916931152
01:00:0A:00:00:00:00;1725667669;07/09/24;00:07:49;1.015;-0.023;0.047;-0.18325956165790558;-0.014660765416920185;-0.09162978082895279
01:00:0A:00:00:00:00;1725667670;07/09/24;00:07:50;1.032;0.077;0.162;-0.22846359014511108;0.06352998316287994;-0.036651913076639175
01:00:0A:00:00:00:00;1725667671;07/09/24;00:07:51;1.04;0.003;0.169;-0.21380282938480377;-0.06230825558304787;-0.004886921960860491
01:00:0A:00:00:00:00;1725667672;07/09/24;00:07:52;1.028;0.018;0.061;-0.20036379992961884;-0.036651913076639175;-0.06230825558304787
01:00:0A:00:00:00:00;1725667673;07/09/24;00:07:53;1.003;0.016;0.157;-0.24434609711170197;0.10873401165008545;0.00855211354792118
01:00:0A:00:00:00:00;1725667674;07/09/24;00:07:54;0.983;0.001;0.13;-0.15882496535778046;-0.14049901068210602;-0.030543262138962746
01:00:0A:00:00:00:00;1725667675;07/09/24;00:07:55;0.987;0.035;0.102;-0.1722639948129654;-0.013439035043120384;-0.030543262138962746
01:00:0A:00:00:00:00;1725667676;07/09/24;00:07:56;1.005;0.016;0.16;-0.20402899384498596;0.004886921960860491;0.04153883829712868
01:00:0A:00:00:00:00;1725667677;07/09/24;00:07:57;1.03;-0.015;0.148;-0.13072516024112701;-0.02687807008624077;-0.025656338781118393
01:00:0A:00:00:00:00;1725667678;07/09/24;00:07:58;1.034;0.052;0.099;-0.1368338167667389;0.018325956538319588;-0.02932153083384037
01:00:0A:00:00:00:00;1725667679;07/09/24;00:07:59;1.019;0.015;0.137;-0.15882496535778046;0.036651913076639175;0.00855211354792118
01:00:0A:00:00:00:00;1725667680;07/09/24;00:08:00;1.008;0.0;0.114;-0.08552113175392151;-0.040317103266716;-0.059864792972803116
01:00:0A:00:00:00:00;1725667681;07/09/24;00:08:01;0.984;0.017;0.11;-0.08185594528913498;-0.015882495790719986;-0.05497787147760391
01:00:0A:00:00:00:00;1725667682;07/09/24;00:08:02;0.982;-0.003;0.134;-0.11239919811487198;-0.024434609338641167;0.04886921867728233
01:00:0A:00:00:00:00;1725667683;07/09/24;00:08:03;1.009;-0.017;0.126;-0.05619959905743599;-0.06352998316287994;-0.0012217304902151227
01:00:0A:00:00:00:00;1725667684;07/09/24;00:08:04;1.024;0.031;0.116;-0.059864792972803116;-0.02321287989616394;0.02932153083384037
01:00:0A:00:00:00:00;1725667685;07/09/24;00:08:05;1.026;0.027;0.142;-0.06230825558304787;-0.02076941914856434;0.018325956538319588
01:00:0A:00:00:00:00;1725667686;07/09/24;00:08:06;1.019;0.002;0.132;-0.018325956538319588;-0.01710422709584236;-0.039095375686883926
01:00:0A:00:00:00:00;1725667687;07/09/24;00:08:07;1.011;0.018;0.125;-0.006108652334660292;0.012217304669320583;-0.05742133408784866
01:00:0A:00:00:00:00;1725667688;07/09/24;00:08:08;0.999;0.001;0.131;-0.02932153083384037;0.0073303827084600925;0.025656338781118393
01:00:0A:00:00:00:00;1725667689;07/09/24;00:08:09;0.997;-0.005;0.122;0.0;-0.0354301817715168;0.019547687843441963
01:00:0A:00:00:00:00;1725667690;07/09/24;00:08:10;1.01;0.018;0.112;0.010995574295520782;-0.01710422709584236;0.014660765416920185
01:00:0A:00:00:00:00;1725667691;07/09/24;00:08:11;1.02;0.025;0.134;0.0073303827084600925;-0.015882495790719986;0.021991148591041565
01:00:0A:00:00:00:00;1725667692;07/09/24;00:08:12;1.018;0.003;0.121;0.025656338781118393;-0.014660765416920185;-0.004886921960860491
01:00:0A:00:00:00:00;1725667693;07/09/24;00:08:13;1.007;0.009;0.104;0.03176499158143997;0.013439035043120384;-0.02321287989616394
01:00:0A:00:00:00:00;1725667694;07/09/24;00:08:14;0.994;0.01;0.114;0.01710422709584236;-0.021991148591041565;0.02932153083384037
01:00:0A:00:00:00:00;1725667695;07/09/24;00:08:15;1.011;0.011;0.126;0.02932153083384037;-0.06475171446800232;0.02321287989616394
01:00:0A:00:00:00:00;1725667696;07/09/24;00:08:16;1.025;0.026;0.126;0.03298672288656235;-0.01710422709584236;-0.019547687843441963
01:00:0A:00:00:00:00;1725667697;07/09/24;00:08:17;1.027;0.023;0.14;0.010995574295520782;0.028099799528717995;-0.010995574295520782
01:00:0A:00:00:00:00;1725667698;07/09/24;00:08:18;1.02;0.01;0.124;0.0036651913542300463;0.014660765416920185;0.0036651913542300463
01:00:0A:00:00:00:00;1725667699;07/09/24;00:08:19;1.005;0.02;0.108;-0.0024434609804302454;0.010995574295520782;-0.0024434609804302454
01:00:0A:00:00:00:00;1725667700;07/09/24;00:08:20;1.001;0.026;0.119;-0.018325956538319588;-0.0036651913542300463;0.019547687843441963
01:00:0A:00:00:00:00;1725667701;07/09/24;00:08:21;1.005;0.021;0.117;-0.00855211354792118;-0.05009094998240471;0.0036651913542300463
01:00:0A:00:00:00:00;1725667702;07/09/24;00:08:22;1.011;0.019;0.118;0.0;-0.02932153083384037;-0.02321287989616394
01:00:0A:00:00:00:00;1725667703;07/09/24;00:08:23;1.013;0.006;0.139;-0.0036651913542300463;-0.010995574295520782;-0.004886921960860491
01:00:0A:00:00:00:00;1725667704;07/09/24;00:08:24;1.014;0.001;0.133;-0.004886921960860491;-0.014660765416920185;0.021991148591041565
01:00:0A:00:00:00:00;1725667705;07/09/24;00:08:25;1.009;0.012;0.122;-0.0036651913542300463;0.014660765416920185;0.03298672288656235
01:00:0A:00:00:00:00;1725667706;07/09/24;00:08:26;1.007;0.03;0.131;0.004886921960860491;0.006108652334660292;0.019547687843441963
01:00:0A:00:00:00:00;1725667707;07/09/24;00:08:27;1.009;0.025;0.124;0.019547687843441963;-0.02321287989616394;0.0
01:00:0A:00:00:00:00;1725667708;07/09/24;00:08:28;1.012;0.014;0.115;0.025656338781118393;-0.012217304669320583;-0.024434609338641167
01:00:0A:00:00:00:00;1725667709;07/09/24;00:08:29;1.007;0.006;0.131;0.02321287989616394;-0.014660765416920185;-0.010995574295520782
01:00:0A:00:00:00:00;1725667710;07/09/24;00:08:30;1.014;0.001;0.131;0.018325956538319588;-0.012217304669320583;0.024434609338641167
01:00:0A:00:00:00:00;1725667711;07/09/24;00:08:31;1.017;0.006;0.115;0.015882495790719986;0.00855211354792118;0.030543262138962746
01:00:0A:00:00:00:00;1725667712;07/09/24;00:08:32;1.011;0.024;0.122;0.015882495790719986;0.0036651913542300463;0.018325956538319588
01:00:0A:00:00:00:00;1725667713;07/09/24;00:08:33;1.004;0.027;0.12;0.02321287989616394;-0.03298672288656235;-0.0073303827084600925
01:00:0A:00:00:00:00;1725667714;07/09/24;00:08:34;1.004;0.019;0.116;0.018325956538319588;-0.01710422709584236;-0.009773843921720982
01:00:0A:00:00:00:00;1725667715;07/09/24;00:08:35;1.009;0.012;0.123;0.014660765416920185;-0.019547687843441963;-0.0073303827084600925
01:00:0A:00:00:00:00;1725667716;07/09/24;00:08:36;1.012;0.008;0.124;0.014660765416920185;-0.02687807008624077;0.006108652334660292
01:00:0A:00:00:00:00;1725667717;07/09/24;00:08:37;1.007;0.011;0.121;0.010995574295520782;-0.0012217304902151227;0.00855211354792118
01:00:0A:00:00:00:00;1725667718;07/09/24;00:08:38;1.002;0.014;0.126;0.009773843921720982;0.012217304669320583;0.00855211354792118
01:00:0A:00:00:00:00;1725667719;07/09/24;00:08:39;1.001;0.017;0.118;0.012217304669320583;-0.024434609338641167;0.021991148591041565
01:00:0A:00:00:00:00;1725667720;07/09/24;00:08:40;1.008;0.014;0.109;0.01710422709584236;-0.02932153083384037;0.010995574295520782
01:00:0A:00:00:00:00;1725667721;07/09/24;00:08:41;1.019;0.018;0.127;0.01710422709584236;-0.02321287989616394;0.006108652334660292
01:00:0A:00:00:00:00;1725667722;07/09/24;00:08:42;1.022;0.016;0.132;0.019547687843441963;-0.01710422709584236;0.00855211354792118
01:00:0A:00:00:00:00;1725667723;07/09/24;00:08:43;1.019;0.017;0.122;0.02076941914856434;-0.004886921960860491;0.0036651913542300463
01:00:0A:00:00:00:00;1725667724;07/09/24;00:08:44;1.006;0.018;0.126;0.024434609338641167;0.0073303827084600925;-0.004886921960860491
01:00:0A:00:00:00:00;1725667725;07/09/24;00:08:45;0.998;0.014;0.125;0.028099799528717995;-0.015882495790719986;0.0
01:00:0A:00:00:00:00;1725667726;07/09/24;00:08:46;0.992;0.01;0.116;0.028099799528717995;-0.014660765416920185;0.0
01:00:0A:00:00:00:00;1725667727;07/09/24;00:08:47;0.997;0.007;0.122;0.025656338781118393;-0.02076941914856434;0.012217304669320583
01:00:0A:00:00:00:00;1725667728;07/09/24;00:08:48;1.016;0.009;0.133;0.025656338781118393;-0.03298672288656235;0.036651913076639175
01:00:0A:00:00:00:00;1725667729;07/09/24;00:08:49;1.025;0.011;0.127;0.02687807008624077;-0.00855211354792118;0.03176499158143997
01:00:0A:00:00:00:00;1725667730;07/09/24;00:08:50;1.024;0.024;0.127;0.03298672288656235;0.009773843921720982;0.0073303827084600925
01:00:0A:00:00:00:00;1725667731;07/09/24;00:08:51;1.009;0.024;0.124;0.04153883829712868;-0.00855211354792118;-0.014660765416920185
01:00:0A:00:00:00:00;1725667732;07/09/24;00:08:52;0.998;0.015;0.117;0.04886921867728233;-0.021991148591041565;-0.01710422709584236
01:00:0A:00:00:00:00;1725667733;07/09/24;00:08:53;0.994;0.008;0.126;0.04642575979232788;-0.021991148591041565;-0.004886921960860491
01:00:0A:00:00:00:00;1725667734;07/09/24;00:08:54;1.005;0.004;0.133;0.039095375686883926;-0.02932153083384037;0.028099799528717995
01:00:0A:00:00:00:00;1725667735;07/09/24;00:08:55;1.023;0.008;0.125;0.04153883829712868;0.004886921960860491;0.02932153083384037
01:00:0A:00:00:00:00;1725667736;07/09/24;00:08:56;1.023;0.024;0.128;0.042760565876960754;0.019547687843441963;0.024434609338641167
01:00:0A:00:00:00:00;1725667737;07/09/24;00:08:57;1.015;0.029;0.124;0.04886921867728233;-0.004886921960860491;0.0
01:00:0A:00:00:00:00;1725667738;07/09/24;00:08:58;1.011;0.015;0.118;0.06108652427792549;-0.0036651913542300463;-0.024434609338641167
01:00:0A:00:00:00:00;1725667739;07/09/24;00:08:59;1.003;0.004;0.126;0.06841690838336945;0.0036651913542300463;-0.021991148591041565
01:00:0A:00:00:00:00;1725667740;07/09/24;00:09:00;0.998;0.0;0.128;0.06475171446800232;-0.0036651913542300463;0.021991148591041565
01:00:0A:00:00:00:00;1725667741;07/09/24;00:09:01;0.996;0.0;0.117;0.0708603635430336;-0.0012217304902151227;0.03298672288656235
01:00:0A:00:00:00:00;1725667742;07/09/24;00:09:02;1.01;0.013;0.114;0.080634206533432;-0.014660765416920185;0.03176499158143997
01:00:0A:00:00:00:00;1725667743;07/09/24;00:09:03;1.018;0.02;0.122;0.08307767659425735;-0.030543262138962746;0.03298672288656235
01:00:0A:00:00:00:00;1725667744;07/09/24;00:09:04;1.025;0.016;0.123;0.09407324343919754;-0.030543262138962746;0.0036651913542300463
01:00:0A:00:00:00:00;1725667745;07/09/24;00:09:05;1.017;0.018;0.135;0.09896016865968704;-0.006108652334660292;-0.009773843921720982
01:00:0A:00:00:00:00;1725667746;07/09/24;00:09:06;1.009;0.016;0.138;0.08918632566928864;0.014660765416920185;0.004886921960860491
01:00:0A:00:00:00:00;1725667747;07/09/24;00:09:07;1.005;0.006;0.124;0.08552113175392151;0.009773843921720982;0.018325956538319588
01:00:0A:00:00:00:00;1725667748;07/09/24;00:09:08;1.005;0.008;0.114;0.09162978082895279;0.0024434609804302454;0.006108652334660292
01:00:0A:00:00:00:00;1725667749;07/09/24;00:09:09;1.013;0.011;0.116;0.08552113175392151;-0.02076941914856434;0.02076941914856434
01:00:0A:00:00:00:00;1725667750;07/09/24;00:09:10;1.014;0.009;0.122;0.08918632566928864;-0.021991148591041565;0.013439035043120384
01:00:0A:00:00:00:00;1725667751;07/09/24;00:09:11;1.009;0.016;0.125;0.09529497474431992;-0.006108652334660292;-0.004886921960860491
01:00:0A:00:00:00:00;1725667752;07/09/24;00:09:12;1.005;0.015;0.125;0.08796459436416626;-0.006108652334660292;0.00855211354792118
01:00:0A:00:00:00:00;1725667753;07/09/24;00:09:13;1.008;0.006;0.122;0.08918632566928864;-0.0036651913542300463;0.02076941914856434
01:00:0A:00:00:00:00;1725667754;07/09/24;00:09:14;1.016;0.017;0.119;0.09529497474431992;-0.009773843921720982;0.021991148591041565
01:00:0A:00:00:00:00;1725667755;07/09/24;00:09:15;1.019;0.024;0.124;0.09285151958465576;-0.006108652334660292;0.014660765416920185
01:00:0A:00:00:00:00;1725667756;07/09/24;00:09:16;1.01;0.012;0.126;0.1014036238193512;-0.0012217304902151227;-0.0036651913542300463
01:00:0A:00:00:00:00;1725667757;07/09/24;00:09:17;1.003;0.011;0.121;0.10873401165008545;-0.013439035043120384;-0.009773843921720982
01:00:0A:00:00:00:00;1725667758;07/09/24;00:09:18;1.004;0.011;0.12;0.09651670604944229;-0.010995574295520782;0.024434609338641167
01:00:0A:00:00:00:00;1725667759;07/09/24;00:09:19;1.011;0.006;0.127;0.09896016865968704;-0.01710422709584236;0.025656338781118393
01:00:0A:00:00:00:00;1725667760;07/09/24;00:09:20;1.017;0.015;0.123;0.10506881773471832;-0.004886921960860491;0.015882495790719986
01:00:0A:00:00:00:00;1725667761;07/09/24;00:09:21;1.016;0.021;0.12;0.09407324343919754;0.014660765416920185;0.01710422709584236
01:00:0A:00:00:00:00;1725667762;07/09/24;00:09:22;1.007;0.014;0.118;0.09773843735456467;0.0073303827084600925;0.0012217304902151227
01:00:0A:00:00:00:00;1725667763;07/09/24;00:09:23;1.002;0.015;0.111;0.10506881773471832;-0.02076941914856434;-0.012217304669320583
01:00:0A:00:00:00:00;1725667764;07/09/24;00:09:24;1.001;0.011;0.115;0.09040805697441101;-0.02687807008624077;0.02076941914856434
01:00:0A:00:00:00:00;1725667765;07/09/24;00:09:25;1.005;0.007;0.126;0.08674286305904388;-0.028099799528717995;0.03176499158143997
01:00:0A:00:00:00:00;1725667766;07/09/24;00:09:26;1.017;0.018;0.134;0.09285151958465576;-0.019547687843441963;0.013439035043120384
01:00:0A:00:00:00:00;1725667767;07/09/24;00:09:27;1.022;0.022;0.122;0.08429940044879913;0.014660765416920185;0.0036651913542300463
01:00:0A:00:00:00:00;1725667768;07/09/24;00:09:28;1.017;0.014;0.126;0.080634206533432;0.021991148591041565;0.0012217304902151227
01:00:0A:00:00:00:00;1725667769;07/09/24;00:09:29;1.006;0.011;0.119;0.08674286305904388;-0.0024434609804302454;-0.0012217304902151227
01:00:0A:00:00:00:00;1725667770;07/09/24;00:09:30;1.005;0.012;0.113;0.07696902006864548;-0.0024434609804302454;0.013439035043120384
01:00:0A:00:00:00:00;1725667771;07/09/24;00:09:31;1.002;0.009;0.121;0.07452555745840073;-0.006108652334660292;0.02321287989616394
01:00:0A:00:00:00:00;1725667772;07/09/24;00:09:32;1.003;0.012;0.12;0.08185594528913498;-0.02932153083384037;0.015882495790719986
01:00:0A:00:00:00:00;1725667773;07/09/24;00:09:33;1.013;0.014;0.119;0.07696902006864548;-0.021991148591041565;0.02076941914856434
01:00:0A:00:00:00:00;1725667774;07/09/24;00:09:34;1.016;0.015;0.133;0.07452555745840073;-0.0036651913542300463;0.014660765416920185
01:00:0A:00:00:00:00;1725667775;07/09/24;00:09:35;1.018;0.015;0.131;0.07941248267889023;0.0;0.0073303827084600925
01:00:0A:00:00:00:00;1725667776;07/09/24;00:09:36;1.016;0.013;0.117;0.07819075137376785;-0.0012217304902151227;0.004886921960860491
01:00:0A:00:00:00:00;1725667777;07/09/24;00:09:37;1.016;0.012;0.124;0.07941248267889023;-0.006108652334660292;0.0024434609804302454
01:00:0A:00:00:00:00;1725667778;07/09/24;00:09:38;1.012;0.011;0.132;0.08307767659425735;-0.012217304669320583;0.006108652334660292
01:00:0A:00:00:00:00;1725667779;07/09/24;00:09:39;1.011;0.013;0.127;0.08307767659425735;-0.0024434609804302454;0.0073303827084600925
01:00:0A:00:00:00:00;1725667780;07/09/24;00:09:40;1.005;0.011;0.124;0.080634206533432;0.021991148591041565;0.009773843921720982
01:00:0A:00:00:00:00;1725667781;07/09/24;00:09:41;1.004;0.011;0.119;0.08307767659425735;0.0024434609804302454;0.013439035043120384
01:00:0A:00:00:00:00;1725667782;07/09/24;00:09:42;1.006;0.011;0.109;0.08429940044879913;-0.02321287989616394;0.01710422709584236
01:00:0A:00:00:00:00;1725667783;07/09/24;00:09:43;1.007;0.015;0.11;0.08552113175392151;-0.025656338781118393;0.00855211354792118
01:00:0A:00:00:00:00;1725667784;07/09/24;00:09:44;1.009;0.013;0.124;0.08552113175392151;-0.04153883829712868;0.015882495790719986
01:00:0A:00:00:00:00;1725667785;07/09/24;00:09:45;1.014;0.01;0.131;0.080634206533432;-0.021991148591041565;0.02687807008624077
01:00:0A:00:00:00:00;1725667786;07/09/24;00:09:46;1.016;0.015;0.132;0.080634206533432;0.004886921960860491;0.02321287989616394
01:00:0A:00:00:00:00;1725667787;07/09/24;00:09:47;1.023;0.019;0.128;0.08307767659425735;0.02076941914856434;0.00855211354792118
01:00:0A:00:00:00:00;1725667788;07/09/24;00:09:48;1.023;0.013;0.121;0.08796459436416626;0.012217304669320583;0.0036651913542300463
01:00:0A:00:00:00:00;1725667789;07/09/24;00:09:49;1.006;0.01;0.112;0.09040805697441101;0.0012217304902151227;-0.0012217304902151227
01:00:0A:00:00:00:00;1725667790;07/09/24;00:09:50;0.988;0.011;0.119;0.08918632566928864;-0.014660765416920185;0.00855211354792118
01:00:0A:00:00:00:00;1725667791;07/09/24;00:09:51;0.987;0.01;0.127;0.09162978082895279;-0.036651913076639175;0.018325956538319588
01:00:0A:00:00:00:00;1725667792;07/09/24;00:09:52;1.002;0.009;0.126;0.09407324343919754;-0.03787364438176155;0.02321287989616394
01:00:0A:00:00:00:00;1725667793;07/09/24;00:09:53;1.033;0.016;0.134;0.09162978082895279;-0.004886921960860491;0.024434609338641167
01:00:0A:00:00:00:00;1725667794;07/09/24;00:09:54;1.037;0.016;0.13;0.09651670604944229;0.014660765416920185;0.014660765416920185
01:00:0A:00:00:00:00;1725667795;07/09/24;00:09:55;1.019;0.017;0.124;0.10262535512447357;0.021991148591041565;-0.0036651913542300463
01:00:0A:00:00:00:00;1725667796;07/09/24;00:09:56;0.984;0.007;0.111;0.10262535512447357;0.004886921960860491;0.004886921960860491
01:00:0A:00:00:00:00;1725667797;07/09/24;00:09:57;0.976;0.007;0.111;0.10873401165008545;-0.025656338781118393;0.010995574295520782
01:00:0A:00:00:00:00;1725667798;07/09/24;00:09:58;1.001;0.011;0.114;0.10995574295520782;-0.05742133408784866;0.02321287989616394
01:00:0A:00:00:00:00;1725667799;07/09/24;00:09:59;1.026;0.013;0.124;0.10506881773471832;-0.045204028487205505;0.030543262138962746
01:00:0A:00:00:00:00;1725667800;07/09/24;00:10:00;1.044;0.014;0.141;0.10873401165008545;0.006108652334660292;0.013439035043120384
01:00:0A:00:00:00:00;1725667801;07/09/24;00:10:01;1.035;0.022;0.128;0.10873401165008545;0.02687807008624077;0.0012217304902151227
01:00:0A:00:00:00:00;1725667802;07/09/24;00:10:02;0.999;0.012;0.11;0.10751228034496307;0.03298672288656235;-0.00855211354792118
01:00:0A:00:00:00:00;1725667803;07/09/24;00:10:03;0.978;0.002;0.104;0.11239919811487198;-0.02321287989616394;0.006108652334660292
01:00:0A:00:00:00:00;1725667804;07/09/24;00:10:04;0.988;0.002;0.108;0.10873401165008545;-0.039095375686883926;0.02932153083384037
01:00:0A:00:00:00:00;1725667805;07/09/24;00:10:05;1.018;0.012;0.124;0.10262535512447357;-0.036651913076639175;0.04764748737215996
01:00:0A:00:00:00:00;1725667806;07/09/24;00:10:06;1.029;0.021;0.136;0.1111774742603302;-0.019547687843441963;0.02932153083384037
01:00:0A:00:00:00:00;1725667807;07/09/24;00:10:07;1.028;0.026;0.127;0.11728612333536148;0.0012217304902151227;-0.0036651913542300463
01:00:0A:00:00:00:00;1725667808;07/09/24;00:10:08;1.016;0.018;0.127;0.11972958594560623;0.014660765416920185;-0.013439035043120384
01:00:0A:00:00:00:00;1725667809;07/09/24;00:10:09;0.999;0.003;0.125;0.12339477241039276;0.0;-0.0036651913542300463
01:00:0A:00:00:00:00;1725667810;07/09/24;00:10:10;0.998;0.003;0.121;0.12095131725072861;-0.012217304669320583;0.015882495790719986
01:00:0A:00:00:00:00;1725667811;07/09/24;00:10:11;1.004;0.008;0.122;0.11484266817569733;-0.004886921960860491;0.03176499158143997
01:00:0A:00:00:00:00;1725667812;07/09/24;00:10:12;1.014;0.019;0.124;0.11728612333536148;-0.009773843921720982;0.024434609338641167
01:00:0A:00:00:00:00;1725667813;07/09/24;00:10:13;1.016;0.018;0.117;0.11850785464048386;-0.013439035043120384;0.010995574295520782
01:00:0A:00:00:00:00;1725667814;07/09/24;00:10:14;1.011;0.012;0.118;0.11728612333536148;-0.006108652334660292;-0.0012217304902151227
01:00:0A:00:00:00:00;1725667815;07/09/24;00:10:15;1.002;0.014;0.128;0.11484266817569733;-0.012217304669320583;0.006108652334660292
01:00:0A:00:00:00:00;1725667816;07/09/24;00:10:16;1.003;0.012;0.126;0.10751228034496307;-0.021991148591041565;0.024434609338641167
01:00:0A:00:00:00:00;1725667817;07/09/24;00:10:17;1.01;0.011;0.123;0.10873401165008545;-0.0073303827084600925;0.01710422709584236
01:00:0A:00:00:00:00;1725667818;07/09/24;00:10:18;1.021;0.019;0.129;0.1062905490398407;0.0036651913542300463;0.019547687843441963
01:00:0A:00:00:00:00;1725667819;07/09/24;00:10:19;1.021;0.017;0.124;0.10262535512447357;0.0;0.019547687843441963
01:00:0A:00:00:00:00;1725667820;07/09/24;00:10:20;1.012;0.013;0.12;0.10873401165008545;0.0;0.0012217304902151227
01:00:0A:00:00:00:00;1725667821;07/09/24;00:10:21;1.004;0.016;0.123;0.10873401165008545;-0.0036651913542300463;-0.0024434609804302454
01:00:0A:00:00:00:00;1725667822;07/09/24;00:10:22;1.003;0.013;0.124;0.1014036238193512;-0.00855211354792118;0.012217304669320583
01:00:0A:00:00:00:00;1725667823;07/09/24;00:10:23;1.004;0.006;0.12;0.10384709388017654;-0.010995574295520782;0.00855211354792118
01:00:0A:00:00:00:00;1725667824;07/09/24;00:10:24;1.007;0.014;0.121;0.10262535512447357;-0.0073303827084600925;0.009773843921720982
01:00:0A:00:00:00:00;1725667825;07/09/24;00:10:25;1.013;0.013;0.124;0.09407324343919754;-0.013439035043120384;0.02687807008624077
01:00:0A:00:00:00:00;1725667826;07/09/24;00:10:26;1.017;0.011;0.124;0.10018189996480942;-0.014660765416920185;0.01710422709584236
01:00:0A:00:00:00:00;1725667827;07/09/24;00:10:27;1.019;0.02;0.123;0.1014036238193512;-0.0036651913542300463;0.006108652334660292
01:00:0A:00:00:00:00;1725667828;07/09/24;00:10:28;1.018;0.018;0.126;0.09407324343919754;0.0012217304902151227;0.013439035043120384
01:00:0A:00:00:00:00;1725667829;07/09/24;00:10:29;1.012;0.01;0.122;0.1014036238193512;-0.0036651913542300463;0.0012217304902151227
01:00:0A:00:00:00:00;1725667830;07/09/24;00:10:30;1.003;0.011;0.119;0.10384709388017654;-0.009773843921720982;0.0012217304902151227
01:00:0A:00:00:00:00;1725667831;07/09/24;00:10:31;1.002;0.012;0.122;0.09529497474431992;-0.0073303827084600925;0.01710422709584236
01:00:0A:00:00:00:00;1725667832;07/09/24;00:10:32;1.005;0.007;0.124;0.1014036238193512;-0.02687807008624077;0.02076941914856434
01:00:0A:00:00:00:00;1725667833;07/09/24;00:10:33;1.014;0.015;0.121;0.10506881773471832;-0.02076941914856434;0.014660765416920185
01:00:0A:00:00:00:00;1725667834;07/09/24;00:10:34;1.02;0.017;0.128;0.1014036238193512;0.0036651913542300463;0.012217304669320583
01:00:0A:00:00:00:00;1725667835;07/09/24;00:10:35;1.016;0.012;0.129;0.10751228034496307;0.0;0.00855211354792118
01:00:0A:00:00:00:00;1725667836;07/09/24;00:10:36;1.009;0.012;0.12;0.1111774742603302;-0.0073303827084600925;0.010995574295520782
01:00:0A:00:00:00:00;1725667837;07/09/24;00:10:37;1.008;0.015;0.121;0.1062905490398407;0.004886921960860491;0.019547687843441963
01:00:0A:00:00:00:00;1725667838;07/09/24;00:10:38;1.009;0.01;0.125;0.11239919811487198;-0.013439035043120384;0.014660765416920185
01:00:0A:00:00:00:00;1725667839;07/09/24;00:10:39;1.014;0.012;0.121;0.11850785464048386;-0.024434609338641167;0.012217304669320583
01:00:0A:00:00:00:00;1725667840;07/09/24;00:10:40;1.016;0.012;0.124;0.1160643920302391;-0.004886921960860491;0.00855211354792118
01:00:0A:00:00:00:00;1725667841;07/09/24;00:10:41;1.012;0.012;0.133;0.11850785464048386;0.0012217304902151227;0.012217304669320583
01:00:0A:00:00:00:00;1725667842;07/09/24;00:10:42;1.008;0.012;0.124;0.12217304855585098;-0.006108652334660292;0.014660765416920185
01:00:0A:00:00:00:00;1725667843;07/09/24;00:10:43;1.002;0.015;0.119;0.12095131725072861;0.0024434609804302454;0.012217304669320583
01:00:0A:00:00:00:00;1725667844;07/09/24;00:10:44;1.005;0.016;0.125;0.12339477241039276;-0.015882495790719986;0.009773843921720982
01:00:0A:00:00:00:00;1725667845;07/09/24;00:10:45;1.016;0.009;0.122;0.12339477241039276;-0.021991148591041565;0.015882495790719986
01:00:0A:00:00:00:00;1725667846;07/09/24;00:10:46;1.021;0.01;0.124;0.12217304855585098;-0.0036651913542300463;0.014660765416920185
01:00:0A:00:00:00:00;1725667847;07/09/24;00:10:47;1.014;0.017;0.131;0.11850785464048386;0.0012217304902151227;0.019547687843441963
01:00:0A:00:00:00:00;1725667848;07/09/24;00:10:48;1.006;0.015;0.123;0.11972958594560623;-0.012217304669320583;0.02076941914856434
01:00:0A:00:00:00:00;1725667849;07/09/24;00:10:49;1.004;0.015;0.121;0.12339477241039276;-0.0036651913542300463;0.006108652334660292
01:00:0A:00:00:00:00;1725667850;07/09/24;00:10:50;1.006;0.017;0.124;0.12217304855585098;-0.012217304669320583;0.009773843921720982
01:00:0A:00:00:00:00;1725667851;07/09/24;00:10:51;1.012;0.011;0.123;0.11972958594560623;-0.021991148591041565;0.014660765416920185
01:00:0A:00:00:00:00;1725667852;07/09/24;00:10:52;1.014;0.006;0.123;0.12461651116609573;-0.009773843921720982;0.0036651913542300463
01:00:0A:00:00:00:00;1725667853;07/09/24;00:10:53;1.012;0.013;0.124;0.11972958594560623;-0.0012217304902151227;0.012217304669320583
01:00:0A:00:00:00:00;1725667854;07/09/24;00:10:54;1.009;0.008;0.121;0.11484266817569733;-0.010995574295520782;0.03176499158143997
01:00:0A:00:00:00:00;1725667855;07/09/24;00:10:55;1.006;0.011;0.12;0.12339477241039276;-0.015882495790719986;0.015882495790719986
01:00:0A:00:00:00:00;1725667856;07/09/24;00:10:56;1.011;0.02;0.122;0.12095131725072861;-0.009773843921720982;0.012217304669320583
01:00:0A:00:00:00:00;1725667857;07/09/24;00:10:57;1.018;0.014;0.13;0.1160643920302391;-0.0012217304902151227;0.014660765416920185
01:00:0A:00:00:00:00;1725667858;07/09/24;00:10:58;1.017;0.009;0.122;0.12339477241039276;-0.0024434609804302454;0.0036651913542300463
01:00:0A:00:00:00:00;1725667859;07/09/24;00:10:59;1.009;0.013;0.115;0.12217304855585098;-0.004886921960860491;0.0073303827084600925
01:00:0A:00:00:00:00;1725667860;07/09/24;00:11:00;1.003;0.011;0.122;0.11362093687057495;-0.0073303827084600925;0.025656338781118393
01:00:0A:00:00:00:00;1725667861;07/09/24;00:11:01;1.005;0.013;0.125;0.12095131725072861;-0.02687807008624077;0.01710422709584236
01:00:0A:00:00:00:00;1725667862;07/09/24;00:11:02;1.01;0.018;0.12;0.11972958594560623;-0.012217304669320583;0.0073303827084600925
01:00:0A:00:00:00:00;1725667863;07/09/24;00:11:03;1.012;0.012;0.123;0.11484266817569733;0.0036651913542300463;0.006108652334660292
01:00:0A:00:00:00:00;1725667864;07/09/24;00:11:04;1.012;0.006;0.123;0.1160643920302391;-0.009773843921720982;0.013439035043120384
01:00:0A:00:00:00:00;1725667865;07/09/24;00:11:05;1.013;0.009;0.114;0.11362093687057495;-0.012217304669320583;0.02076941914856434
01:00:0A:00:00:00:00;1725667866;07/09/24;00:11:06;1.012;0.015;0.121;0.10995574295520782;-0.0024434609804302454;0.025656338781118393
01:00:0A:00:00:00:00;1725667867;07/09/24;00:11:07;1.012;0.016;0.125;0.11362093687057495;-0.015882495790719986;0.02321287989616394
01:00:0A:00:00:00:00;1725667868;07/09/24;00:11:08;1.015;0.015;0.117;0.11728612333536148;-0.015882495790719986;0.00855211354792118
01:00:0A:00:00:00:00;1725667869;07/09/24;00:11:09;1.013;0.012;0.124;0.1160643920302391;0.0012217304902151227;-0.0012217304902151227
01:00:0A:00:00:00:00;1725667870;07/09/24;00:11:10;1.008;0.008;0.129;0.11484266817569733;-0.004886921960860491;0.013439035043120384
01:00:0A:00:00:00:00;1725667871;07/09/24;00:11:11;1.004;0.005;0.122;0.11484266817569733;-0.0073303827084600925;0.018325956538319588
01:00:0A:00:00:00:00;1725667872;07/09/24;00:11:12;1.006;0.01;0.12;0.11362093687057495;0.0036651913542300463;0.019547687843441963
01:00:0A:00:00:00:00;1725667873;07/09/24;00:11:13;1.01;0.018;0.123;0.11239919811487198;-0.014660765416920185;0.02076941914856434
01:00:0A:00:00:00:00;1725667874;07/09/24;00:11:14;1.011;0.012;0.118;0.11362093687057495;-0.024434609338641167;0.02076941914856434
01:00:0A:00:00:00:00;1725667875;07/09/24;00:11:15;1.015;0.015;0.122;0.11484266817569733;-0.010995574295520782;0.004886921960860491
01:00:0A:00:00:00:00;1725667876;07/09/24;00:11:16;1.015;0.019;0.132;0.10995574295520782;-0.009773843921720982;0.006108652334660292
01:00:0A:00:00:00:00;1725667877;07/09/24;00:11:17;1.017;0.008;0.126;0.1062905490398407;-0.0024434609804302454;0.012217304669320583
01:00:0A:00:00:00:00;1725667878;07/09/24;00:11:18;1.016;0.009;0.123;0.1062905490398407;0.00855211354792118;0.0073303827084600925
01:00:0A:00:00:00:00;1725667879;07/09/24;00:11:19;1.01;0.018;0.123;0.09896016865968704;0.00855211354792118;0.015882495790719986
01:00:0A:00:00:00:00;1725667880;07/09/24;00:11:20;1.006;0.013;0.12;0.09529497474431992;-0.004886921960860491;0.018325956538319588
01:00:0A:00:00:00:00;1725667881;07/09/24;00:11:21;1.004;0.012;0.116;0.10018189996480942;-0.014660765416920185;0.004886921960860491
01:00:0A:00:00:00:00;1725667882;07/09/24;00:11:22;1.008;0.018;0.122;0.09407324343919754;-0.018325956538319588;0.013439035043120384
01:00:0A:00:00:00:00;1725667883;07/09/24;00:11:23;1.01;0.016;0.123;0.08918632566928864;-0.02321287989616394;0.01710422709584236
01:00:0A:00:00:00:00;1725667884;07/09/24;00:11:24;1.014;0.014;0.126;0.09285151958465576;-0.014660765416920185;0.0024434609804302454
01:00:0A:00:00:00:00;1725667885;07/09/24;00:11:25;1.015;0.017;0.124;0.08552113175392151;-0.0024434609804302454;0.004886921960860491
01:00:0A:00:00:00:00;1725667886;07/09/24;00:11:26;1.015;0.012;0.123;0.080634206533432;0.0012217304902151227;0.010995574295520782
01:00:0A:00:00:00:00;1725667887;07/09/24;00:11:27;1.013;0.01;0.121;0.08552113175392151;-0.004886921960860491;0.0012217304902151227
01:00:0A:00:00:00:00;1725667888;07/09/24;00:11:28;1.008;0.011;0.119;0.08185594528913498;-0.00855211354792118;0.00855211354792118
01:00:0A:00:00:00:00;1725667889;07/09/24;00:11:29;1.009;0.009;0.122;0.0757472887635231;-0.013439035043120384;0.02321287989616394
01:00:0A:00:00:00:00;1725667890;07/09/24;00:11:30;1.013;0.014;0.122;0.07819075137376785;-0.014660765416920185;0.014660765416920185
01:00:0A:00:00:00:00;1725667891;07/09/24;00:11:31;1.013;0.02;0.122;0.07819075137376785;-0.004886921960860491;0.0
01:00:0A:00:00:00:00;1725667892;07/09/24;00:11:32;1.01;0.014;0.12;0.07452555745840073;-0.0024434609804302454;0.0
01:00:0A:00:00:00:00;1725667893;07/09/24;00:11:33;1.003;0.006;0.119;0.0757472887635231;-0.014660765416920185;0.0012217304902151227
01:00:0A:00:00:00:00;1725667894;07/09/24;00:11:34;1.003;0.009;0.117;0.07208210229873657;-0.018325956538319588;0.00855211354792118
01:00:0A:00:00:00:00;1725667895;07/09/24;00:11:35;1.014;0.013;0.123;0.0659734457731247;-0.021991148591041565;0.02321287989616394
01:00:0A:00:00:00:00;1725667896;07/09/24;00:11:36;1.019;0.015;0.129;0.0659734457731247;-0.019547687843441963;0.019547687843441963
01:00:0A:00:00:00:00;1725667897;07/09/24;00:11:37;1.021;0.019;0.128;0.06475171446800232;0.0;0.0073303827084600925
01:00:0A:00:00:00:00;1725667898;07/09/24;00:11:38;1.016;0.02;0.127;0.06352998316287994;0.012217304669320583;-0.0012217304902151227
01:00:0A:00:00:00:00;1725667899;07/09/24;00:11:39;1.002;0.011;0.12;0.06352998316287994;-0.0012217304902151227;-0.0024434609804302454
01:00:0A:00:00:00:00;1725667900;07/09/24;00:11:40;0.994;0.009;0.118;0.06230825558304787;-0.024434609338641167;0.009773843921720982
01:00:0A:00:00:00:00;1725667901;07/09/24;00:11:41;1.0;0.012;0.121;0.05742133408784866;-0.02932153083384037;0.019547687843441963
01:00:0A:00:00:00:00;1725667902;07/09/24;00:11:42;1.016;0.018;0.134;0.3188716471195221;0.05742133408784866;-0.009773843921720982
01:00:0A:00:00:00:00;1725667903;07/09/24;00:11:43;1.012;0.024;0.184;0.2431243658065796;-0.04886921867728233;0.06963863223791122
01:00:0A:00:00:00:00;1725667904;07/09/24;00:11:44;1.016;-0.016;0.078;0.2626720666885376;-0.080634206533432;0.04398229718208313
01:00:0A:00:00:00:00;1725667905;07/09/24;00:11:45;1.004;0.018;0.111;0.2687807083129883;0.08429940044879913;-0.05864306166768074
01:00:0A:00:00:00:00;1725667906;07/09/24;00:11:46;0.995;0.044;0.152;0.2076941877603531;-0.012217304669320583;0.06841690838336945
01:00:0A:00:00:00:00;1725667907;07/09/24;00:11:47;1.007;-0.017;0.117;0.20891590416431427;-0.06719517707824707;0.07696902006864548
01:00:0A:00:00:00:00;1725667908;07/09/24;00:11:48;1.021;-0.011;0.107;0.2577851116657257;0.00855211354792118;-0.0354301817715168
01:00:0A:00:00:00:00;1725667909;07/09/24;00:11:49;1.02;0.06;0.133;0.2125810980796814;0.028099799528717995;-0.010995574295520782
01:00:0A:00:00:00:00;1725667910;07/09/24;00:11:50;1.016;0.009;0.135;0.15393804013729095;0.004886921960860491;0.0757472887635231
01:00:0A:00:00:00:00;1725667911;07/09/24;00:11:51;1.0;-0.017;0.118;0.20525071024894714;-0.01710422709584236;0.006108652334660292
01:00:0A:00:00:00:00;1725667912;07/09/24;00:11:52;0.993;0.005;0.122;0.15271630883216858;0.019547687843441963;0.02687807008624077
01:00:0A:00:00:00:00;1725667913;07/09/24;00:11:53;1.004;0.014;0.134;0.1661553531885147;-0.03420845419168472;0.01710422709584236
01:00:0A:00:00:00:00;1725667914;07/09/24;00:11:54;1.019;0.022;0.119;0.1466076523065567;-0.02687807008624077;0.0354301817715168
01:00:0A:00:00:00:00;1725667915;07/09/24;00:11:55;1.03;0.011;0.128;0.13927726447582245;0.015882495790719986;0.014660765416920185
01:00:0A:00:00:00:00;1725667916;07/09/24;00:11:56;1.021;0.022;0.139;0.14538592100143433;0.0073303827084600925;-0.0036651913542300463
01:00:0A:00:00:00:00;1725667917;07/09/24;00:11:57;1.003;0.015;0.116;0.13561207056045532;-0.0073303827084600925;0.013439035043120384
01:00:0A:00:00:00:00;1725667918;07/09/24;00:11:58;0.993;0.007;0.117;0.13072516024112701;0.004886921960860491;0.010995574295520782
01:00:0A:00:00:00:00;1725667919;07/09/24;00:11:59;0.996;0.015;0.127;0.13072516024112701;-0.02321287989616394;0.014660765416920185
01:00:0A:00:00:00:00;1725667920;07/09/24;00:12:00;1.015;0.018;0.125;0.11850785464048386;-0.03420845419168472;0.036651913076639175
01:00:0A:00:00:00:00;1725667921;07/09/24;00:12:01;1.024;0.011;0.128;0.11850785464048386;-0.0036651913542300463;0.019547687843441963
01:00:0A:00:00:00:00;1725667922;07/09/24;00:12:02;1.023;0.025;0.134;0.11972958594560623;0.006108652334660292;0.0024434609804302454
01:00:0A:00:00:00:00;1725667923;07/09/24;00:12:03;1.016;0.018;0.127;0.1111774742603302;0.0012217304902151227;0.010995574295520782
01:00:0A:00:00:00:00;1725667924;07/09/24;00:12:04;1.002;0.006;0.12;0.1111774742603302;0.0036651913542300463;0.0073303827084600925
01:00:0A:00:00:00:00;1725667925;07/09/24;00:12:05;0.999;0.014;0.123;0.11362093687057495;-0.009773843921720982;0.0036651913542300463
01:00:0A:00:00:00:00;1725667926;07/09/24;00:12:06;1.003;0.014;0.123;0.09896016865968704;-0.02321287989616394;0.0354301817715168
01:00:0A:00:00:00:00;1725667927;07/09/24;00:12:07;1.015;0.011;0.125;0.1014036238193512;-0.012217304669320583;0.021991148591041565
01:00:0A:00:00:00:00;1725667928;07/09/24;00:12:08;1.019;0.018;0.126;0.1062905490398407;-0.00855211354792118;0.0073303827084600925
01:00:0A:00:00:00:00;1725667929;07/09/24;00:12:09;1.018;0.019;0.123;0.09773843735456467;-0.009773843921720982;0.010995574295520782
01:00:0A:00:00:00:00;1725667930;07/09/24;00:12:10;1.016;0.009;0.127;0.09651670604944229;-0.006108652334660292;0.009773843921720982
01:00:0A:00:00:00:00;1725667931;07/09/24;00:12:11;1.008;0.012;0.123;0.10018189996480942;-0.0024434609804302454;0.0024434609804302454
01:00:0A:00:00:00:00;1725667932;07/09/24;00:12:12;1.004;0.014;0.121;0.09040805697441101;-0.004886921960860491;0.015882495790719986
01:00:0A:00:00:00:00;1725667933;07/09/24;00:12:13;1.005;0.009;0.122;0.08796459436416626;-0.010995574295520782;0.019547687843441963
01:00:0A:00:00:00:00;1725667934;07/09/24;00:12:14;1.01;0.013;0.123;0.09285151958465576;-0.015882495790719986;0.010995574295520782
01:00:0A:00:00:00:00;1725667935;07/09/24;00:12:15;1.013;0.015;0.12;0.08674286305904388;-0.010995574295520782;0.013439035043120384
01:00:0A:00:00:00:00;1725667936;07/09/24;00:12:16;1.014;0.013;0.122;0.08307767659425735;-0.00855211354792118;0.012217304669320583
01:00:0A:00:00:00:00;1725667937;07/09/24;00:12:17;1.012;0.012;0.124;0.08552113175392151;-0.013439035043120384;0.00855211354792118
01:00:0A:00:00:00:00;1725667938;07/09/24;00:12:18;1.011;0.014;0.121;0.080634206533432;-0.012217304669320583;0.013439035043120384
01:00:0A:00:00:00:00;1725667939;07/09/24;00:12:19;1.012;0.012;0.123;0.07696902006864548;-0.004886921960860491;0.014660765416920185
01:00:0A:00:00:00:00;1725667940;07/09/24;00:12:20;1.012;0.015;0.123;0.07819075137376785;-0.0073303827084600925;0.00855211354792118
01:00:0A:00:00:00:00;1725667941;07/09/24;00:12:21;1.012;0.014;0.119;0.0757472887635231;-0.0012217304902151227;0.00855211354792118
01:00:0A:00:00:00:00;1725667942;07/09/24;00:12:22;1.008;0.011;0.119;0.07208210229873657;-0.0024434609804302454;0.00855211354792118
01:00:0A:00:00:00:00;1725667943;07/09/24;00:12:23;1.008;0.011;0.12;0.07330382615327835;-0.012217304669320583;0.0073303827084600925
01:00:0A:00:00:00:00;1725667944;07/09/24;00:12:24;1.007;0.011;0.12;0.06963863223791122;-0.015882495790719986;0.013439035043120384
01:00:0A:00:00:00:00;1725667945;07/09/24;00:12:25;1.013;0.015;0.123;0.06719517707824707;-0.00855211354792118;0.014660765416920185
01:00:0A:00:00:00:00;1725667946;07/09/24;00:12:26;1.014;0.018;0.126;0.06719517707824707;-0.004886921960860491;0.00855211354792118
01:00:0A:00:00:00:00;1725667947;07/09/24;00:12:27;1.015;0.013;0.122;0.06841690838336945;-0.0012217304902151227;0.0
01:00:0A:00:00:00:00;1725667948;07/09/24;00:12:28;1.012;0.011;0.12;0.0659734457731247;0.0024434609804302454;0.0036651913542300463
01:00:0A:00:00:00:00;1725667949;07/09/24;00:12:29;1.011;0.011;0.121;0.06230825558304787;-0.009773843921720982;0.015882495790719986
01:00:0A:00:00:00:00;1725667950;07/09/24;00:12:30;1.011;0.014;0.122;0.06108652427792549;-0.013439035043120384;0.01710422709584236
01:00:0A:00:00:00:00;1725667951;07/09/24;00:12:31;1.01;0.018;0.123;0.06230825558304787;-0.00855211354792118;0.0073303827084600925
01:00:0A:00:00:00:00;1725667952;07/09/24;00:12:32;1.008;0.017;0.125;0.06108652427792549;-0.004886921960860491;0.0036651913542300463
01:00:0A:00:00:00:00;1725667953;07/09/24;00:12:33;1.006;0.014;0.122;0.059864792972803116;-0.006108652334660292;0.0012217304902151227
01:00:0A:00:00:00:00;1725667954;07/09/24;00:12:34;1.008;0.009;0.119;0.059864792972803116;-0.00855211354792118;0.004886921960860491
01:00:0A:00:00:00:00;1725667955;07/09/24;00:12:35;1.01;0.01;0.122;0.05497787147760391;-0.014660765416920185;0.01710422709584236
01:00:0A:00:00:00:00;1725667956;07/09/24;00:12:36;1.016;0.013;0.123;0.05497787147760391;-0.015882495790719986;0.02076941914856434
01:00:0A:00:00:00:00;1725667957;07/09/24;00:12:37;1.017;0.018;0.122;0.05619959905743599;-0.009773843921720982;0.012217304669320583
01:00:0A:00:00:00:00;1725667958;07/09/24;00:12:38;1.015;0.019;0.124;0.05742133408784866;-0.0024434609804302454;0.0
01:00:0A:00:00:00:00;1725667959;07/09/24;00:12:39;1.011;0.015;0.122;0.05864306166768074;-0.0024434609804302454;-0.0012217304902151227
01:00:0A:00:00:00:00;1725667960;07/09/24;00:12:40;1.004;0.01;0.12;0.05864306166768074;-0.0073303827084600925;0.0012217304902151227
01:00:0A:00:00:00:00;1725667961;07/09/24;00:12:41;1.003;0.01;0.118;0.05619959905743599;-0.010995574295520782;0.010995574295520782
01:00:0A:00:00:00:00;1725667962;07/09/24;00:12:42;1.009;0.012;0.122;0.05375614017248154;-0.019547687843441963;0.02076941914856434
01:00:0A:00:00:00:00;1725667963;07/09/24;00:12:43;1.015;0.016;0.123;0.05742133408784866;-0.01710422709584236;0.012217304669320583
01:00:0A:00:00:00:00;1725667964;07/09/24;00:12:44;1.016;0.018;0.125;0.05619959905743599;-0.006108652334660292;0.0073303827084600925
01:00:0A:00:00:00:00;1725667965;07/09/24;00:12:45;1.014;0.014;0.122;0.05742133408784866;0.0012217304902151227;0.0
01:00:0A:00:00:00:00;1725667966;07/09/24;00:12:46;1.011;0.011;0.119;0.05864306166768074;-0.0073303827084600925;0.0012217304902151227
01:00:0A:00:00:00:00;1725667967;07/09/24;00:12:47;1.008;0.01;0.119;0.05619959905743599;-0.014660765416920185;0.010995574295520782
01:00:0A:00:00:00:00;1725667968;07/09/24;00:12:48;1.008;0.011;0.124;0.05375614017248154;-0.014660765416920185;0.01710422709584236
01:00:0A:00:00:00:00;1725667969;07/09/24;00:12:49;1.014;0.015;0.123;0.05497787147760391;-0.009773843921720982;0.013439035043120384
01:00:0A:00:00:00:00;1725667970;07/09/24;00:12:50;1.016;0.016;0.122;0.05619959905743599;-0.004886921960860491;0.0073303827084600925
01:00:0A:00:00:00:00;1725667971;07/09/24;00:12:51;1.012;0.014;0.122;0.05742133408784866;-0.0024434609804302454;0.0012217304902151227
01:00:0A:00:00:00:00;1725667972;07/09/24;00:12:52;1.006;0.012;0.121;0.05864306166768074;-0.010995574295520782;0.004886921960860491
01:00:0A:00:00:00:00;1725667973;07/09/24;00:12:53;1.007;0.009;0.119;0.05742133408784866;-0.014660765416920185;0.009773843921720982
01:00:0A:00:00:00:00;1725667974;07/09/24;00:12:54;1.01;0.013;0.123;0.05619959905743599;-0.015882495790719986;0.01710422709584236
01:00:0A:00:00:00:00;1725667975;07/09/24;00:12:55;1.014;0.015;0.126;0.05619959905743599;-0.014660765416920185;0.014660765416920185
01:00:0A:00:00:00:00;1725667976;07/09/24;00:12:56;1.017;0.017;0.123;0.05864306166768074;-0.0012217304902151227;0.0024434609804302454
01:00:0A:00:00:00:00;1725667977;07/09/24;00:12:57;1.016;0.015;0.122;0.05742133408784866;0.0;0.0
01:00:0A:00:00:00:00;1725667978;07/09/24;00:12:58;1.009;0.012;0.122;0.05742133408784866;-0.00855211354792118;0.006108652334660292
01:00:0A:00:00:00:00;1725667979;07/09/24;00:12:59;1.007;0.012;0.121;0.05619959905743599;-0.009773843921720982;0.00855211354792118
01:00:0A:00:00:00:00;1725667980;07/09/24;00:13:00;1.007;0.016;0.123;0.05497787147760391;-0.00855211354792118;0.00855211354792118
01:00:0A:00:00:00:00;1725667981;07/09/24;00:13:01;1.009;0.014;0.122;0.05375614017248154;-0.009773843921720982;0.00855211354792118
01:00:0A:00:00:00:00;1725667982;07/09/24;00:13:02;1.011;0.012;0.12;0.05375614017248154;-0.012217304669320583;0.0073303827084600925
01:00:0A:00:00:00:00;1725667983;07/09/24;00:13:03;1.015;0.015;0.123;0.05253440886735916;-0.012217304669320583;0.009773843921720982
01:00:0A:00:00:00:00;1725667984;07/09/24;00:13:04;1.016;0.014;0.125;0.05009094998240471;-0.012217304669320583;0.010995574295520782
01:00:0A:00:00:00:00;1725667985;07/09/24;00:13:05;1.013;0.011;0.122;0.051312677562236786;-0.004886921960860491;0.0024434609804302454
01:00:0A:00:00:00:00;1725667986;07/09/24;00:13:06;1.011;0.014;0.122;0.05009094998240471;-0.0036651913542300463;0.0024434609804302454
01:00:0A:00:00:00:00;1725667987;07/09/24;00:13:07;1.009;0.014;0.122;0.04764748737215996;-0.0073303827084600925;0.00855211354792118
01:00:0A:00:00:00:00;1725667988;07/09/24;00:13:08;1.008;0.012;0.12;0.04886921867728233;-0.009773843921720982;0.004886921960860491
01:00:0A:00:00:00:00;1725667989;07/09/24;00:13:09;1.009;0.013;0.12;0.04764748737215996;-0.009773843921720982;0.006108652334660292
01:00:0A:00:00:00:00;1725667990;07/09/24;00:13:10;1.011;0.016;0.122;0.04398229718208313;-0.013439035043120384;0.012217304669320583
01:00:0A:00:00:00:00;1725667991;07/09/24;00:13:11;1.012;0.012;0.122;0.04642575979232788;-0.012217304669320583;0.004886921960860491
01:00:0A:00:00:00:00;1725667992;07/09/24;00:13:12;1.012;0.015;0.122;0.04642575979232788;-0.00855211354792118;0.0
01:00:0A:00:00:00:00;1725667993;07/09/24;00:13:13;1.01;0.014;0.121;0.04153883829712868;-0.010995574295520782;0.00855211354792118
01:00:0A:00:00:00:00;1725667994;07/09/24;00:13:14;1.012;0.012;0.122;0.042760565876960754;-0.010995574295520782;0.004886921960860491
01:00:0A:00:00:00:00;1725667995;07/09/24;00:13:15;1.014;0.016;0.122;0.04398229718208313;-0.009773843921720982;0.0012217304902151227
01:00:0A:00:00:00:00;1725667996;07/09/24;00:13:16;1.012;0.014;0.123;0.03787364438176155;-0.006108652334660292;0.009773843921720982
01:00:0A:00:00:00:00;1725667997;07/09/24;00:13:17;1.009;0.01;0.121;0.040317103266716;-0.009773843921720982;0.0073303827084600925
01:00:0A:00:00:00:00;1725667998;07/09/24;00:13:18;1.008;0.014;0.119;0.040317103266716;-0.012217304669320583;0.0024434609804302454
01:00:0A:00:00:00:00;1725667999;07/09/24;00:13:19;1.01;0.016;0.122;0.03420845419168472;-0.014660765416920185;0.010995574295520782
01:00:0A:00:00:00:00;1725668000;07/09/24;00:13:20;1.012;0.012;0.122;0.036651913076639175;-0.014660765416920185;0.004886921960860491
01:00:0A:00:00:00:00;1725668001;07/09/24;00:13:21;1.014;0.015;0.122;0.039095375686883926;-0.010995574295520782;-0.0012217304902151227
01:00:0A:00:00:00:00;1725668002;07/09/24;00:13:22;1.012;0.014;0.122;0.03176499158143997;-0.00855211354792118;0.00855211354792118
01:00:0A:00:00:00:00;1725668003;07/09/24;00:13:23;1.012;0.009;0.122;0.03420845419168472;-0.009773843921720982;0.0073303827084600925
01:00:0A:00:00:00:00;1725668004;07/09/24;00:13:24;1.012;0.015;0.121;0.03787364438176155;-0.009773843921720982;0.0012217304902151227
01:00:0A:00:00:00:00;1725668005;07/09/24;00:13:25;1.01;0.016;0.121;0.03176499158143997;-0.009773843921720982;0.009773843921720982
01:00:0A:00:00:00:00;1725668006;07/09/24;00:13:26;1.01;0.009;0.122;0.03420845419168472;-0.012217304669320583;0.006108652334660292
01:00:0A:00:00:00:00;1725668007;07/09/24;00:13:27;1.012;0.015;0.122;0.03787364438176155;-0.010995574295520782;0.0
01:00:0A:00:00:00:00;1725668008;07/09/24;00:13:28;1.011;0.015;0.121;0.03176499158143997;-0.006108652334660292;0.00855211354792118
01:00:0A:00:00:00:00;1725668009;07/09/24;00:13:29;1.012;0.009;0.122;0.0354301817715168;-0.009773843921720982;0.006108652334660292
01:00:0A:00:00:00:00;1725668010;07/09/24;00:13:30;1.014;0.014;0.121;0.040317103266716;-0.013439035043120384;0.0
01:00:0A:00:00:00:00;1725668011;07/09/24;00:13:31;1.012;0.014;0.123;0.03298672288656235;-0.00855211354792118;0.009773843921720982
01:00:0A:00:00:00:00;1725668012;07/09/24;00:13:32;1.01;0.011;0.125;0.03420845419168472;-0.0073303827084600925;0.010995574295520782
01:00:0A:00:00:00:00;1725668013;07/09/24;00:13:33;1.009;0.016;0.122;0.03787364438176155;-0.010995574295520782;0.0024434609804302454
01:00:0A:00:00:00:00;1725668014;07/09/24;00:13:34;1.009;0.016;0.121;0.03176499158143997;-0.0073303827084600925;0.00855211354792118
01:00:0A:00:00:00:00;1725668015;07/09/24;00:13:35;1.012;0.011;0.124;0.03298672288656235;-0.010995574295520782;0.004886921960860491
01:00:0A:00:00:00:00;1725668016;07/09/24;00:13:36;1.013;0.013;0.122;0.036651913076639175;-0.013439035043120384;0.0
01:00:0A:00:00:00:00;1725668017;07/09/24;00:13:37;1.013;0.015;0.121;0.02932153083384037;-0.00855211354792118;0.009773843921720982
01:00:0A:00:00:00:00;1725668018;07/09/24;00:13:38;1.009;0.011;0.124;0.02932153083384037;-0.009773843921720982;0.0073303827084600925
01:00:0A:00:00:00:00;1725668019;07/09/24;00:13:39;1.009;0.014;0.122;0.03420845419168472;-0.013439035043120384;-0.0012217304902151227
01:00:0A:00:00:00:00;1725668020;07/09/24;00:13:40;1.011;0.016;0.12;0.025656338781118393;-0.0073303827084600925;0.00855211354792118
01:00:0A:00:00:00:00;1725668021;07/09/24;00:13:41;1.013;0.01;0.123;0.02687807008624077;-0.00855211354792118;0.00855211354792118
01:00:0A:00:00:00:00;1725668022;07/09/24;00:13:42;1.012;0.013;0.122;0.03176499158143997;-0.015882495790719986;0.0012217304902151227
01:00:0A:00:00:00:00;1725668023;07/09/24;00:13:43;1.012;0.017;0.122;0.024434609338641167;-0.0073303827084600925;0.00855211354792118
01:00:0A:00:00:00:00;1725668024;07/09/24;00:13:44;1.01;0.013;0.123;0.02321287989616394;-0.004886921960860491;0.00855211354792118
01:00:0A:00:00:00:00;1725668025;07/09/24;00:13:45;1.01;0.014;0.122;0.02932153083384037;-0.013439035043120384;-0.0036651913542300463
01:00:0A:00:00:00:00;1725668026;07/09/24;00:13:46;1.009;0.015;0.119;0.02321287989616394;-0.009773843921720982;0.0036651913542300463
01:00:0A:00:00:00:00;1725668027;07/09/24;00:13:47;1.011;0.008;0.122;0.021991148591041565;-0.010995574295520782;0.00855211354792118
01:00:0A:00:00:00:00;1725668028;07/09/24;00:13:48;1.01;0.013;0.122;0.02687807008624077;-0.018325956538319588;0.0036651913542300463
01:00:0A:00:00:00:00;1725668029;07/09/24;00:13:49;1.012;0.018;0.12;0.02076941914856434;-0.010995574295520782;0.00855211354792118
01:00:0A:00:00:00:00;1725668030;07/09/24;00:13:50;1.013;0.012;0.124;0.02076941914856434;-0.00855211354792118;0.004886921960860491
01:00:0A:00:00:00:00;1725668031;07/09/24;00:13:51;1.013;0.011;0.123;0.025656338781118393;-0.013439035043120384;-0.0036651913542300463
01:00:0A:00:00:00:00;1725668032;07/09/24;00:13:52;1.01;0.014;0.119;0.019547687843441963;-0.006108652334660292;0.006108652334660292
01:00:0A:00:00:00:00;1725668033;07/09/24;00:13:53;1.009;0.012;0.122;0.01710422709584236;-0.006108652334660292;0.00855211354792118
01:00:0A:00:00:00:00;1725668034;07/09/24;00:13:54;1.01;0.013;0.122;0.024434609338641167;-0.01710422709584236;0.0
01:00:0A:00:00:00:00;1725668035;07/09/24;00:13:55;1.01;0.017;0.121;0.018325956538319588;-0.010995574295520782;0.0036651913542300463
01:00:0A:00:00:00:00;1725668036;07/09/24;00:13:56;1.009;0.013;0.123;0.01710422709584236;-0.0073303827084600925;0.006108652334660292
01:00:0A:00:00:00:00;1725668037;07/09/24;00:13:57;1.01;0.012;0.122;0.02321287989616394;-0.018325956538319588;-0.0012217304902151227
01:00:0A:00:00:00:00;1725668038;07/09/24;00:13:58;1.012;0.016;0.119;0.01710422709584236;-0.013439035043120384;0.004886921960860491
01:00:0A:00:00:00:00;1725668039;07/09/24;00:13:59;1.011;0.012;0.123;0.014660765416920185;-0.0073303827084600925;0.009773843921720982
01:00:0A:00:00:00:00;1725668040;07/09/24;00:14:00;1.014;0.014;0.123;0.019547687843441963;-0.014660765416920185;0.0024434609804302454
01:00:0A:00:00:00:00;1725668041;07/09/24;00:14:01;1.014;0.018;0.12;0.015882495790719986;-0.00855211354792118;0.0024434609804302454
01:00:0A:00:00:00:00;1725668042;07/09/24;00:14:02;1.008;0.011;0.123;0.014660765416920185;-0.0024434609804302454;0.0024434609804302454
01:00:0A:00:00:00:00;1725668043;07/09/24;00:14:03;1.008;0.011;0.122;0.019547687843441963;-0.014660765416920185;-0.0012217304902151227
01:00:0A:00:00:00:00;1725668044;07/09/24;00:14:04;1.007;0.013;0.118;0.014660765416920185;-0.013439035043120384;0.006108652334660292
01:00:0A:00:00:00:00;1725668045;07/09/24;00:14:05;1.009;0.012;0.122;0.012217304669320583;-0.012217304669320583;0.009773843921720982
01:00:0A:00:00:00:00;1725668046;07/09/24;00:14:06;1.013;0.012;0.124;0.018325956538319588;-0.019547687843441963;0.0
01:00:0A:00:00:00:00;1725668047;07/09/24;00:14:07;1.015;0.017;0.121;0.013439035043120384;-0.012217304669320583;0.006108652334660292
01:00:0A:00:00:00:00;1725668048;07/09/24;00:14:08;1.014;0.013;0.123;0.010995574295520782;-0.0024434609804302454;0.004886921960860491
01:00:0A:00:00:00:00;1725668049;07/09/24;00:14:09;1.011;0.013;0.122;0.01710422709584236;-0.012217304669320583;-0.0036651913542300463
01:00:0A:00:00:00:00;1725668050;07/09/24;00:14:10;1.008;0.015;0.119;0.013439035043120384;-0.012217304669320583;0.0024434609804302454
01:00:0A:00:00:00:00;1725668051;07/09/24;00:14:11;1.008;0.012;0.122;0.009773843921720982;-0.0073303827084600925;0.009773843921720982
01:00:0A:00:00:00:00;1725668052;07/09/24;00:14:12;1.01;0.011;0.122;0.015882495790719986;-0.015882495790719986;0.0024434609804302454
01:00:0A:00:00:00:00;1725668053;07/09/24;00:14:13;1.012;0.016;0.119;0.013439035043120384;-0.014660765416920185;0.0036651913542300463
01:00:0A:00:00:00:00;1725668054;07/09/24;00:14:14;1.013;0.012;0.123;0.009773843921720982;-0.00855211354792118;0.0073303827084600925
01:00:0A:00:00:00:00;1725668055;07/09/24;00:14:15;1.01;0.012;0.124;0.015882495790719986;-0.014660765416920185;0.0
01:00:0A:00:00:00:00;1725668056;07/09/24;00:14:16;1.011;0.016;0.119;0.012217304669320583;-0.013439035043120384;0.0036651913542300463
01:00:0A:00:00:00:00;1725668057;07/09/24;00:14:17;1.012;0.012;0.122;0.00855211354792118;-0.0073303827084600925;0.0073303827084600925
01:00:0A:00:00:00:00;1725668058;07/09/24;00:14:18;1.01;0.013;0.124;0.014660765416920185;-0.014660765416920185;0.0
01:00:0A:00:00:00:00;1725668059;07/09/24;00:14:19;1.013;0.015;0.12;0.012217304669320583;-0.012217304669320583;0.0024434609804302454
01:00:0A:00:00:00:00;1725668060;07/09/24;00:14:20;1.011;0.011;0.122;0.0073303827084600925;-0.006108652334660292;0.00855211354792118
01:00:0A:00:00:00:00;1725668061;07/09/24;00:14:21;1.012;0.012;0.124;0.013439035043120384;-0.014660765416920185;0.0
01:00:0A:00:00:00:00;1725668062;07/09/24;00:14:22;1.01;0.015;0.12;0.012217304669320583;-0.015882495790719986;0.0024434609804302454
01:00:0A:00:00:00:00;1725668063;07/09/24;00:14:23;1.011;0.012;0.122;0.0073303827084600925;-0.0073303827084600925;0.00855211354792118
01:00:0A:00:00:00:00;1725668064;07/09/24;00:14:24;1.012;0.011;0.124;0.012217304669320583;-0.013439035043120384;0.0012217304902151227
01:00:0A:00:00:00:00;1725668065;07/09/24;00:14:25;1.012;0.016;0.119;0.010995574295520782;-0.014660765416920185;0.0012217304902151227
01:00:0A:00:00:00:00;1725668066;07/09/24;00:14:26;1.011;0.011;0.122;0.006108652334660292;-0.006108652334660292;0.0073303827084600925
01:00:0A:00:00:00:00;1725668067;07/09/24;00:14:27;1.01;0.011;0.124;0.010995574295520782;-0.013439035043120384;0.0024434609804302454
01:00:0A:00:00:00:00;1725668068;07/09/24;00:14:28;1.011;0.017;0.119;0.010995574295520782;-0.013439035043120384;0.0012217304902151227
01:00:0A:00:00:00:00;1725668069;07/09/24;00:14:29;1.01;0.014;0.121;0.006108652334660292;-0.0073303827084600925;0.006108652334660292
01:00:0A:00:00:00:00;1725668070;07/09/24;00:14:30;1.009;0.01;0.124;0.010995574295520782;-0.014660765416920185;0.0
01:00:0A:00:00:00:00;1725668071;07/09/24;00:14:31;1.011;0.014;0.12;0.009773843921720982;-0.014660765416920185;0.0024434609804302454
01:00:0A:00:00:00:00;1725668072;07/09/24;00:14:32;1.011;0.013;0.122;0.0036651913542300463;-0.004886921960860491;0.00855211354792118
01:00:0A:00:00:00:00;1725668073;07/09/24;00:14:33;1.011;0.013;0.124;0.00855211354792118;-0.012217304669320583;0.0012217304902151227
01:00:0A:00:00:00:00;1725668074;07/09/24;00:14:34;1.012;0.015;0.12;0.00855211354792118;-0.014660765416920185;0.0012217304902151227
01:00:0A:00:00:00:00;1725668075;07/09/24;00:14:35;1.011;0.013;0.122;0.0036651913542300463;-0.004886921960860491;0.0073303827084600925
01:00:0A:00:00:00:00;1725668076;07/09/24;00:14:36;1.011;0.01;0.124;0.00855211354792118;-0.013439035043120384;0.0024434609804302454
01:00:0A:00:00:00:00;1725668077;07/09/24;00:14:37;1.01;0.016;0.122;0.00855211354792118;-0.01710422709584236;0.0024434609804302454
01:00:0A:00:00:00:00;1725668078;07/09/24;00:14:38;1.012;0.013;0.122;0.0024434609804302454;-0.006108652334660292;0.0073303827084600925
01:00:0A:00:00:00:00;1725668079;07/09/24;00:14:39;1.011;0.012;0.124;0.0073303827084600925;-0.010995574295520782;0.0024434609804302454
01:00:0A:00:00:00:00;1725668080;07/09/24;00:14:40;1.012;0.014;0.12;0.009773843921720982;-0.015882495790719986;0.0
01:00:0A:00:00:00:00;1725668081;07/09/24;00:14:41;1.011;0.012;0.121;0.0036651913542300463;-0.006108652334660292;0.004886921960860491
01:00:0A:00:00:00:00;1725668082;07/09/24;00:14:42;1.01;0.01;0.123;0.0073303827084600925;-0.010995574295520782;0.004886921960860491
01:00:0A:00:00:00:00;1725668083;07/09/24;00:14:43;1.011;0.014;0.121;0.00855211354792118;-0.015882495790719986;0.004886921960860491
01:00:0A:00:00:00:00;1725668084;07/09/24;00:14:44;1.012;0.015;0.121;0.0036651913542300463;-0.006108652334660292;0.0073303827084600925
01:00:0A:00:00:00:00;1725668085;07/09/24;00:14:45;1.011;0.013;0.124;0.00855211354792118;-0.010995574295520782;-0.0012217304902151227
01:00:0A:00:00:00:00;1725668086;07/09/24;00:14:46;1.011;0.013;0.121;0.00855211354792118;-0.01710422709584236;0.0
01:00:0A:00:00:00:00;1725668087;07/09/24;00:14:47;1.012;0.013;0.121;0.0024434609804302454;-0.0073303827084600925;0.00855211354792118
01:00:0A:00:00:00:00;1725668088;07/09/24;00:14:48;1.012;0.011;0.125;0.004886921960860491;-0.010995574295520782;0.004886921960860491
01:00:0A:00:00:00:00;1725668089;07/09/24;00:14:49;1.013;0.017;0.121;0.0073303827084600925;-0.015882495790719986;0.0012217304902151227
01:00:0A:00:00:00:00;1725668090;07/09/24;00:14:50;1.012;0.015;0.122;0.0012217304902151227;-0.004886921960860491;0.0036651913542300463
01:00:0A:00:00:00:00;1725668091;07/09/24;00:14:51;1.01;0.011;0.125;0.0036651913542300463;-0.006108652334660292;-0.0012217304902151227
01:00:0A:00:00:00:00;1725668092;07/09/24;00:14:52;1.01;0.013;0.119;0.006108652334660292;-0.014660765416920185;-0.0024434609804302454
01:00:0A:00:00:00:00;1725668093;07/09/24;00:14:53;1.01;0.013;0.119;-0.0012217304902151227;-0.009773843921720982;0.00855211354792118
01:00:0A:00:00:00:00;1725668094;07/09/24;00:14:54;1.011;0.012;0.124;0.0012217304902151227;-0.012217304669320583;0.006108652334660292
01:00:0A:00:00:00:00;1725668095;07/09/24;00:14:55;1.011;0.017;0.122;0.0036651913542300463;-0.01710422709584236;0.0024434609804302454
01:00:0A:00:00:00:00;1725668096;07/09/24;00:14:56;1.013;0.016;0.121;-0.0012217304902151227;-0.0073303827084600925;0.0036651913542300463
01:00:0A:00:00:00:00;1725668097;07/09/24;00:14:57;1.012;0.011;0.125;0.0012217304902151227;-0.0073303827084600925;-0.0012217304902151227
01:00:0A:00:00:00:00;1725668098;07/09/24;00:14:58;1.01;0.013;0.121;0.0024434609804302454;-0.013439035043120384;-0.0012217304902151227
01:00:0A:00:00:00:00;1725668099;07/09/24;00:14:59;1.01;0.013;0.119;-0.0036651913542300463;-0.00855211354792118;0.00855211354792118
01:00:0A:00:00:00:00;1725668100;07/09/24;00:15:00;1.011;0.012;0.124;-0.0012217304902151227;-0.010995574295520782;0.004886921960860491
01:00:0A:00:00:00:00;1725668101;07/09/24;00:15:01;1.012;0.016;0.122;0.0024434609804302454;-0.01710422709584236;0.0
01:00:0A:00:00:00:00;1725668102;07/09/24;00:15:02;1.012;0.015;0.121;-0.0024434609804302454;-0.00855211354792118;0.0036651913542300463
01:00:0A:00:00:00:00;1725668103;07/09/24;00:15:03;1.011;0.012;0.124;0.0;-0.00855211354792118;0.0012217304902151227
01:00:0A:00:00:00:00;1725668104;07/09/24;00:15:04;1.011;0.015;0.122;0.0036651913542300463;-0.014660765416920185;-0.0024434609804302454
01:00:0A:00:00:00:00;1725668105;07/09/24;00:15:05;1.011;0.014;0.12;-0.0024434609804302454;-0.009773843921720982;0.006108652334660292
01:00:0A:00:00:00:00;1725668106;07/09/24;00:15:06;1.01;0.011;0.123;0.0;-0.010995574295520782;0.004886921960860491
01:00:0A:00:00:00:00;1725668107;07/09/24;00:15:07;1.011;0.014;0.123;0.0036651913542300463;-0.014660765416920185;0.0
01:00:0A:00:00:00:00;1725668108;07/09/24;00:15:08;1.01;0.015;0.121;-0.0012217304902151227;-0.0073303827084600925;0.006108652334660292
01:00:0A:00:00:00:00;1725668109;07/09/24;00:15:09;1.01;0.012;0.123;0.0;-0.0073303827084600925;0.0024434609804302454
01:00:0A:00:00:00:00;1725668110;07/09/24;00:15:10;1.011;0.014;0.122;0.004886921960860491;-0.013439035043120384;-0.0012217304902151227
01:00:0A:00:00:00:00;1725668111;07/09/24;00:15:11;1.011;0.015;0.12;-0.0012217304902151227;-0.009773843921720982;0.004886921960860491
01:00:0A:00:00:00:00;1725668112;07/09/24;00:15:12;1.01;0.009;0.123;0.0;-0.010995574295520782;0.0036651913542300463
01:00:0A:00:00:00:00;1725668113;07/09/24;00:15:13;1.01;0.013;0.122;0.0036651913542300463;-0.015882495790719986;0.0
01:00:0A:00:00:00:00;1725668114;07/09/24;00:15:14;1.012;0.016;0.121;-0.0012217304902151227;-0.009773843921720982;0.006108652334660292
01:00:0A:00:00:00:00;1725668115;07/09/24;00:15:15;1.011;0.011;0.123;-0.0012217304902151227;-0.0073303827084600925;0.004886921960860491
01:00:0A:00:00:00:00;1725668116;07/09/24;00:15:16;1.011;0.015;0.122;0.0036651913542300463;-0.013439035043120384;-0.0024434609804302454
01:00:0A:00:00:00:00;1725668117;07/09/24;00:15:17;1.011;0.016;0.12;-0.0012217304902151227;-0.009773843921720982;0.0036651913542300463
01:00:0A:00:00:00:00;1725668118;07/09/24;00:15:18;1.009;0.011;0.122;-0.0024434609804302454;-0.009773843921720982;0.006108652334660292
01:00:0A:00:00:00:00;1725668119;07/09/24;00:15:19;1.011;0.014;0.122;0.0024434609804302454;-0.01710422709584236;0.0012217304902151227
01:00:0A:00:00:00:00;1725668120;07/09/24;00:15:20;1.012;0.015;0.122;-0.0024434609804302454;-0.009773843921720982;0.006108652334660292
01:00:0A:00:00:00:00;1725668121;07/09/24;00:15:21;1.011;0.012;0.123;-0.0024434609804302454;-0.00855211354792118;0.0036651913542300463
01:00:0A:00:00:00:00;1725668122;07/09/24;00:15:22;1.011;0.013;0.122;0.0024434609804302454;-0.013439035043120384;-0.0036651913542300463
01:00:0A:00:00:00:00;1725668123;07/09/24;00:15:23;1.01;0.014;0.121;-0.0024434609804302454;-0.009773843921720982;0.0036651913542300463
01:00:0A:00:00:00:00;1725668124;07/09/24;00:15:24;1.011;0.011;0.123;-0.0024434609804302454;-0.00855211354792118;0.004886921960860491
01:00:0A:00:00:00:00;1725668125;07/09/24;00:15:25;1.01;0.013;0.123;0.0012217304902151227;-0.01710422709584236;0.0
01:00:0A:00:00:00:00;1725668126;07/09/24;00:15:26;1.012;0.016;0.122;-0.0024434609804302454;-0.012217304669320583;0.004886921960860491
01:00:0A:00:00:00:00;1725668127;07/09/24;00:15:27;1.012;0.012;0.123;-0.0036651913542300463;-0.00855211354792118;0.004886921960860491
01:00:0A:00:00:00:00;1725668128;07/09/24;00:15:28;1.011;0.013;0.122;0.0024434609804302454;-0.014660765416920185;-0.0036651913542300463
01:00:0A:00:00:00:00;1725668129;07/09/24;00:15:29;1.011;0.015;0.12;-0.0012217304902151227;-0.012217304669320583;0.0024434609804302454
01:00:0A:00:00:00:00;1725668130;07/09/24;00:15:30;1.011;0.011;0.123;-0.0036651913542300463;-0.009773843921720982;0.004886921960860491
01:00:0A:00:00:00:00;1725668131;07/09/24;00:15:31;1.013;0.012;0.122;0.0012217304902151227;-0.013439035043120384;-0.0012217304902151227
01:00:0A:00:00:00:00;1725668132;07/09/24;00:15:32;1.011;0.016;0.121;-0.0012217304902151227;-0.010995574295520782;0.0036651913542300463
01:00:0A:00:00:00:00;1725668133;07/09/24;00:15:33;1.01;0.012;0.122;-0.0036651913542300463;-0.00855211354792118;0.006108652334660292
01:00:0A:00:00:00:00;1725668134;07/09/24;00:15:34;1.01;0.013;0.122;0.0012217304902151227;-0.014660765416920185;0.0
01:00:0A:00:00:00:00;1725668135;07/09/24;00:15:35;1.012;0.015;0.121;-0.0012217304902151227;-0.012217304669320583;0.0036651913542300463
