Source;Epoch timestamp (UTC);Date;Time (UTC);Accel X (G);Accel Y (G);Accel Z (G);Gyro X (rad/s);Gyro Y (rad/s);Gyro Z (rad/s)
01:00:0A:00:00:00:00;1726358393;14/09/24;23:59:53;1.018;0.016;0.125;-0.024434609338641167;-0.0036651913542300463;-0.030543262138962746
01:00:0A:00:00:00:00;1726358394;14/09/24;23:59:54;1.01;0.006;0.13;-0.03420845419168472;0.013439035043120384;0.0
01:00:0A:00:00:00:00;1726358395;14/09/24;23:59:55;1.006;-0.009;0.125;-0.014660765416920185;-0.02932153083384037;0.004886921960860491
01:00:0A:00:00:00:00;1726358396;14/09/24;23:59:56;1.011;0.001;0.122;-0.0012217304902151227;-0.025656338781118393;0.00855211354792118
01:00:0A:00:00:00:00;1726358397;14/09/24;23:59:57;1.017;0.003;0.136;0.0073303827084600925;-0.018325956538319588;0.02321287989616394
01:00:0A:00:00:00:00;1726358398;14/09/24;23:59:58;1.019;0.008;0.131;0.028099799528717995;-0.0024434609804302454;-0.0024434609804302454
01:00:0A:00:00:00:00;1726358399;14/09/24;23:59:59;1.006;0.018;0.123;0.02932153083384037;0.02687807008624077;-0.018325956538319588
01:00:0A:00:00:00:00;1726358400;15/09/24;00:00:00;0.993;0.013;0.122;0.019547687843441963;0.013439035043120384;0.0024434609804302454
01:00:0A:00:00:00:00;1726358401;15/09/24;00:00:01;0.989;0.014;0.112;0.02076941914856434;-0.030543262138962746;-0.009773843921720982
01:00:0A:00:00:00:00;1726358402;15/09/24;00:00:02;1.015;0.021;0.116;0.0036651913542300463;-0.05864306166768074;0.012217304669320583
01:00:0A:00:00:00:00;1726358403;15/09/24;00:00:03;1.03;0.009;0.132;-0.0012217304902151227;-0.04886921867728233;-0.0073303827084600925
01:00:0A:00:00:00:00;1726358404;15/09/24;00:00:04;1.038;0.007;0.148;-0.0012217304902151227;-0.0012217304902151227;-0.02321287989616394
01:00:0A:00:00:00:00;1726358405;15/09/24;00:00:05;1.026;0.008;0.144;-0.014660765416920185;0.02321287989616394;-0.00855211354792118
01:00:0A:00:00:00:00;1726358406;15/09/24;00:00:06;0.999;-0.003;0.126;-0.01710422709584236;0.025656338781118393;0.010995574295520782
01:00:0A:00:00:00:00;1726358407;15/09/24;00:00:07;0.988;0.007;0.12;-0.009773843921720982;-0.006108652334660292;0.0036651913542300463
01:00:0A:00:00:00:00;1726358408;15/09/24;00:00:08;0.999;0.019;0.119;-0.028099799528717995;-0.025656338781118393;0.03420845419168472
01:00:0A:00:00:00:00;1726358409;15/09/24;00:00:09;1.016;0.008;0.129;-0.019547687843441963;-0.0354301817715168;0.0036651913542300463
01:00:0A:00:00:00:00;1726358410;15/09/24;00:00:10;1.025;0.023;0.136;-0.014660765416920185;-0.012217304669320583;-0.028099799528717995
01:00:0A:00:00:00:00;1726358411;15/09/24;00:00:11;1.009;0.013;0.13;-0.03298672288656235;0.013439035043120384;-0.0024434609804302454
01:00:0A:00:00:00:00;1726358412;15/09/24;00:00:12;0.997;0.0;0.126;-0.03176499158143997;0.00855211354792118;0.0036651913542300463
01:00:0A:00:00:00:00;1726358413;15/09/24;00:00:13;0.993;0.011;0.122;-0.019547687843441963;-0.02932153083384037;-0.00855211354792118
01:00:0A:00:00:00:00;1726358414;15/09/24;00:00:14;1.002;0.018;0.12;-0.03787364438176155;-0.039095375686883926;0.03298672288656235
01:00:0A:00:00:00:00;1726358415;15/09/24;00:00:15;1.025;0.002;0.135;-0.02321287989616394;-0.03176499158143997;-0.0036651913542300463
01:00:0A:00:00:00:00;1726358416;15/09/24;00:00:16;1.031;0.015;0.144;-0.013439035043120384;-0.021991148591041565;-0.025656338781118393
01:00:0A:00:00:00:00;1726358417;15/09/24;00:00:17;1.024;0.011;0.139;-0.028099799528717995;0.00855211354792118;0.0012217304902151227
01:00:0A:00:00:00:00;1726358418;15/09/24;00:00:18;1.003;-0.006;0.128;-0.025656338781118393;0.025656338781118393;0.015882495790719986
01:00:0A:00:00:00:00;1726358419;15/09/24;00:00:19;0.989;0.011;0.122;-0.009773843921720982;0.004886921960860491;-0.009773843921720982
01:00:0A:00:00:00:00;1726358420;15/09/24;00:00:20;0.99;0.018;0.118;-0.02687807008624077;-0.021991148591041565;0.0354301817715168
01:00:0A:00:00:00:00;1726358421;15/09/24;00:00:21;1.0;0.001;0.117;-0.014660765416920185;-0.02687807008624077;0.006108652334660292
01:00:0A:00:00:00:00;1726358422;15/09/24;00:00:22;1.016;0.018;0.127;-0.0024434609804302454;-0.02932153083384037;-0.021991148591041565
01:00:0A:00:00:00:00;1726358423;15/09/24;00:00:23;1.019;0.02;0.127;-0.018325956538319588;-0.025656338781118393;0.0012217304902151227
01:00:0A:00:00:00:00;1726358424;15/09/24;00:00:24;1.019;-0.006;0.122;-0.014660765416920185;-0.014660765416920185;-0.00855211354792118
01:00:0A:00:00:00:00;1726358425;15/09/24;00:00:25;1.013;0.007;0.127;-0.0024434609804302454;-0.012217304669320583;-0.030543262138962746
01:00:0A:00:00:00:00;1726358426;15/09/24;00:00:26;1.008;0.008;0.124;-0.018325956538319588;-0.028099799528717995;0.01710422709584236
01:00:0A:00:00:00:00;1726358427;15/09/24;00:00:27;1.012;-0.004;0.123;-0.010995574295520782;-0.015882495790719986;0.0073303827084600925
01:00:0A:00:00:00:00;1726358428;15/09/24;00:00:28;1.019;0.011;0.132;-0.006108652334660292;0.0012217304902151227;-0.0073303827084600925
01:00:0A:00:00:00:00;1726358429;15/09/24;00:00:29;1.022;0.018;0.126;-0.02321287989616394;0.0;0.014660765416920185
01:00:0A:00:00:00:00;1726358430;15/09/24;00:00:30;1.018;0.001;0.121;-0.024434609338641167;0.010995574295520782;0.00855211354792118
01:00:0A:00:00:00:00;1726358431;15/09/24;00:00:31;1.0;0.019;0.12;-0.013439035043120384;0.0024434609804302454;-0.03176499158143997
01:00:0A:00:00:00:00;1726358432;15/09/24;00:00:32;0.989;0.015;0.117;-0.03420845419168472;-0.02321287989616394;0.004886921960860491
01:00:0A:00:00:00:00;1726358433;15/09/24;00:00:33;0.987;-0.002;0.112;-0.03176499158143997;-0.02321287989616394;-0.009773843921720982
01:00:0A:00:00:00:00;1726358434;15/09/24;00:00:34;0.997;0.005;0.12;-0.02932153083384037;-0.03176499158143997;-0.012217304669320583
01:00:0A:00:00:00:00;1726358435;15/09/24;00:00:35;1.02;0.013;0.128;-0.04764748737215996;-0.04642575979232788;0.0354301817715168
01:00:0A:00:00:00:00;1726358436;15/09/24;00:00:36;1.031;-0.003;0.122;-0.039095375686883926;-0.02321287989616394;0.0012217304902151227
01:00:0A:00:00:00:00;1726358437;15/09/24;00:00:37;1.033;0.02;0.134;-0.03298672288656235;0.0024434609804302454;-0.018325956538319588
01:00:0A:00:00:00:00;1726358438;15/09/24;00:00:38;1.019;0.018;0.133;-0.04153883829712868;-0.0036651913542300463;-0.0012217304902151227
01:00:0A:00:00:00:00;1726358439;15/09/24;00:00:39;1.011;0.0;0.122;-0.03176499158143997;0.0;-0.009773843921720982
01:00:0A:00:00:00:00;1726358440;15/09/24;00:00:40;0.994;0.006;0.129;-0.021991148591041565;0.009773843921720982;-0.03176499158143997
01:00:0A:00:00:00:00;1726358441;15/09/24;00:00:41;0.993;0.0;0.13;-0.03176499158143997;-0.014660765416920185;0.015882495790719986
01:00:0A:00:00:00:00;1726358442;15/09/24;00:00:42;0.995;-0.006;0.116;-0.02076941914856434;-0.014660765416920185;0.009773843921720982
01:00:0A:00:00:00:00;1726358443;15/09/24;00:00:43;1.0;0.007;0.122;-0.014660765416920185;0.0024434609804302454;0.0036651913542300463
01:00:0A:00:00:00:00;1726358444;15/09/24;00:00:44;1.015;0.016;0.125;-0.018325956538319588;-0.04153883829712868;0.025656338781118393
01:00:0A:00:00:00:00;1726358445;15/09/24;00:00:45;1.021;0.003;0.114;-0.006108652334660292;-0.03787364438176155;-0.0024434609804302454
01:00:0A:00:00:00:00;1726358446;15/09/24;00:00:46;1.022;0.015;0.131;0.0;-0.009773843921720982;-0.02687807008624077
01:00:0A:00:00:00:00;1726358447;15/09/24;00:00:47;1.014;0.007;0.141;-0.00855211354792118;-0.012217304669320583;0.0012217304902151227
01:00:0A:00:00:00:00;1726358448;15/09/24;00:00:48;1.011;-0.003;0.123;-0.0073303827084600925;-0.006108652334660292;0.006108652334660292
01:00:0A:00:00:00:00;1726358449;15/09/24;00:00:49;1.007;0.009;0.123;-0.004886921960860491;0.02321287989616394;-0.006108652334660292
01:00:0A:00:00:00:00;1726358450;15/09/24;00:00:50;1.008;0.014;0.127;-0.013439035043120384;-0.010995574295520782;0.02076941914856434
01:00:0A:00:00:00:00;1726358451;15/09/24;00:00:51;1.013;0.002;0.112;-0.004886921960860491;-0.025656338781118393;-0.0024434609804302454
01:00:0A:00:00:00:00;1726358452;15/09/24;00:00:52;1.011;0.01;0.125;-0.0012217304902151227;-0.0036651913542300463;-0.02076941914856434
01:00:0A:00:00:00:00;1726358453;15/09/24;00:00:53;1.008;0.007;0.137;-0.009773843921720982;-0.012217304669320583;0.0073303827084600925
01:00:0A:00:00:00:00;1726358454;15/09/24;00:00:54;1.007;-0.004;0.12;-0.009773843921720982;-0.006108652334660292;0.01710422709584236
01:00:0A:00:00:00:00;1726358455;15/09/24;00:00:55;1.008;0.006;0.122;-0.0073303827084600925;0.018325956538319588;0.006108652334660292
01:00:0A:00:00:00:00;1726358456;15/09/24;00:00:56;1.016;0.019;0.125;-0.009773843921720982;-0.02687807008624077;0.025656338781118393
01:00:0A:00:00:00:00;1726358457;15/09/24;00:00:57;1.019;0.007;0.112;0.0;-0.03176499158143997;0.0
01:00:0A:00:00:00:00;1726358458;15/09/24;00:00:58;1.018;0.011;0.125;0.006108652334660292;-0.0073303827084600925;-0.0354301817715168
01:00:0A:00:00:00:00;1726358459;15/09/24;00:00:59;1.015;0.006;0.136;0.0;-0.019547687843441963;-0.009773843921720982
01:00:0A:00:00:00:00;1726358460;15/09/24;00:01:00;1.006;-0.008;0.122;-0.0012217304902151227;-0.00855211354792118;0.00855211354792118
01:00:0A:00:00:00:00;1726358461;15/09/24;00:01:01;1.006;0.001;0.124;-0.0012217304902151227;0.02321287989616394;-0.0024434609804302454
01:00:0A:00:00:00:00;1726358462;15/09/24;00:01:02;1.0;0.01;0.123;-0.00855211354792118;-0.010995574295520782;0.02321287989616394
01:00:0A:00:00:00:00;1726358463;15/09/24;00:01:03;1.008;0.005;0.112;-0.0036651913542300463;-0.036651913076639175;0.010995574295520782
01:00:0A:00:00:00:00;1726358464;15/09/24;00:01:04;1.014;0.008;0.116;-0.0012217304902151227;-0.021991148591041565;-0.004886921960860491
01:00:0A:00:00:00:00;1726358465;15/09/24;00:01:05;1.018;0.011;0.133;-0.0073303827084600925;-0.025656338781118393;0.0073303827084600925
01:00:0A:00:00:00:00;1726358466;15/09/24;00:01:06;1.021;0.002;0.124;-0.006108652334660292;-0.02321287989616394;0.004886921960860491
01:00:0A:00:00:00:00;1726358467;15/09/24;00:01:07;1.014;0.01;0.123;-0.0073303827084600925;0.004886921960860491;-0.0024434609804302454
01:00:0A:00:00:00:00;1726358468;15/09/24;00:01:08;1.008;0.016;0.129;-0.012217304669320583;-0.0012217304902151227;0.006108652334660292
01:00:0A:00:00:00:00;1726358469;15/09/24;00:01:09;1.006;0.007;0.122;-0.009773843921720982;-0.013439035043120384;0.0
01:00:0A:00:00:00:00;1726358470;15/09/24;00:01:10;1.013;0.01;0.122;-0.00855211354792118;0.0;-0.00855211354792118
01:00:0A:00:00:00:00;1726358471;15/09/24;00:01:11;1.021;0.009;0.129;-0.010995574295520782;-0.0073303827084600925;-0.006108652334660292
01:00:0A:00:00:00:00;1726358472;15/09/24;00:01:12;1.016;0.001;0.121;-0.012217304669320583;-0.00855211354792118;0.0012217304902151227
01:00:0A:00:00:00:00;1726358473;15/09/24;00:01:13;1.007;0.006;0.122;-0.010995574295520782;0.0;-0.00855211354792118
01:00:0A:00:00:00:00;1726358474;15/09/24;00:01:14;0.989;0.006;0.125;-0.014660765416920185;-0.028099799528717995;0.013439035043120384
01:00:0A:00:00:00:00;1726358475;15/09/24;00:01:15;0.989;0.002;0.12;-0.010995574295520782;-0.040317103266716;0.010995574295520782
01:00:0A:00:00:00:00;1726358476;15/09/24;00:01:16;1.011;0.005;0.129;-0.013439035043120384;-0.024434609338641167;0.013439035043120384
01:00:0A:00:00:00:00;1726358477;15/09/24;00:01:17;1.024;0.009;0.138;-0.015882495790719986;-0.019547687843441963;0.018325956538319588
01:00:0A:00:00:00:00;1726358478;15/09/24;00:01:18;1.037;0.008;0.127;-0.013439035043120384;0.0073303827084600925;0.0036651913542300463
01:00:0A:00:00:00:00;1726358479;15/09/24;00:01:19;1.031;0.012;0.124;-0.012217304669320583;0.018325956538319588;-0.004886921960860491
01:00:0A:00:00:00:00;1726358480;15/09/24;00:01:20;1.009;0.011;0.12;-0.010995574295520782;0.009773843921720982;-0.015882495790719986
01:00:0A:00:00:00:00;1726358481;15/09/24;00:01:21;0.989;0.005;0.115;-0.009773843921720982;-0.024434609338641167;-0.013439035043120384
01:00:0A:00:00:00:00;1726358482;15/09/24;00:01:22;0.991;0.003;0.117;-0.012217304669320583;-0.019547687843441963;-0.009773843921720982
01:00:0A:00:00:00:00;1726358483;15/09/24;00:01:23;1.003;0.004;0.125;-0.015882495790719986;-0.03787364438176155;0.010995574295520782
01:00:0A:00:00:00:00;1726358484;15/09/24;00:01:24;1.013;0.003;0.126;-0.019547687843441963;-0.039095375686883926;0.01710422709584236
01:00:0A:00:00:00:00;1726358485;15/09/24;00:01:25;1.022;0.009;0.131;-0.02321287989616394;-0.009773843921720982;0.014660765416920185
01:00:0A:00:00:00:00;1726358486;15/09/24;00:01:26;1.022;0.011;0.134;-0.02321287989616394;-0.0012217304902151227;0.006108652334660292
01:00:0A:00:00:00:00;1726358487;15/09/24;00:01:27;1.015;0.012;0.123;-0.02321287989616394;-0.0024434609804302454;-0.0024434609804302454
01:00:0A:00:00:00:00;1726358488;15/09/24;00:01:28;1.01;0.01;0.122;-0.024434609338641167;0.006108652334660292;-0.009773843921720982
01:00:0A:00:00:00:00;1726358489;15/09/24;00:01:29;1.005;0.004;0.122;-0.02687807008624077;-0.00855211354792118;-0.0036651913542300463
01:00:0A:00:00:00:00;1726358490;15/09/24;00:01:30;1.006;0.003;0.12;-0.028099799528717995;-0.025656338781118393;0.004886921960860491
01:00:0A:00:00:00:00;1726358491;15/09/24;00:01:31;1.01;0.005;0.118;-0.03298672288656235;-0.015882495790719986;0.012217304669320583
01:00:0A:00:00:00:00;1726358492;15/09/24;00:01:32;1.013;0.009;0.127;-0.03176499158143997;-0.01710422709584236;0.004886921960860491
01:00:0A:00:00:00:00;1726358493;15/09/24;00:01:33;1.016;0.012;0.122;-0.030543262138962746;-0.01710422709584236;-0.006108652334660292
01:00:0A:00:00:00:00;1726358494;15/09/24;00:01:34;1.013;0.009;0.117;-0.03176499158143997;-0.006108652334660292;-0.014660765416920185
01:00:0A:00:00:00:00;1726358495;15/09/24;00:01:35;1.012;0.004;0.124;-0.030543262138962746;-0.010995574295520782;-0.01710422709584236
01:00:0A:00:00:00:00;1726358496;15/09/24;00:01:36;1.01;0.0;0.119;-0.028099799528717995;-0.025656338781118393;-0.00855211354792118
01:00:0A:00:00:00:00;1726358497;15/09/24;00:01:37;1.01;0.0;0.12;-0.0354301817715168;-0.00855211354792118;0.004886921960860491
01:00:0A:00:00:00:00;1726358498;15/09/24;00:01:38;1.005;0.001;0.127;-0.03420845419168472;-0.009773843921720982;0.013439035043120384
01:00:0A:00:00:00:00;1726358499;15/09/24;00:01:39;1.008;0.01;0.122;-0.02932153083384037;-0.021991148591041565;0.0036651913542300463
01:00:0A:00:00:00:00;1726358500;15/09/24;00:01:40;1.012;0.012;0.118;-0.03420845419168472;0.0;0.004886921960860491
01:00:0A:00:00:00:00;1726358501;15/09/24;00:01:41;1.018;0.006;0.125;-0.028099799528717995;-0.0073303827084600925;-0.0073303827084600925
01:00:0A:00:00:00:00;1726358502;15/09/24;00:01:42;1.018;0.009;0.12;-0.02076941914856434;-0.021991148591041565;-0.009773843921720982
01:00:0A:00:00:00:00;1726358503;15/09/24;00:01:43;1.016;0.007;0.118;-0.02687807008624077;-0.00855211354792118;0.0012217304902151227
01:00:0A:00:00:00:00;1726358504;15/09/24;00:01:44;1.014;0.002;0.13;-0.021991148591041565;-0.009773843921720982;0.0
01:00:0A:00:00:00:00;1726358505;15/09/24;00:01:45;1.009;0.009;0.124;-0.013439035043120384;-0.01710422709584236;-0.012217304669320583
01:00:0A:00:00:00:00;1726358506;15/09/24;00:01:46;1.01;0.005;0.121;-0.021991148591041565;0.0036651913542300463;-0.0024434609804302454
01:00:0A:00:00:00:00;1726358507;15/09/24;00:01:47;1.006;-0.002;0.125;-0.019547687843441963;-0.0012217304902151227;0.0012217304902151227
01:00:0A:00:00:00:00;1726358508;15/09/24;00:01:48;1.008;0.004;0.119;-0.012217304669320583;-0.03176499158143997;0.0036651913542300463
01:00:0A:00:00:00:00;1726358509;15/09/24;00:01:49;1.011;0.008;0.116;-0.021991148591041565;-0.018325956538319588;0.02076941914856434
01:00:0A:00:00:00:00;1726358510;15/09/24;00:01:50;1.017;0.005;0.132;-0.01710422709584236;-0.015882495790719986;0.010995574295520782
01:00:0A:00:00:00:00;1726358511;15/09/24;00:01:51;1.018;0.012;0.129;-0.006108652334660292;-0.02076941914856434;-0.006108652334660292
01:00:0A:00:00:00:00;1726358512;15/09/24;00:01:52;1.015;0.012;0.12;-0.014660765416920185;0.0073303827084600925;-0.004886921960860491
01:00:0A:00:00:00:00;1726358513;15/09/24;00:01:53;1.006;0.001;0.128;-0.009773843921720982;0.00855211354792118;-0.006108652334660292
01:00:0A:00:00:00:00;1726358514;15/09/24;00:01:54;0.997;0.005;0.122;0.0;-0.025656338781118393;-0.010995574295520782
01:00:0A:00:00:00:00;1726358515;15/09/24;00:01:55;1.0;0.007;0.12;-0.014660765416920185;-0.009773843921720982;0.019547687843441963
01:00:0A:00:00:00:00;1726358516;15/09/24;00:01:56;1.014;0.001;0.133;-0.0073303827084600925;-0.015882495790719986;0.009773843921720982
01:00:0A:00:00:00:00;1726358517;15/09/24;00:01:57;1.024;0.01;0.13;0.0036651913542300463;-0.019547687843441963;-0.0073303827084600925
01:00:0A:00:00:00:00;1726358518;15/09/24;00:01:58;1.024;0.012;0.122;-0.006108652334660292;-0.0012217304902151227;0.0024434609804302454
01:00:0A:00:00:00:00;1726358519;15/09/24;00:01:59;1.015;0.0;0.131;-0.004886921960860491;0.004886921960860491;0.0036651913542300463
01:00:0A:00:00:00:00;1726358520;15/09/24;00:02:00;1.01;0.01;0.125;0.0073303827084600925;-0.018325956538319588;-0.012217304669320583
01:00:0A:00:00:00:00;1726358521;15/09/24;00:02:01;1.006;0.009;0.118;-0.0036651913542300463;-0.0073303827084600925;0.00855211354792118
01:00:0A:00:00:00:00;1726358522;15/09/24;00:02:02;1.004;0.0;0.128;-0.0012217304902151227;-0.0012217304902151227;0.0073303827084600925
01:00:0A:00:00:00:00;1726358523;15/09/24;00:02:03;1.004;0.004;0.125;0.010995574295520782;-0.025656338781118393;-0.0024434609804302454
01:00:0A:00:00:00:00;1726358524;15/09/24;00:02:04;1.005;0.01;0.118;-0.0012217304902151227;-0.010995574295520782;0.021991148591041565
01:00:0A:00:00:00:00;1726358525;15/09/24;00:02:05;1.007;0.004;0.128;0.0024434609804302454;-0.010995574295520782;0.009773843921720982
01:00:0A:00:00:00:00;1726358526;15/09/24;00:02:06;1.016;0.011;0.131;0.013439035043120384;-0.02321287989616394;-0.00855211354792118
01:00:0A:00:00:00:00;1726358527;15/09/24;00:02:07;1.018;0.013;0.12;0.0012217304902151227;-0.0036651913542300463;0.004886921960860491
01:00:0A:00:00:00:00;1726358528;15/09/24;00:02:08;1.021;0.0;0.128;0.0012217304902151227;0.004886921960860491;0.0012217304902151227
01:00:0A:00:00:00:00;1726358529;15/09/24;00:02:09;1.018;0.007;0.123;0.012217304669320583;-0.015882495790719986;-0.012217304669320583
01:00:0A:00:00:00:00;1726358530;15/09/24;00:02:10;1.013;0.008;0.118;0.0012217304902151227;-0.009773843921720982;0.010995574295520782
01:00:0A:00:00:00:00;1726358531;15/09/24;00:02:11;1.009;0.0;0.129;0.0024434609804302454;0.004886921960860491;0.010995574295520782
01:00:0A:00:00:00:00;1726358532;15/09/24;00:02:12;1.004;0.008;0.124;0.015882495790719986;-0.02076941914856434;-0.009773843921720982
01:00:0A:00:00:00:00;1726358533;15/09/24;00:02:13;1.003;0.011;0.118;0.0024434609804302454;-0.00855211354792118;0.012217304669320583
01:00:0A:00:00:00:00;1726358534;15/09/24;00:02:14;1.004;0.004;0.126;0.0024434609804302454;-0.009773843921720982;0.010995574295520782
01:00:0A:00:00:00:00;1726358535;15/09/24;00:02:15;1.014;0.011;0.132;0.014660765416920185;-0.02932153083384037;-0.006108652334660292
01:00:0A:00:00:00:00;1726358536;15/09/24;00:02:16;1.019;0.019;0.122;0.0036651913542300463;-0.014660765416920185;0.0073303827084600925
01:00:0A:00:00:00:00;1726358537;15/09/24;00:02:17;1.019;0.004;0.136;0.006108652334660292;0.0012217304902151227;-0.0012217304902151227
01:00:0A:00:00:00:00;1726358538;15/09/24;00:02:18;1.016;0.007;0.134;0.018325956538319588;-0.009773843921720982;-0.015882495790719986
01:00:0A:00:00:00:00;1726358539;15/09/24;00:02:19;1.009;0.012;0.122;0.004886921960860491;-0.004886921960860491;0.009773843921720982
01:00:0A:00:00:00:00;1726358540;15/09/24;00:02:20;1.007;0.002;0.13;-0.0012217304902151227;0.0073303827084600925;0.01710422709584236
01:00:0A:00:00:00:00;1726358541;15/09/24;00:02:21;1.006;0.011;0.129;0.010995574295520782;-0.019547687843441963;-0.0012217304902151227
01:00:0A:00:00:00:00;1726358542;15/09/24;00:02:22;1.008;0.017;0.122;0.0;-0.013439035043120384;0.009773843921720982
01:00:0A:00:00:00:00;1726358543;15/09/24;00:02:23;1.006;0.008;0.125;-0.0024434609804302454;-0.0036651913542300463;0.006108652334660292
01:00:0A:00:00:00:00;1726358544;15/09/24;00:02:24;1.006;0.009;0.127;0.00855211354792118;-0.02687807008624077;-0.013439035043120384
01:00:0A:00:00:00:00;1726358545;15/09/24;00:02:25;1.007;0.016;0.118;-0.004886921960860491;-0.02321287989616394;0.00855211354792118
01:00:0A:00:00:00:00;1726358546;15/09/24;00:02:26;1.015;0.006;0.127;-0.009773843921720982;-0.010995574295520782;0.009773843921720982
01:00:0A:00:00:00:00;1726358547;15/09/24;00:02:27;1.019;0.009;0.13;0.0;-0.02076941914856434;-0.009773843921720982
01:00:0A:00:00:00:00;1726358548;15/09/24;00:02:28;1.02;0.017;0.122;-0.010995574295520782;-0.009773843921720982;-0.0036651913542300463
01:00:0A:00:00:00:00;1726358549;15/09/24;00:02:29;1.013;0.003;0.128;-0.021991148591041565;0.0073303827084600925;0.006108652334660292
01:00:0A:00:00:00:00;1726358550;15/09/24;00:02:30;1.003;0.006;0.126;-0.013439035043120384;-0.00855211354792118;-0.010995574295520782
01:00:0A:00:00:00:00;1726358551;15/09/24;00:02:31;1.001;0.014;0.12;-0.021991148591041565;-0.013439035043120384;0.009773843921720982
01:00:0A:00:00:00:00;1726358552;15/09/24;00:02:32;1.008;0.005;0.124;-0.025656338781118393;-0.010995574295520782;0.018325956538319588
01:00:0A:00:00:00:00;1726358553;15/09/24;00:02:33;1.015;0.004;0.128;-0.00855211354792118;-0.019547687843441963;-0.009773843921720982
01:00:0A:00:00:00:00;1726358554;15/09/24;00:02:34;1.016;0.016;0.124;-0.009773843921720982;-0.014660765416920185;-0.0024434609804302454
01:00:0A:00:00:00:00;1726358555;15/09/24;00:02:35;1.012;0.003;0.125;-0.015882495790719986;-0.0036651913542300463;0.010995574295520782
01:00:0A:00:00:00:00;1726358556;15/09/24;00:02:36;1.008;0.005;0.125;-0.0024434609804302454;-0.010995574295520782;-0.013439035043120384
01:00:0A:00:00:00:00;1726358557;15/09/24;00:02:37;1.007;0.014;0.121;-0.00855211354792118;-0.015882495790719986;0.0024434609804302454
01:00:0A:00:00:00:00;1726358558;15/09/24;00:02:38;1.01;0.004;0.123;-0.015882495790719986;-0.013439035043120384;0.01710422709584236
01:00:0A:00:00:00:00;1726358559;15/09/24;00:02:39;1.017;0.005;0.128;-0.0036651913542300463;-0.015882495790719986;-0.00855211354792118
01:00:0A:00:00:00:00;1726358560;15/09/24;00:02:40;1.018;0.018;0.124;-0.0073303827084600925;-0.010995574295520782;-0.006108652334660292
01:00:0A:00:00:00:00;1726358561;15/09/24;00:02:41;1.011;0.004;0.126;-0.014660765416920185;0.0012217304902151227;0.0073303827084600925
01:00:0A:00:00:00:00;1726358562;15/09/24;00:02:42;1.0;0.001;0.123;-0.0012217304902151227;-0.0073303827084600925;-0.012217304669320583
01:00:0A:00:00:00:00;1726358563;15/09/24;00:02:43;0.998;0.01;0.122;-0.004886921960860491;-0.01710422709584236;0.0036651913542300463
01:00:0A:00:00:00:00;1726358564;15/09/24;00:02:44;1.007;0.004;0.122;-0.010995574295520782;-0.021991148591041565;0.02687807008624077
01:00:0A:00:00:00:00;1726358565;15/09/24;00:02:45;1.015;0.004;0.127;0.0036651913542300463;-0.024434609338641167;0.0012217304902151227
01:00:0A:00:00:00:00;1726358566;15/09/24;00:02:46;1.022;0.02;0.129;0.0012217304902151227;-0.00855211354792118;-0.0012217304902151227
01:00:0A:00:00:00:00;1726358567;15/09/24;00:02:47;1.024;0.007;0.13;-0.0024434609804302454;0.0;0.0073303827084600925
01:00:0A:00:00:00:00;1726358568;15/09/24;00:02:48;1.011;0.003;0.126;0.009773843921720982;0.006108652334660292;-0.014660765416920185
01:00:0A:00:00:00:00;1726358569;15/09/24;00:02:49;0.998;0.011;0.121;0.004886921960860491;-0.0073303827084600925;-0.0024434609804302454
01:00:0A:00:00:00:00;1726358570;15/09/24;00:02:50;0.997;0.003;0.12;-0.0036651913542300463;-0.018325956538319588;0.024434609338641167
01:00:0A:00:00:00:00;1726358571;15/09/24;00:02:51;1.007;0.003;0.124;0.00855211354792118;-0.028099799528717995;0.0024434609804302454
01:00:0A:00:00:00:00;1726358572;15/09/24;00:02:52;1.015;0.015;0.126;0.0036651913542300463;-0.021991148591041565;0.009773843921720982
01:00:0A:00:00:00:00;1726358573;15/09/24;00:02:53;1.019;0.008;0.128;-0.0012217304902151227;-0.00855211354792118;0.013439035043120384
01:00:0A:00:00:00:00;1726358574;15/09/24;00:02:54;1.017;0.005;0.125;0.009773843921720982;-0.004886921960860491;-0.009773843921720982
01:00:0A:00:00:00:00;1726358575;15/09/24;00:02:55;1.012;0.014;0.122;0.006108652334660292;-0.004886921960860491;-0.006108652334660292
01:00:0A:00:00:00:00;1726358576;15/09/24;00:02:56;1.012;0.006;0.122;-0.0012217304902151227;-0.0073303827084600925;0.009773843921720982
01:00:0A:00:00:00:00;1726358577;15/09/24;00:02:57;1.01;0.003;0.122;0.0073303827084600925;-0.014660765416920185;-0.006108652334660292
01:00:0A:00:00:00:00;1726358578;15/09/24;00:02:58;1.011;0.013;0.122;0.0024434609804302454;-0.013439035043120384;-0.0012217304902151227
01:00:0A:00:00:00:00;1726358579;15/09/24;00:02:59;1.01;0.006;0.125;-0.004886921960860491;-0.009773843921720982;0.00855211354792118
01:00:0A:00:00:00:00;1726358580;15/09/24;00:03:00;1.011;0.003;0.122;0.0024434609804302454;-0.009773843921720982;-0.004886921960860491
01:00:0A:00:00:00:00;1726358581;15/09/24;00:03:01;1.01;0.014;0.122;-0.0024434609804302454;-0.009773843921720982;-0.0012217304902151227
01:00:0A:00:00:00:00;1726358582;15/09/24;00:03:02;1.012;0.005;0.122;-0.0073303827084600925;-0.015882495790719986;0.00855211354792118
01:00:0A:00:00:00:00;1726358583;15/09/24;00:03:03;1.013;0.003;0.124;0.0;-0.014660765416920185;-0.009773843921720982
01:00:0A:00:00:00:00;1726358584;15/09/24;00:03:04;1.014;0.01;0.124;-0.0036651913542300463;-0.010995574295520782;-0.0012217304902151227
01:00:0A:00:00:00:00;1726358585;15/09/24;00:03:05;1.015;0.005;0.126;-0.009773843921720982;-0.00855211354792118;0.010995574295520782
01:00:0A:00:00:00:00;1726358586;15/09/24;00:03:06;1.011;0.005;0.122;-0.0024434609804302454;-0.0036651913542300463;-0.0073303827084600925
01:00:0A:00:00:00:00;1726358587;15/09/24;00:03:07;1.009;0.01;0.122;-0.004886921960860491;-0.006108652334660292;-0.0036651913542300463
01:00:0A:00:00:00:00;1726358588;15/09/24;00:03:08;1.008;0.005;0.119;-0.00855211354792118;-0.012217304669320583;0.009773843921720982
01:00:0A:00:00:00:00;1726358589;15/09/24;00:03:09;1.009;0.005;0.12;-0.0012217304902151227;-0.01710422709584236;-0.004886921960860491
01:00:0A:00:00:00:00;1726358590;15/09/24;00:03:10;1.011;0.013;0.122;-0.0036651913542300463;-0.02076941914856434;0.0
01:00:0A:00:00:00:00;1726358591;15/09/24;00:03:11;1.013;0.007;0.125;-0.006108652334660292;-0.02076941914856434;0.006108652334660292
01:00:0A:00:00:00:00;1726358592;15/09/24;00:03:12;1.014;0.004;0.125;0.0;-0.013439035043120384;-0.006108652334660292
01:00:0A:00:00:00:00;1726358593;15/09/24;00:03:13;1.013;0.01;0.128;-0.0024434609804302454;-0.004886921960860491;-0.0012217304902151227
01:00:0A:00:00:00:00;1726358594;15/09/24;00:03:14;1.013;0.004;0.124;-0.004886921960860491;-0.0036651913542300463;0.0073303827084600925
01:00:0A:00:00:00:00;1726358595;15/09/24;00:03:15;1.013;0.003;0.122;0.0012217304902151227;-0.0024434609804302454;-0.0024434609804302454
01:00:0A:00:00:00:00;1726358596;15/09/24;00:03:16;1.013;0.008;0.122;0.0;-0.009773843921720982;0.0024434609804302454
01:00:0A:00:00:00:00;1726358597;15/09/24;00:03:17;1.013;0.006;0.12;-0.0012217304902151227;-0.01710422709584236;0.00855211354792118
01:00:0A:00:00:00:00;1726358598;15/09/24;00:03:18;1.009;0.005;0.122;0.0036651913542300463;-0.014660765416920185;-0.004886921960860491
01:00:0A:00:00:00:00;1726358599;15/09/24;00:03:19;1.006;0.009;0.125;0.0024434609804302454;-0.01710422709584236;-0.0012217304902151227
01:00:0A:00:00:00:00;1726358600;15/09/24;00:03:20;1.007;0.006;0.124;-0.0012217304902151227;-0.018325956538319588;0.009773843921720982
01:00:0A:00:00:00:00;1726358601;15/09/24;00:03:21;1.011;0.004;0.123;0.0024434609804302454;-0.012217304669320583;0.0
01:00:0A:00:00:00:00;1726358602;15/09/24;00:03:22;1.018;0.009;0.125;0.0024434609804302454;-0.010995574295520782;0.0024434609804302454
01:00:0A:00:00:00:00;1726358603;15/09/24;00:03:23;1.019;0.006;0.124;0.0;-0.009773843921720982;0.0073303827084600925
01:00:0A:00:00:00:00;1726358604;15/09/24;00:03:24;1.015;0.005;0.123;0.0036651913542300463;-0.004886921960860491;-0.0024434609804302454
01:00:0A:00:00:00:00;1726358605;15/09/24;00:03:25;1.009;0.009;0.124;0.0024434609804302454;-0.0036651913542300463;-0.0012217304902151227
01:00:0A:00:00:00:00;1726358606;15/09/24;00:03:26;1.008;0.006;0.122;0.0;-0.010995574295520782;0.0073303827084600925
01:00:0A:00:00:00:00;1726358607;15/09/24;00:03:27;1.01;0.005;0.122;0.0036651913542300463;-0.009773843921720982;-0.0012217304902151227
01:00:0A:00:00:00:00;1726358608;15/09/24;00:03:28;1.01;0.009;0.124;0.0024434609804302454;-0.010995574295520782;-0.0012217304902151227
01:00:0A:00:00:00:00;1726358609;15/09/24;00:03:29;1.01;0.005;0.122;0.0;-0.013439035043120384;0.004886921960860491
01:00:0A:00:00:00:00;1726358610;15/09/24;00:03:30;1.007;0.004;0.121;0.0024434609804302454;-0.009773843921720982;-0.0024434609804302454
01:00:0A:00:00:00:00;1726358611;15/09/24;00:03:31;1.005;0.007;0.122;0.0;-0.015882495790719986;0.004886921960860491
01:00:0A:00:00:00:00;1726358612;15/09/24;00:03:32;1.009;0.005;0.121;-0.0036651913542300463;-0.025656338781118393;0.013439035043120384
01:00:0A:00:00:00:00;1726358613;15/09/24;00:03:33;1.019;0.006;0.126;-0.0012217304902151227;-0.018325956538319588;0.0036651913542300463
01:00:0A:00:00:00:00;1726358614;15/09/24;00:03:34;1.022;0.013;0.131;-0.0024434609804302454;-0.010995574295520782;-0.0012217304902151227
01:00:0A:00:00:00:00;1726358615;15/09/24;00:03:35;1.017;0.008;0.129;-0.004886921960860491;0.0;-0.0012217304902151227
01:00:0A:00:00:00:00;1726358616;15/09/24;00:03:36;1.007;0.005;0.122;-0.004886921960860491;0.0073303827084600925;-0.004886921960860491
01:00:0A:00:00:00:00;1726358617;15/09/24;00:03:37;1.001;0.007;0.12;-0.006108652334660292;0.0012217304902151227;-0.0036651913542300463
01:00:0A:00:00:00:00;1726358618;15/09/24;00:03:38;1.001;0.005;0.118;-0.010995574295520782;-0.021991148591041565;0.012217304669320583
01:00:0A:00:00:00:00;1726358619;15/09/24;00:03:39;1.006;0.004;0.119;-0.0073303827084600925;-0.028099799528717995;0.004886921960860491
01:00:0A:00:00:00:00;1726358620;15/09/24;00:03:40;1.016;0.011;0.127;-0.009773843921720982;-0.024434609338641167;0.006108652334660292
01:00:0A:00:00:00:00;1726358621;15/09/24;00:03:41;1.02;0.01;0.13;-0.013439035043120384;-0.019547687843441963;0.006108652334660292
01:00:0A:00:00:00:00;1726358622;15/09/24;00:03:42;1.018;0.006;0.127;-0.010995574295520782;-0.0024434609804302454;-0.004886921960860491
01:00:0A:00:00:00:00;1726358623;15/09/24;00:03:43;1.012;0.008;0.122;-0.012217304669320583;0.0036651913542300463;-0.006108652334660292
01:00:0A:00:00:00:00;1726358624;15/09/24;00:03:44;1.009;0.006;0.122;-0.015882495790719986;-0.0073303827084600925;0.0036651913542300463
01:00:0A:00:00:00:00;1726358625;15/09/24;00:03:45;1.005;0.004;0.118;-0.013439035043120384;-0.01710422709584236;0.0
01:00:0A:00:00:00:00;1726358626;15/09/24;00:03:46;1.005;0.008;0.121;-0.013439035043120384;-0.014660765416920185;-0.0036651913542300463
01:00:0A:00:00:00:00;1726358627;15/09/24;00:03:47;1.008;0.006;0.125;-0.018325956538319588;-0.019547687843441963;0.010995574295520782
01:00:0A:00:00:00:00;1726358628;15/09/24;00:03:48;1.01;0.003;0.122;-0.015882495790719986;-0.014660765416920185;0.006108652334660292
01:00:0A:00:00:00:00;1726358629;15/09/24;00:03:49;1.013;0.009;0.123;-0.014660765416920185;-0.00855211354792118;0.0024434609804302454
01:00:0A:00:00:00:00;1726358630;15/09/24;00:03:50;1.016;0.01;0.124;-0.018325956538319588;-0.014660765416920185;0.009773843921720982
01:00:0A:00:00:00:00;1726358631;15/09/24;00:03:51;1.014;0.005;0.121;-0.014660765416920185;-0.013439035043120384;-0.0024434609804302454
01:00:0A:00:00:00:00;1726358632;15/09/24;00:03:52;1.012;0.009;0.124;-0.014660765416920185;-0.00855211354792118;-0.00855211354792118
01:00:0A:00:00:00:00;1726358633;15/09/24;00:03:53;1.01;0.008;0.125;-0.019547687843441963;-0.013439035043120384;0.0024434609804302454
01:00:0A:00:00:00:00;1726358634;15/09/24;00:03:54;1.01;0.002;0.122;-0.018325956538319588;-0.009773843921720982;0.0012217304902151227
01:00:0A:00:00:00:00;1726358635;15/09/24;00:03:55;1.01;0.008;0.124;-0.018325956538319588;-0.004886921960860491;-0.0012217304902151227
01:00:0A:00:00:00:00;1726358636;15/09/24;00:03:56;1.013;0.009;0.123;-0.021991148591041565;-0.014660765416920185;0.009773843921720982
01:00:0A:00:00:00:00;1726358637;15/09/24;00:03:57;1.013;0.005;0.122;-0.019547687843441963;-0.012217304669320583;0.0012217304902151227
01:00:0A:00:00:00:00;1726358638;15/09/24;00:03:58;1.012;0.01;0.123;-0.018325956538319588;-0.0073303827084600925;-0.0073303827084600925
01:00:0A:00:00:00:00;1726358639;15/09/24;00:03:59;1.01;0.007;0.125;-0.02321287989616394;-0.01710422709584236;0.004886921960860491
01:00:0A:00:00:00:00;1726358640;15/09/24;00:04:00;1.01;0.002;0.122;-0.021991148591041565;-0.014660765416920185;0.0
01:00:0A:00:00:00:00;1726358641;15/09/24;00:04:01;1.011;0.008;0.124;-0.02076941914856434;-0.0073303827084600925;-0.006108652334660292
01:00:0A:00:00:00:00;1726358642;15/09/24;00:04:02;1.012;0.01;0.125;-0.025656338781118393;-0.018325956538319588;0.0073303827084600925
01:00:0A:00:00:00:00;1726358643;15/09/24;00:04:03;1.013;0.003;0.12;-0.02321287989616394;-0.013439035043120384;0.0
01:00:0A:00:00:00:00;1726358644;15/09/24;00:04:04;1.012;0.009;0.124;-0.02321287989616394;-0.004886921960860491;-0.006108652334660292
01:00:0A:00:00:00:00;1726358645;15/09/24;00:04:05;1.011;0.009;0.125;-0.02687807008624077;-0.018325956538319588;0.006108652334660292
01:00:0A:00:00:00:00;1726358646;15/09/24;00:04:06;1.011;0.003;0.12;-0.025656338781118393;-0.014660765416920185;-0.0024434609804302454
01:00:0A:00:00:00:00;1726358647;15/09/24;00:04:07;1.011;0.009;0.124;-0.025656338781118393;-0.006108652334660292;-0.0073303827084600925
01:00:0A:00:00:00:00;1726358648;15/09/24;00:04:08;1.013;0.01;0.125;-0.030543262138962746;-0.02076941914856434;0.006108652334660292
01:00:0A:00:00:00:00;1726358649;15/09/24;00:04:09;1.015;0.003;0.12;-0.02932153083384037;-0.013439035043120384;0.0
01:00:0A:00:00:00:00;1726358650;15/09/24;00:04:10;1.014;0.011;0.123;-0.028099799528717995;0.0012217304902151227;-0.009773843921720982
01:00:0A:00:00:00:00;1726358651;15/09/24;00:04:11;1.013;0.013;0.125;-0.03298672288656235;-0.014660765416920185;0.0012217304902151227
01:00:0A:00:00:00:00;1726358652;15/09/24;00:04:12;1.008;0.005;0.116;-0.03176499158143997;-0.013439035043120384;-0.0036651913542300463
01:00:0A:00:00:00:00;1726358653;15/09/24;00:04:13;1.006;0.009;0.122;-0.03298672288656235;0.0;-0.012217304669320583
01:00:0A:00:00:00:00;1726358654;15/09/24;00:04:14;1.004;0.007;0.123;-0.036651913076639175;-0.024434609338641167;0.004886921960860491
01:00:0A:00:00:00:00;1726358655;15/09/24;00:04:15;1.008;0.002;0.115;-0.036651913076639175;-0.018325956538319588;0.0012217304902151227
01:00:0A:00:00:00:00;1726358656;15/09/24;00:04:16;1.012;0.01;0.123;-0.036651913076639175;-0.006108652334660292;-0.0036651913542300463
01:00:0A:00:00:00:00;1726358657;15/09/24;00:04:17;1.013;0.011;0.127;-0.03787364438176155;-0.024434609338641167;0.00855211354792118
01:00:0A:00:00:00:00;1726358658;15/09/24;00:04:18;1.017;0.005;0.118;-0.03420845419168472;-0.01710422709584236;-0.0024434609804302454
01:00:0A:00:00:00:00;1726358659;15/09/24;00:04:19;1.015;0.009;0.125;-0.03298672288656235;0.0036651913542300463;-0.010995574295520782
01:00:0A:00:00:00:00;1726358660;15/09/24;00:04:20;1.012;0.008;0.129;-0.03176499158143997;-0.015882495790719986;-0.0012217304902151227
01:00:0A:00:00:00:00;1726358661;15/09/24;00:04:21;1.008;0.004;0.117;-0.030543262138962746;-0.014660765416920185;0.0
01:00:0A:00:00:00:00;1726358662;15/09/24;00:04:22;1.007;0.008;0.124;-0.030543262138962746;0.0036651913542300463;-0.0024434609804302454
01:00:0A:00:00:00:00;1726358663;15/09/24;00:04:23;1.008;0.009;0.128;-0.02932153083384037;-0.02321287989616394;0.006108652334660292
01:00:0A:00:00:00:00;1726358664;15/09/24;00:04:24;1.011;0.008;0.116;-0.025656338781118393;-0.018325956538319588;-0.0012217304902151227
01:00:0A:00:00:00:00;1726358665;15/09/24;00:04:25;1.011;0.008;0.124;-0.02687807008624077;0.0;-0.004886921960860491
01:00:0A:00:00:00:00;1726358666;15/09/24;00:04:26;1.011;0.005;0.131;-0.02321287989616394;-0.025656338781118393;0.0024434609804302454
01:00:0A:00:00:00:00;1726358667;15/09/24;00:04:27;1.013;0.004;0.119;-0.021991148591041565;-0.018325956538319588;0.0036651913542300463
01:00:0A:00:00:00:00;1726358668;15/09/24;00:04:28;1.014;0.008;0.128;-0.02321287989616394;0.0036651913542300463;0.0036651913542300463
01:00:0A:00:00:00:00;1726358669;15/09/24;00:04:29;1.013;0.009;0.131;-0.018325956538319588;-0.018325956538319588;0.004886921960860491
01:00:0A:00:00:00:00;1726358670;15/09/24;00:04:30;1.012;0.009;0.117;-0.015882495790719986;-0.015882495790719986;-0.0036651913542300463
01:00:0A:00:00:00:00;1726358671;15/09/24;00:04:31;1.01;0.008;0.124;-0.01710422709584236;0.00855211354792118;-0.0073303827084600925
01:00:0A:00:00:00:00;1726358672;15/09/24;00:04:32;1.008;0.005;0.127;-0.013439035043120384;-0.02076941914856434;0.0
01:00:0A:00:00:00:00;1726358673;15/09/24;00:04:33;1.008;0.004;0.115;-0.010995574295520782;-0.02076941914856434;0.0012217304902151227
01:00:0A:00:00:00:00;1726358674;15/09/24;00:04:34;1.01;0.006;0.123;-0.014660765416920185;-0.0024434609804302454;0.0073303827084600925
01:00:0A:00:00:00:00;1726358675;15/09/24;00:04:35;1.011;0.008;0.131;-0.00855211354792118;-0.025656338781118393;0.006108652334660292
01:00:0A:00:00:00:00;1726358676;15/09/24;00:04:36;1.013;0.009;0.119;-0.004886921960860491;-0.018325956538319588;0.0
01:00:0A:00:00:00:00;1726358677;15/09/24;00:04:37;1.013;0.009;0.125;-0.00855211354792118;0.006108652334660292;-0.0012217304902151227
01:00:0A:00:00:00:00;1726358678;15/09/24;00:04:38;1.012;0.004;0.131;-0.0024434609804302454;-0.015882495790719986;0.0
01:00:0A:00:00:00:00;1726358679;15/09/24;00:04:39;1.012;0.006;0.118;0.0;-0.01710422709584236;0.0012217304902151227
01:00:0A:00:00:00:00;1726358680;15/09/24;00:04:40;1.011;0.008;0.124;-0.004886921960860491;0.006108652334660292;0.004886921960860491
01:00:0A:00:00:00:00;1726358681;15/09/24;00:04:41;1.01;0.006;0.129;0.0012217304902151227;-0.018325956538319588;0.0036651913542300463
01:00:0A:00:00:00:00;1726358682;15/09/24;00:04:42;1.01;0.008;0.116;0.0036651913542300463;-0.019547687843441963;-0.0012217304902151227
01:00:0A:00:00:00:00;1726358683;15/09/24;00:04:43;1.009;0.007;0.123;-0.0012217304902151227;0.0024434609804302454;0.0012217304902151227
01:00:0A:00:00:00:00;1726358684;15/09/24;00:04:44;1.009;0.004;0.129;0.006108652334660292;-0.021991148591041565;0.0012217304902151227
01:00:0A:00:00:00:00;1726358685;15/09/24;00:04:45;1.012;0.006;0.118;0.006108652334660292;-0.021991148591041565;0.004886921960860491
01:00:0A:00:00:00:00;1726358686;15/09/24;00:04:46;1.013;0.007;0.123;0.0012217304902151227;0.0024434609804302454;0.006108652334660292
01:00:0A:00:00:00:00;1726358687;15/09/24;00:04:47;1.012;0.006;0.132;0.006108652334660292;-0.015882495790719986;0.004886921960860491
01:00:0A:00:00:00:00;1726358688;15/09/24;00:04:48;1.012;0.008;0.118;0.00855211354792118;-0.018325956538319588;-0.0012217304902151227
01:00:0A:00:00:00:00;1726358689;15/09/24;00:04:49;1.012;0.008;0.123;0.0024434609804302454;0.0036651913542300463;0.0012217304902151227
01:00:0A:00:00:00:00;1726358690;15/09/24;00:04:50;1.011;0.005;0.13;0.006108652334660292;-0.014660765416920185;0.0024434609804302454
01:00:0A:00:00:00:00;1726358691;15/09/24;00:04:51;1.012;0.006;0.116;0.0073303827084600925;-0.02076941914856434;0.0012217304902151227
01:00:0A:00:00:00:00;1726358692;15/09/24;00:04:52;1.01;0.007;0.122;0.0012217304902151227;0.0036651913542300463;0.004886921960860491
01:00:0A:00:00:00:00;1726358693;15/09/24;00:04:53;1.008;0.005;0.129;0.004886921960860491;-0.01710422709584236;0.004886921960860491
01:00:0A:00:00:00:00;1726358694;15/09/24;00:04:54;1.01;0.006;0.119;0.006108652334660292;-0.021991148591041565;0.0036651913542300463
01:00:0A:00:00:00:00;1726358695;15/09/24;00:04:55;1.013;0.008;0.122;0.0012217304902151227;0.0012217304902151227;0.0036651913542300463
01:00:0A:00:00:00:00;1726358696;15/09/24;00:04:56;1.011;0.007;0.13;0.0036651913542300463;-0.015882495790719986;0.004886921960860491
01:00:0A:00:00:00:00;1726358697;15/09/24;00:04:57;1.014;0.007;0.119;0.0073303827084600925;-0.021991148591041565;0.0012217304902151227
01:00:0A:00:00:00:00;1726358698;15/09/24;00:04:58;1.013;0.008;0.122;0.0012217304902151227;0.0012217304902151227;0.0012217304902151227
01:00:0A:00:00:00:00;1726358699;15/09/24;00:04:59;1.011;0.007;0.13;0.0036651913542300463;-0.012217304669320583;0.0024434609804302454
01:00:0A:00:00:00:00;1726358700;15/09/24;00:05:00;1.012;0.006;0.119;0.006108652334660292;-0.019547687843441963;0.0012217304902151227
01:00:0A:00:00:00:00;1726358701;15/09/24;00:05:01;1.012;0.007;0.122;0.0012217304902151227;0.0024434609804302454;0.0012217304902151227
01:00:0A:00:00:00:00;1726358702;15/09/24;00:05:02;1.01;0.006;0.13;0.0036651913542300463;-0.010995574295520782;0.004886921960860491
01:00:0A:00:00:00:00;1726358703;15/09/24;00:05:03;1.01;0.007;0.118;0.006108652334660292;-0.021991148591041565;0.0024434609804302454
01:00:0A:00:00:00:00;1726358704;15/09/24;00:05:04;1.01;0.006;0.12;0.0012217304902151227;0.0;0.0036651913542300463
01:00:0A:00:00:00:00;1726358705;15/09/24;00:05:05;1.011;0.006;0.13;0.0036651913542300463;-0.015882495790719986;0.004886921960860491
01:00:0A:00:00:00:00;1726358706;15/09/24;00:05:06;1.014;0.005;0.121;0.0073303827084600925;-0.02321287989616394;0.0024434609804302454
01:00:0A:00:00:00:00;1726358707;15/09/24;00:05:07;1.013;0.008;0.122;0.0024434609804302454;0.0012217304902151227;0.0012217304902151227
01:00:0A:00:00:00:00;1726358708;15/09/24;00:05:08;1.01;0.007;0.129;0.004886921960860491;-0.009773843921720982;0.0024434609804302454
01:00:0A:00:00:00:00;1726358709;15/09/24;00:05:09;1.012;0.006;0.12;0.0073303827084600925;-0.021991148591041565;0.0012217304902151227
01:00:0A:00:00:00:00;1726358710;15/09/24;00:05:10;1.011;0.006;0.121;0.0036651913542300463;0.0;0.0012217304902151227
01:00:0A:00:00:00:00;1726358711;15/09/24;00:05:11;1.01;0.006;0.13;0.004886921960860491;-0.009773843921720982;0.006108652334660292
01:00:0A:00:00:00:00;1726358712;15/09/24;00:05:12;1.012;0.006;0.121;0.00855211354792118;-0.021991148591041565;0.0024434609804302454
01:00:0A:00:00:00:00;1726358713;15/09/24;00:05:13;1.011;0.008;0.121;0.004886921960860491;0.0;0.0012217304902151227
01:00:0A:00:00:00:00;1726358714;15/09/24;00:05:14;1.011;0.007;0.129;0.006108652334660292;-0.010995574295520782;0.0024434609804302454
01:00:0A:00:00:00:00;1726358715;15/09/24;00:05:15;1.011;0.006;0.12;0.009773843921720982;-0.025656338781118393;0.0024434609804302454
01:00:0A:00:00:00:00;1726358716;15/09/24;00:05:16;1.011;0.006;0.121;0.004886921960860491;-0.0036651913542300463;0.0036651913542300463
01:00:0A:00:00:00:00;1726358717;15/09/24;00:05:17;1.012;0.007;0.131;0.006108652334660292;-0.013439035043120384;0.006108652334660292
01:00:0A:00:00:00:00;1726358718;15/09/24;00:05:18;1.016;0.007;0.122;0.00855211354792118;-0.021991148591041565;0.0036651913542300463
01:00:0A:00:00:00:00;1726358719;15/09/24;00:05:19;1.015;0.008;0.121;0.006108652334660292;0.0024434609804302454;-0.0012217304902151227
01:00:0A:00:00:00:00;1726358720;15/09/24;00:05:20;1.009;0.007;0.13;0.006108652334660292;-0.0036651913542300463;0.0
01:00:0A:00:00:00:00;1726358721;15/09/24;00:05:21;1.008;0.004;0.118;0.009773843921720982;-0.021991148591041565;0.0012217304902151227
01:00:0A:00:00:00:00;1726358722;15/09/24;00:05:22;1.009;0.007;0.119;0.004886921960860491;-0.0036651913542300463;0.004886921960860491
01:00:0A:00:00:00:00;1726358723;15/09/24;00:05:23;1.011;0.006;0.128;0.006108652334660292;-0.014660765416920185;0.0073303827084600925
01:00:0A:00:00:00:00;1726358724;15/09/24;00:05:24;1.014;0.007;0.122;0.009773843921720982;-0.025656338781118393;0.004886921960860491
01:00:0A:00:00:00:00;1726358725;15/09/24;00:05:25;1.015;0.008;0.121;0.006108652334660292;-0.0012217304902151227;0.0
01:00:0A:00:00:00:00;1726358726;15/09/24;00:05:26;1.013;0.006;0.13;0.0073303827084600925;-0.004886921960860491;0.0012217304902151227
01:00:0A:00:00:00:00;1726358727;15/09/24;00:05:27;1.012;0.004;0.121;0.010995574295520782;-0.019547687843441963;0.0
01:00:0A:00:00:00:00;1726358728;15/09/24;00:05:28;1.011;0.004;0.118;0.006108652334660292;-0.0012217304902151227;0.0036651913542300463
01:00:0A:00:00:00:00;1726358729;15/09/24;00:05:29;1.01;0.007;0.129;0.006108652334660292;-0.009773843921720982;0.006108652334660292
01:00:0A:00:00:00:00;1726358730;15/09/24;00:05:30;1.012;0.007;0.121;0.009773843921720982;-0.02321287989616394;0.004886921960860491
01:00:0A:00:00:00:00;1726358731;15/09/24;00:05:31;1.012;0.008;0.12;0.0073303827084600925;-0.0036651913542300463;0.0
01:00:0A:00:00:00:00;1726358732;15/09/24;00:05:32;1.011;0.007;0.129;0.0073303827084600925;-0.00855211354792118;0.0
01:00:0A:00:00:00:00;1726358733;15/09/24;00:05:33;1.012;0.006;0.122;0.010995574295520782;-0.021991148591041565;0.0024434609804302454
01:00:0A:00:00:00:00;1726358734;15/09/24;00:05:34;1.012;0.007;0.12;0.0073303827084600925;-0.0024434609804302454;0.0012217304902151227
01:00:0A:00:00:00:00;1726358735;15/09/24;00:05:35;1.012;0.008;0.128;0.0073303827084600925;-0.0073303827084600925;0.006108652334660292
01:00:0A:00:00:00:00;1726358736;15/09/24;00:05:36;1.012;0.006;0.122;0.010995574295520782;-0.021991148591041565;0.004886921960860491
01:00:0A:00:00:00:00;1726358737;15/09/24;00:05:37;1.011;0.007;0.12;0.00855211354792118;-0.0024434609804302454;0.0012217304902151227
01:00:0A:00:00:00:00;1726358738;15/09/24;00:05:38;1.01;0.008;0.129;0.009773843921720982;-0.00855211354792118;0.0024434609804302454
01:00:0A:00:00:00:00;1726358739;15/09/24;00:05:39;1.01;0.006;0.122;0.012217304669320583;-0.02321287989616394;0.0024434609804302454
01:00:0A:00:00:00:00;1726358740;15/09/24;00:05:40;1.011;0.006;0.12;0.009773843921720982;-0.004886921960860491;0.0036651913542300463
01:00:0A:00:00:00:00;1726358741;15/09/24;00:05:41;1.012;0.007;0.13;0.00855211354792118;-0.0073303827084600925;0.006108652334660292
01:00:0A:00:00:00:00;1726358742;15/09/24;00:05:42;1.014;0.006;0.123;0.012217304669320583;-0.019547687843441963;0.004886921960860491
01:00:0A:00:00:00:00;1726358743;15/09/24;00:05:43;1.013;0.007;0.121;0.009773843921720982;-0.0036651913542300463;0.0012217304902151227
01:00:0A:00:00:00:00;1726358744;15/09/24;00:05:44;1.01;0.008;0.128;0.010995574295520782;-0.0036651913542300463;0.0
01:00:0A:00:00:00:00;1726358745;15/09/24;00:05:45;1.01;0.005;0.122;0.013439035043120384;-0.019547687843441963;0.0024434609804302454
01:00:0A:00:00:00:00;1726358746;15/09/24;00:05:46;1.01;0.006;0.12;0.010995574295520782;-0.006108652334660292;0.0024434609804302454
01:00:0A:00:00:00:00;1726358747;15/09/24;00:05:47;1.009;0.006;0.126;0.010995574295520782;-0.009773843921720982;0.004886921960860491
01:00:0A:00:00:00:00;1726358748;15/09/24;00:05:48;1.011;0.006;0.123;0.012217304669320583;-0.02321287989616394;0.0073303827084600925
01:00:0A:00:00:00:00;1726358749;15/09/24;00:05:49;1.013;0.007;0.12;0.010995574295520782;-0.0073303827084600925;0.0024434609804302454
01:00:0A:00:00:00:00;1726358750;15/09/24;00:05:50;1.012;0.008;0.128;0.009773843921720982;-0.0073303827084600925;0.004886921960860491
01:00:0A:00:00:00:00;1726358751;15/09/24;00:05:51;1.013;0.007;0.123;0.012217304669320583;-0.019547687843441963;0.0036651913542300463
01:00:0A:00:00:00:00;1726358752;15/09/24;00:05:52;1.013;0.006;0.121;0.010995574295520782;-0.006108652334660292;0.0
01:00:0A:00:00:00:00;1726358753;15/09/24;00:05:53;1.011;0.008;0.126;0.009773843921720982;-0.004886921960860491;0.0024434609804302454
01:00:0A:00:00:00:00;1726358754;15/09/24;00:05:54;1.01;0.006;0.122;0.010995574295520782;-0.019547687843441963;0.0036651913542300463
01:00:0A:00:00:00:00;1726358755;15/09/24;00:05:55;1.01;0.006;0.12;0.009773843921720982;-0.00855211354792118;0.0024434609804302454
01:00:0A:00:00:00:00;1726358756;15/09/24;00:05:56;1.012;0.007;0.128;0.00855211354792118;-0.0073303827084600925;0.004886921960860491
01:00:0A:00:00:00:00;1726358757;15/09/24;00:05:57;1.012;0.007;0.123;0.009773843921720982;-0.019547687843441963;0.006108652334660292
01:00:0A:00:00:00:00;1726358758;15/09/24;00:05:58;1.013;0.008;0.119;0.009773843921720982;-0.00855211354792118;0.0012217304902151227
01:00:0A:00:00:00:00;1726358759;15/09/24;00:05:59;1.011;0.009;0.127;0.0073303827084600925;-0.0073303827084600925;0.0024434609804302454
01:00:0A:00:00:00:00;1726358760;15/09/24;00:06:00;1.011;0.005;0.123;0.009773843921720982;-0.019547687843441963;0.0036651913542300463
01:00:0A:00:00:00:00;1726358761;15/09/24;00:06:01;1.011;0.005;0.121;0.0073303827084600925;-0.00855211354792118;0.0012217304902151227
01:00:0A:00:00:00:00;1726358762;15/09/24;00:06:02;1.012;0.008;0.126;0.006108652334660292;-0.00855211354792118;0.0036651913542300463
01:00:0A:00:00:00:00;1726358763;15/09/24;00:06:03;1.011;0.006;0.124;0.0073303827084600925;-0.019547687843441963;0.006108652334660292
01:00:0A:00:00:00:00;1726358764;15/09/24;00:06:04;1.011;0.007;0.121;0.0073303827084600925;-0.00855211354792118;0.0
01:00:0A:00:00:00:00;1726358765;15/09/24;00:06:05;1.011;0.008;0.126;0.006108652334660292;-0.004886921960860491;0.0012217304902151227
01:00:0A:00:00:00:00;1726358766;15/09/24;00:06:06;1.01;0.004;0.123;0.0073303827084600925;-0.01710422709584236;0.0024434609804302454
01:00:0A:00:00:00:00;1726358767;15/09/24;00:06:07;1.011;0.006;0.119;0.006108652334660292;-0.009773843921720982;0.0024434609804302454
01:00:0A:00:00:00:00;1726358768;15/09/24;00:06:08;1.012;0.008;0.125;0.004886921960860491;-0.00855211354792118;0.004886921960860491
01:00:0A:00:00:00:00;1726358769;15/09/24;00:06:09;1.013;0.007;0.125;0.006108652334660292;-0.018325956538319588;0.006108652334660292
01:00:0A:00:00:00:00;1726358770;15/09/24;00:06:10;1.014;0.006;0.121;0.006108652334660292;-0.00855211354792118;0.0012217304902151227
01:00:0A:00:00:00:00;1726358771;15/09/24;00:06:11;1.011;0.008;0.126;0.006108652334660292;-0.004886921960860491;-0.0012217304902151227
01:00:0A:00:00:00:00;1726358772;15/09/24;00:06:12;1.012;0.006;0.124;0.0073303827084600925;-0.015882495790719986;0.0024434609804302454
01:00:0A:00:00:00:00;1726358773;15/09/24;00:06:13;1.01;0.005;0.119;0.006108652334660292;-0.009773843921720982;0.0012217304902151227
01:00:0A:00:00:00:00;1726358774;15/09/24;00:06:14;1.01;0.006;0.124;0.004886921960860491;-0.009773843921720982;0.006108652334660292
01:00:0A:00:00:00:00;1726358775;15/09/24;00:06:15;1.012;0.006;0.125;0.006108652334660292;-0.019547687843441963;0.0073303827084600925
01:00:0A:00:00:00:00;1726358776;15/09/24;00:06:16;1.015;0.007;0.121;0.006108652334660292;-0.009773843921720982;0.0024434609804302454
01:00:0A:00:00:00:00;1726358777;15/09/24;00:06:17;1.014;0.008;0.126;0.006108652334660292;-0.004886921960860491;0.0012217304902151227
01:00:0A:00:00:00:00;1726358778;15/09/24;00:06:18;1.01;0.005;0.123;0.0073303827084600925;-0.014660765416920185;0.0024434609804302454
01:00:0A:00:00:00:00;1726358779;15/09/24;00:06:19;1.01;0.006;0.122;0.0073303827084600925;-0.009773843921720982;0.0012217304902151227
01:00:0A:00:00:00:00;1726358780;15/09/24;00:06:20;1.009;0.006;0.125;0.006108652334660292;-0.0073303827084600925;0.0036651913542300463
01:00:0A:00:00:00:00;1726358781;15/09/24;00:06:21;1.012;0.007;0.124;0.0073303827084600925;-0.018325956538319588;0.006108652334660292
01:00:0A:00:00:00:00;1726358782;15/09/24;00:06:22;1.014;0.006;0.122;0.00855211354792118;-0.010995574295520782;0.0036651913542300463
01:00:0A:00:00:00:00;1726358783;15/09/24;00:06:23;1.012;0.008;0.125;0.0073303827084600925;-0.004886921960860491;0.0012217304902151227
01:00:0A:00:00:00:00;1726358784;15/09/24;00:06:24;1.012;0.006;0.125;0.00855211354792118;-0.013439035043120384;0.0024434609804302454
01:00:0A:00:00:00:00;1726358785;15/09/24;00:06:25;1.009;0.006;0.121;0.00855211354792118;-0.012217304669320583;0.0024434609804302454
01:00:0A:00:00:00:00;1726358786;15/09/24;00:06:26;1.009;0.008;0.124;0.0073303827084600925;-0.00855211354792118;0.0024434609804302454
01:00:0A:00:00:00:00;1726358787;15/09/24;00:06:27;1.013;0.007;0.125;0.00855211354792118;-0.018325956538319588;0.006108652334660292
01:00:0A:00:00:00:00;1726358788;15/09/24;00:06:28;1.014;0.006;0.122;0.00855211354792118;-0.010995574295520782;0.0012217304902151227
01:00:0A:00:00:00:00;1726358789;15/09/24;00:06:29;1.012;0.007;0.125;0.0073303827084600925;-0.0036651913542300463;0.0024434609804302454
01:00:0A:00:00:00:00;1726358790;15/09/24;00:06:30;1.011;0.006;0.124;0.0073303827084600925;-0.012217304669320583;0.0036651913542300463
01:00:0A:00:00:00:00;1726358791;15/09/24;00:06:31;1.009;0.005;0.121;0.0073303827084600925;-0.009773843921720982;0.0024434609804302454
01:00:0A:00:00:00:00;1726358792;15/09/24;00:06:32;1.008;0.008;0.123;0.006108652334660292;-0.0073303827084600925;0.0036651913542300463
01:00:0A:00:00:00:00;1726358793;15/09/24;00:06:33;1.011;0.007;0.123;0.006108652334660292;-0.018325956538319588;0.004886921960860491
01:00:0A:00:00:00:00;1726358794;15/09/24;00:06:34;1.014;0.006;0.122;0.006108652334660292;-0.013439035043120384;0.0024434609804302454
01:00:0A:00:00:00:00;1726358795;15/09/24;00:06:35;1.013;0.008;0.125;0.004886921960860491;-0.0073303827084600925;0.0012217304902151227
01:00:0A:00:00:00:00;1726358796;15/09/24;00:06:36;1.013;0.006;0.125;0.004886921960860491;-0.012217304669320583;0.004886921960860491
01:00:0A:00:00:00:00;1726358797;15/09/24;00:06:37;1.012;0.006;0.122;0.004886921960860491;-0.009773843921720982;0.0012217304902151227
01:00:0A:00:00:00:00;1726358798;15/09/24;00:06:38;1.01;0.007;0.123;0.0036651913542300463;-0.004886921960860491;0.0012217304902151227
01:00:0A:00:00:00:00;1726358799;15/09/24;00:06:39;1.011;0.007;0.124;0.0036651913542300463;-0.014660765416920185;0.0036651913542300463
01:00:0A:00:00:00:00;1726358800;15/09/24;00:06:40;1.01;0.006;0.122;0.0036651913542300463;-0.012217304669320583;0.0024434609804302454
01:00:0A:00:00:00:00;1726358801;15/09/24;00:06:41;1.011;0.008;0.124;0.0036651913542300463;-0.006108652334660292;0.0012217304902151227
01:00:0A:00:00:00:00;1726358802;15/09/24;00:06:42;1.012;0.006;0.124;0.0024434609804302454;-0.015882495790719986;0.004886921960860491
01:00:0A:00:00:00:00;1726358803;15/09/24;00:06:43;1.013;0.007;0.122;0.0024434609804302454;-0.012217304669320583;0.0012217304902151227
01:00:0A:00:00:00:00;1726358804;15/09/24;00:06:44;1.012;0.007;0.125;0.0012217304902151227;-0.0073303827084600925;0.0012217304902151227
01:00:0A:00:00:00:00;1726358805;15/09/24;00:06:45;1.011;0.007;0.125;0.0012217304902151227;-0.013439035043120384;0.0024434609804302454
01:00:0A:00:00:00:00;1726358806;15/09/24;00:06:46;1.013;0.006;0.122;0.0012217304902151227;-0.012217304669320583;0.0012217304902151227
01:00:0A:00:00:00:00;1726358807;15/09/24;00:06:47;1.011;0.007;0.124;0.0;-0.006108652334660292;0.0012217304902151227
01:00:0A:00:00:00:00;1726358808;15/09/24;00:06:48;1.01;0.007;0.124;0.0012217304902151227;-0.013439035043120384;0.0036651913542300463
01:00:0A:00:00:00:00;1726358809;15/09/24;00:06:49;1.01;0.007;0.121;0.0012217304902151227;-0.012217304669320583;0.0024434609804302454
01:00:0A:00:00:00:00;1726358810;15/09/24;00:06:50;1.012;0.008;0.123;0.0;-0.006108652334660292;0.0012217304902151227
01:00:0A:00:00:00:00;1726358811;15/09/24;00:06:51;1.012;0.007;0.124;0.0;-0.014660765416920185;0.0036651913542300463
01:00:0A:00:00:00:00;1726358812;15/09/24;00:06:52;1.013;0.006;0.121;0.0;-0.012217304669320583;0.0012217304902151227
01:00:0A:00:00:00:00;1726358813;15/09/24;00:06:53;1.011;0.007;0.123;-0.0012217304902151227;-0.006108652334660292;0.0012217304902151227
01:00:0A:00:00:00:00;1726358814;15/09/24;00:06:54;1.012;0.006;0.125;-0.0012217304902151227;-0.013439035043120384;0.0024434609804302454
01:00:0A:00:00:00:00;1726358815;15/09/24;00:06:55;1.012;0.007;0.122;-0.0012217304902151227;-0.012217304669320583;0.0012217304902151227
01:00:0A:00:00:00:00;1726358816;15/09/24;00:06:56;1.011;0.008;0.122;-0.0024434609804302454;-0.004886921960860491;0.0012217304902151227
01:00:0A:00:00:00:00;1726358817;15/09/24;00:06:57;1.012;0.007;0.125;-0.0024434609804302454;-0.013439035043120384;0.0036651913542300463
01:00:0A:00:00:00:00;1726358818;15/09/24;00:06:58;1.01;0.007;0.122;-0.0024434609804302454;-0.014660765416920185;0.0012217304902151227
01:00:0A:00:00:00:00;1726358819;15/09/24;00:06:59;1.01;0.008;0.123;-0.0036651913542300463;-0.0073303827084600925;0.0
01:00:0A:00:00:00:00;1726358820;15/09/24;00:07:00;1.011;0.007;0.124;-0.0024434609804302454;-0.013439035043120384;0.0024434609804302454
01:00:0A:00:00:00:00;1726358821;15/09/24;00:07:01;1.012;0.006;0.122;-0.0024434609804302454;-0.013439035043120384;0.0012217304902151227
01:00:0A:00:00:00:00;1726358822;15/09/24;00:07:02;1.012;0.007;0.123;-0.004886921960860491;-0.006108652334660292;0.0012217304902151227
01:00:0A:00:00:00:00;1726358823;15/09/24;00:07:03;1.011;0.006;0.125;-0.004886921960860491;-0.013439035043120384;0.0036651913542300463
01:00:0A:00:00:00:00;1726358824;15/09/24;00:07:04;1.012;0.007;0.122;-0.004886921960860491;-0.013439035043120384;0.0036651913542300463
01:00:0A:00:00:00:00;1726358825;15/09/24;00:07:05;1.011;0.009;0.122;-0.0073303827084600925;-0.004886921960860491;0.0
01:00:0A:00:00:00:00;1726358826;15/09/24;00:07:06;1.01;0.008;0.125;-0.006108652334660292;-0.013439035043120384;0.0012217304902151227
01:00:0A:00:00:00:00;1726358827;15/09/24;00:07:07;1.011;0.007;0.122;-0.006108652334660292;-0.013439035043120384;0.0
01:00:0A:00:00:00:00;1726358828;15/09/24;00:07:08;1.011;0.007;0.122;-0.00855211354792118;-0.0073303827084600925;0.0024434609804302454
01:00:0A:00:00:00:00;1726358829;15/09/24;00:07:09;1.011;0.006;0.125;-0.0073303827084600925;-0.014660765416920185;0.0036651913542300463
01:00:0A:00:00:00:00;1726358830;15/09/24;00:07:10;1.011;0.008;0.122;-0.0073303827084600925;-0.01710422709584236;0.0024434609804302454
01:00:0A:00:00:00:00;1726358831;15/09/24;00:07:11;1.011;0.009;0.124;-0.009773843921720982;-0.0073303827084600925;0.0012217304902151227
01:00:0A:00:00:00:00;1726358832;15/09/24;00:07:12;1.012;0.008;0.125;-0.009773843921720982;-0.012217304669320583;0.0
01:00:0A:00:00:00:00;1726358833;15/09/24;00:07:13;1.013;0.007;0.121;-0.00855211354792118;-0.013439035043120384;-0.0012217304902151227
01:00:0A:00:00:00:00;1726358834;15/09/24;00:07:14;1.012;0.007;0.122;-0.010995574295520782;-0.006108652334660292;0.0012217304902151227
01:00:0A:00:00:00:00;1726358835;15/09/24;00:07:15;1.012;0.005;0.126;-0.010995574295520782;-0.014660765416920185;0.0024434609804302454
01:00:0A:00:00:00:00;1726358836;15/09/24;00:07:16;1.012;0.007;0.122;-0.009773843921720982;-0.015882495790719986;0.0024434609804302454
01:00:0A:00:00:00:00;1726358837;15/09/24;00:07:17;1.011;0.008;0.122;-0.013439035043120384;-0.006108652334660292;0.0012217304902151227
01:00:0A:00:00:00:00;1726358838;15/09/24;00:07:18;1.011;0.007;0.126;-0.012217304669320583;-0.012217304669320583;0.0
01:00:0A:00:00:00:00;1726358839;15/09/24;00:07:19;1.01;0.006;0.121;-0.010995574295520782;-0.015882495790719986;-0.0012217304902151227
01:00:0A:00:00:00:00;1726358840;15/09/24;00:07:20;1.011;0.008;0.122;-0.014660765416920185;-0.006108652334660292;0.0012217304902151227
01:00:0A:00:00:00:00;1726358841;15/09/24;00:07:21;1.011;0.006;0.126;-0.013439035043120384;-0.014660765416920185;0.0036651913542300463
01:00:0A:00:00:00:00;1726358842;15/09/24;00:07:22;1.012;0.008;0.122;-0.012217304669320583;-0.01710422709584236;0.0
01:00:0A:00:00:00:00;1726358843;15/09/24;00:07:23;1.013;0.008;0.122;-0.015882495790719986;-0.006108652334660292;0.0024434609804302454
01:00:0A:00:00:00:00;1726358844;15/09/24;00:07:24;1.012;0.006;0.126;-0.013439035043120384;-0.010995574295520782;0.0
01:00:0A:00:00:00:00;1726358845;15/09/24;00:07:25;1.011;0.008;0.122;-0.012217304669320583;-0.014660765416920185;-0.0024434609804302454
01:00:0A:00:00:00:00;1726358846;15/09/24;00:07:26;1.011;0.006;0.122;-0.015882495790719986;-0.006108652334660292;0.0012217304902151227
01:00:0A:00:00:00:00;1726358847;15/09/24;00:07:27;1.01;0.005;0.126;-0.014660765416920185;-0.013439035043120384;0.0024434609804302454
01:00:0A:00:00:00:00;1726358848;15/09/24;00:07:28;1.012;0.008;0.122;-0.013439035043120384;-0.018325956538319588;0.0
01:00:0A:00:00:00:00;1726358849;15/09/24;00:07:29;1.013;0.008;0.122;-0.01710422709584236;-0.0073303827084600925;0.0024434609804302454
01:00:0A:00:00:00:00;1726358850;15/09/24;00:07:30;1.012;0.006;0.127;-0.014660765416920185;-0.010995574295520782;0.0
01:00:0A:00:00:00:00;1726358851;15/09/24;00:07:31;1.013;0.007;0.122;-0.012217304669320583;-0.014660765416920185;-0.0036651913542300463
01:00:0A:00:00:00:00;1726358852;15/09/24;00:07:32;1.011;0.007;0.122;-0.01710422709584236;-0.006108652334660292;0.0024434609804302454
01:00:0A:00:00:00:00;1726358853;15/09/24;00:07:33;1.01;0.005;0.125;-0.014660765416920185;-0.012217304669320583;0.0012217304902151227
01:00:0A:00:00:00:00;1726358854;15/09/24;00:07:34;1.01;0.007;0.122;-0.013439035043120384;-0.018325956538319588;-0.0012217304902151227
01:00:0A:00:00:00:00;1726358855;15/09/24;00:07:35;1.012;0.008;0.122;-0.01710422709584236;-0.0073303827084600925;0.0024434609804302454
01:00:0A:00:00:00:00;1726358856;15/09/24;00:07:36;1.011;0.005;0.127;-0.015882495790719986;-0.012217304669320583;0.0012217304902151227
01:00:0A:00:00:00:00;1726358857;15/09/24;00:07:37;1.013;0.008;0.122;-0.013439035043120384;-0.015882495790719986;-0.0024434609804302454
01:00:0A:00:00:00:00;1726358858;15/09/24;00:07:38;1.012;0.008;0.123;-0.01710422709584236;-0.0073303827084600925;0.0024434609804302454
01:00:0A:00:00:00:00;1726358859;15/09/24;00:07:39;1.012;0.005;0.125;-0.015882495790719986;-0.010995574295520782;0.0012217304902151227
01:00:0A:00:00:00:00;1726358860;15/09/24;00:07:40;1.012;0.007;0.122;-0.013439035043120384;-0.015882495790719986;-0.0024434609804302454
01:00:0A:00:00:00:00;1726358861;15/09/24;00:07:41;1.012;0.009;0.122;-0.018325956538319588;-0.006108652334660292;0.0024434609804302454
01:00:0A:00:00:00:00;1726358862;15/09/24;00:07:42;1.011;0.005;0.126;-0.015882495790719986;-0.010995574295520782;0.0012217304902151227
01:00:0A:00:00:00:00;1726358863;15/09/24;00:07:43;1.011;0.007;0.122;-0.013439035043120384;-0.015882495790719986;-0.0024434609804302454
01:00:0A:00:00:00:00;1726358864;15/09/24;00:07:44;1.011;0.007;0.122;-0.018325956538319588;-0.00855211354792118;0.004886921960860491
01:00:0A:00:00:00:00;1726358865;15/09/24;00:07:45;1.012;0.004;0.125;-0.015882495790719986;-0.012217304669320583;0.0012217304902151227
01:00:0A:00:00:00:00;1726358866;15/09/24;00:07:46;1.012;0.006;0.122;-0.012217304669320583;-0.015882495790719986;-0.0036651913542300463
01:00:0A:00:00:00:00;1726358867;15/09/24;00:07:47;1.011;0.008;0.122;-0.018325956538319588;-0.00855211354792118;0.0036651913542300463
01:00:0A:00:00:00:00;1726358868;15/09/24;00:07:48;1.012;0.004;0.125;-0.015882495790719986;-0.010995574295520782;0.0024434609804302454
01:00:0A:00:00:00:00;1726358869;15/09/24;00:07:49;1.012;0.007;0.123;-0.012217304669320583;-0.015882495790719986;-0.0024434609804302454
01:00:0A:00:00:00:00;1726358870;15/09/24;00:07:50;1.012;0.009;0.122;-0.01710422709584236;-0.009773843921720982;0.0036651913542300463
01:00:0A:00:00:00:00;1726358871;15/09/24;00:07:51;1.011;0.004;0.126;-0.014660765416920185;-0.010995574295520782;0.0024434609804302454
01:00:0A:00:00:00:00;1726358872;15/09/24;00:07:52;1.012;0.007;0.123;-0.012217304669320583;-0.014660765416920185;-0.0036651913542300463
01:00:0A:00:00:00:00;1726358873;15/09/24;00:07:53;1.012;0.009;0.122;-0.01710422709584236;-0.009773843921720982;0.0036651913542300463
01:00:0A:00:00:00:00;1726358874;15/09/24;00:07:54;1.011;0.004;0.125;-0.014660765416920185;-0.010995574295520782;0.0024434609804302454
01:00:0A:00:00:00:00;1726358875;15/09/24;00:07:55;1.012;0.007;0.122;-0.010995574295520782;-0.015882495790719986;-0.004886921960860491
01:00:0A:00:00:00:00;1726358876;15/09/24;00:07:56;1.011;0.009;0.123;-0.01710422709584236;-0.009773843921720982;0.004886921960860491
01:00:0A:00:00:00:00;1726358877;15/09/24;00:07:57;1.011;0.004;0.125;-0.015882495790719986;-0.009773843921720982;0.0024434609804302454
01:00:0A:00:00:00:00;1726358878;15/09/24;00:07:58;1.012;0.008;0.123;-0.010995574295520782;-0.013439035043120384;-0.004886921960860491
01:00:0A:00:00:00:00;1726358879;15/09/24;00:07:59;1.011;0.009;0.122;-0.01710422709584236;-0.00855211354792118;0.004886921960860491
01:00:0A:00:00:00:00;1726358880;15/09/24;00:08:00;1.012;0.004;0.124;-0.014660765416920185;-0.010995574295520782;0.0024434609804302454
01:00:0A:00:00:00:00;1726358881;15/09/24;00:08:01;1.011;0.008;0.123;-0.010995574295520782;-0.014660765416920185;-0.004886921960860491
01:00:0A:00:00:00:00;1726358882;15/09/24;00:08:02;1.012;0.01;0.122;-0.015882495790719986;-0.012217304669320583;0.0036651913542300463
01:00:0A:00:00:00:00;1726358883;15/09/24;00:08:03;1.011;0.004;0.125;-0.015882495790719986;-0.010995574295520782;0.0024434609804302454
01:00:0A:00:00:00:00;1726358884;15/09/24;00:08:04;1.01;0.007;0.123;-0.010995574295520782;-0.013439035043120384;-0.004886921960860491
01:00:0A:00:00:00:00;1726358885;15/09/24;00:08:05;1.012;0.009;0.122;-0.01710422709584236;-0.009773843921720982;0.004886921960860491
01:00:0A:00:00:00:00;1726358886;15/09/24;00:08:06;1.011;0.004;0.122;-0.015882495790719986;-0.010995574295520782;0.0036651913542300463
01:00:0A:00:00:00:00;1726358887;15/09/24;00:08:07;1.013;0.007;0.122;-0.010995574295520782;-0.013439035043120384;-0.004886921960860491
01:00:0A:00:00:00:00;1726358888;15/09/24;00:08:08;1.011;0.009;0.123;-0.01710422709584236;-0.012217304669320583;0.0036651913542300463
01:00:0A:00:00:00:00;1726358889;15/09/24;00:08:09;1.01;0.004;0.124;-0.01710422709584236;-0.010995574295520782;0.0036651913542300463
01:00:0A:00:00:00:00;1726358890;15/09/24;00:08:10;1.01;0.008;0.123;-0.012217304669320583;-0.012217304669320583;-0.004886921960860491
01:00:0A:00:00:00:00;1726358891;15/09/24;00:08:11;1.013;0.01;0.123;-0.01710422709584236;-0.010995574295520782;0.0036651913542300463
01:00:0A:00:00:00:00;1726358892;15/09/24;00:08:12;1.012;0.003;0.122;-0.01710422709584236;-0.010995574295520782;0.0024434609804302454
01:00:0A:00:00:00:00;1726358893;15/09/24;00:08:13;1.012;0.007;0.122;-0.012217304669320583;-0.013439035043120384;-0.006108652334660292
01:00:0A:00:00:00:00;1726358889;15/09/24;00:08:09;1.011;0.009;0.122;-0.018325956538319588;-0.012217304669320583;0.004886921960860491
01:00:0A:00:00:00:00;1726358890;15/09/24;00:08:10;1.011;0.004;0.122;-0.018325956538319588;-0.012217304669320583;0.0036651913542300463
01:00:0A:00:00:00:00;1726358891;15/09/24;00:08:11;1.01;0.007;0.124;-0.013439035043120384;-0.010995574295520782;-0.006108652334660292
01:00:0A:00:00:00:00;1726358892;15/09/24;00:08:12;1.012;0.01;0.123;-0.018325956538319588;-0.010995574295520782;0.0036651913542300463
01:00:0A:00:00:00:00;1726358893;15/09/24;00:08:13;1.013;0.004;0.122;-0.018325956538319588;-0.012217304669320583;0.0036651913542300463
01:00:0A:00:00:00:00;1726358894;15/09/24;00:08:14;1.011;0.007;0.123;-0.013439035043120384;-0.010995574295520782;-0.0073303827084600925
01:00:0A:00:00:00:00;1726358895;15/09/24;00:08:15;1.01;0.009;0.124;-0.018325956538319588;-0.013439035043120384;0.0024434609804302454
01:00:0A:00:00:00:00;1726358896;15/09/24;00:08:16;1.01;0.003;0.122;-0.019547687843441963;-0.012217304669320583;0.0036651913542300463
01:00:0A:00:00:00:00;1726358897;15/09/24;00:08:17;1.012;0.007;0.123;-0.014660765416920185;-0.010995574295520782;-0.006108652334660292
01:00:0A:00:00:00:00;1726358898;15/09/24;00:08:18;1.012;0.01;0.123;-0.019547687843441963;-0.012217304669320583;0.004886921960860491
01:00:0A:00:00:00:00;1726358899;15/09/24;00:08:19;1.013;0.004;0.122;-0.019547687843441963;-0.013439035043120384;0.0036651913542300463
01:00:0A:00:00:00:00;1726358900;15/09/24;00:08:20;1.012;0.007;0.123;-0.015882495790719986;-0.009773843921720982;-0.006108652334660292
01:00:0A:00:00:00:00;1726358901;15/09/24;00:08:21;1.011;0.01;0.125;-0.019547687843441963;-0.013439035043120384;0.0036651913542300463
01:00:0A:00:00:00:00;1726358902;15/09/24;00:08:22;1.011;0.004;0.122;-0.02076941914856434;-0.013439035043120384;0.004886921960860491
01:00:0A:00:00:00:00;1726358903;15/09/24;00:08:23;1.012;0.007;0.122;-0.01710422709584236;-0.00855211354792118;-0.006108652334660292
01:00:0A:00:00:00:00;1726358904;15/09/24;00:08:24;1.011;0.009;0.123;-0.02076941914856434;-0.013439035043120384;0.0036651913542300463
01:00:0A:00:00:00:00;1726358905;15/09/24;00:08:25;1.012;0.005;0.122;-0.02076941914856434;-0.013439035043120384;0.0036651913542300463
01:00:0A:00:00:00:00;1726358906;15/09/24;00:08:26;1.01;0.006;0.122;-0.01710422709584236;-0.00855211354792118;-0.006108652334660292
01:00:0A:00:00:00:00;1726358907;15/09/24;00:08:27;1.011;0.01;0.124;-0.02076941914856434;-0.013439035043120384;0.0036651913542300463
01:00:0A:00:00:00:00;1726358908;15/09/24;00:08:28;1.011;0.004;0.122;-0.02076941914856434;-0.014660765416920185;0.004886921960860491
01:00:0A:00:00:00:00;1726358909;15/09/24;00:08:29;1.011;0.007;0.123;-0.01710422709584236;-0.0073303827084600925;-0.004886921960860491
01:00:0A:00:00:00:00;1726358910;15/09/24;00:08:30;1.012;0.009;0.125;-0.019547687843441963;-0.013439035043120384;0.0024434609804302454
01:00:0A:00:00:00:00;1726358911;15/09/24;00:08:31;1.012;0.004;0.122;-0.019547687843441963;-0.014660765416920185;0.0036651913542300463
01:00:0A:00:00:00:00;1726358912;15/09/24;00:08:32;1.012;0.006;0.122;-0.015882495790719986;-0.0073303827084600925;-0.006108652334660292
01:00:0A:00:00:00:00;1726358913;15/09/24;00:08:33;1.011;0.009;0.124;-0.018325956538319588;-0.013439035043120384;0.0024434609804302454
01:00:0A:00:00:00:00;1726358914;15/09/24;00:08:34;1.012;0.004;0.121;-0.018325956538319588;-0.015882495790719986;0.0036651913542300463
01:00:0A:00:00:00:00;1726358915;15/09/24;00:08:35;1.011;0.007;0.122;-0.015882495790719986;-0.0073303827084600925;-0.004886921960860491
01:00:0A:00:00:00:00;1726358916;15/09/24;00:08:36;1.011;0.01;0.125;-0.01710422709584236;-0.013439035043120384;0.0024434609804302454
01:00:0A:00:00:00:00;1726358917;15/09/24;00:08:37;1.012;0.005;0.121;-0.01710422709584236;-0.015882495790719986;0.0036651913542300463
01:00:0A:00:00:00:00;1726358918;15/09/24;00:08:38;1.011;0.007;0.122;-0.014660765416920185;-0.006108652334660292;-0.004886921960860491
01:00:0A:00:00:00:00;1726358919;15/09/24;00:08:39;1.011;0.01;0.126;-0.015882495790719986;-0.013439035043120384;0.0024434609804302454
01:00:0A:00:00:00:00;1726358920;15/09/24;00:08:40;1.013;0.005;0.121;-0.01710422709584236;-0.01710422709584236;0.004886921960860491
01:00:0A:00:00:00:00;1726358921;15/09/24;00:08:41;1.012;0.005;0.122;-0.013439035043120384;-0.0073303827084600925;-0.004886921960860491
01:00:0A:00:00:00:00;1726358922;15/09/24;00:08:42;1.012;0.01;0.126;-0.014660765416920185;-0.012217304669320583;0.0012217304902151227
01:00:0A:00:00:00:00;1726358923;15/09/24;00:08:43;1.011;0.005;0.122;-0.014660765416920185;-0.015882495790719986;0.0036651913542300463
01:00:0A:00:00:00:00;1726358924;15/09/24;00:08:44;1.01;0.007;0.122;-0.012217304669320583;-0.006108652334660292;-0.0036651913542300463
01:00:0A:00:00:00:00;1726358925;15/09/24;00:08:45;1.009;0.008;0.126;-0.013439035043120384;-0.013439035043120384;0.0024434609804302454
01:00:0A:00:00:00:00;1726358926;15/09/24;00:08:46;1.011;0.005;0.122;-0.013439035043120384;-0.018325956538319588;0.0036651913542300463
01:00:0A:00:00:00:00;1726358927;15/09/24;00:08:47;1.011;0.006;0.122;-0.010995574295520782;-0.006108652334660292;-0.0036651913542300463
01:00:0A:00:00:00:00;1726358928;15/09/24;00:08:48;1.012;0.008;0.127;-0.012217304669320583;-0.012217304669320583;0.0024434609804302454
01:00:0A:00:00:00:00;1726358929;15/09/24;00:08:49;1.01;0.005;0.122;-0.012217304669320583;-0.01710422709584236;0.004886921960860491
01:00:0A:00:00:00:00;1726358930;15/09/24;00:08:50;1.011;0.006;0.122;-0.010995574295520782;-0.006108652334660292;-0.0024434609804302454
01:00:0A:00:00:00:00;1726358931;15/09/24;00:08:51;1.011;0.009;0.125;-0.010995574295520782;-0.012217304669320583;0.0012217304902151227
01:00:0A:00:00:00:00;1726358932;15/09/24;00:08:52;1.012;0.005;0.122;-0.010995574295520782;-0.018325956538319588;0.0036651913542300463
01:00:0A:00:00:00:00;1726358933;15/09/24;00:08:53;1.012;0.006;0.122;-0.009773843921720982;-0.006108652334660292;-0.0024434609804302454
01:00:0A:00:00:00:00;1726358934;15/09/24;00:08:54;1.012;0.009;0.127;-0.010995574295520782;-0.010995574295520782;0.0024434609804302454
01:00:0A:00:00:00:00;1726358935;15/09/24;00:08:55;1.012;0.006;0.122;-0.010995574295520782;-0.01710422709584236;0.004886921960860491
01:00:0A:00:00:00:00;1726358936;15/09/24;00:08:56;1.011;0.006;0.122;-0.009773843921720982;-0.006108652334660292;-0.0024434609804302454
01:00:0A:00:00:00:00;1726358937;15/09/24;00:08:57;1.012;0.009;0.126;-0.010995574295520782;-0.012217304669320583;0.0024434609804302454
01:00:0A:00:00:00:00;1726358938;15/09/24;00:08:58;1.011;0.005;0.122;-0.009773843921720982;-0.019547687843441963;0.0024434609804302454
01:00:0A:00:00:00:00;1726358939;15/09/24;00:08:59;1.011;0.006;0.122;-0.009773843921720982;-0.006108652334660292;-0.0024434609804302454
01:00:0A:00:00:00:00;1726358940;15/09/24;00:09:00;1.012;0.009;0.127;-0.010995574295520782;-0.009773843921720982;0.0024434609804302454
01:00:0A:00:00:00:00;1726358941;15/09/24;00:09:01;1.011;0.006;0.122;-0.009773843921720982;-0.018325956538319588;0.0036651913542300463
01:00:0A:00:00:00:00;1726358942;15/09/24;00:09:02;1.011;0.007;0.12;-0.009773843921720982;-0.006108652334660292;-0.0024434609804302454
01:00:0A:00:00:00:00;1726358943;15/09/24;00:09:03;1.011;0.009;0.125;-0.009773843921720982;-0.010995574295520782;0.0012217304902151227
01:00:0A:00:00:00:00;1726358944;15/09/24;00:09:04;1.012;0.005;0.122;-0.00855211354792118;-0.018325956538319588;0.0024434609804302454
01:00:0A:00:00:00:00;1726358945;15/09/24;00:09:05;1.012;0.006;0.122;-0.009773843921720982;-0.006108652334660292;-0.0024434609804302454
01:00:0A:00:00:00:00;1726358946;15/09/24;00:09:06;1.011;0.008;0.126;-0.010995574295520782;-0.009773843921720982;0.0024434609804302454
01:00:0A:00:00:00:00;1726358947;15/09/24;00:09:07;1.011;0.006;0.122;-0.00855211354792118;-0.018325956538319588;0.0036651913542300463
01:00:0A:00:00:00:00;1726358948;15/09/24;00:09:08;1.011;0.007;0.121;-0.00855211354792118;-0.006108652334660292;-0.0012217304902151227
01:00:0A:00:00:00:00;1726358949;15/09/24;00:09:09;1.011;0.009;0.128;-0.009773843921720982;-0.009773843921720982;0.0012217304902151227
01:00:0A:00:00:00:00;1726358950;15/09/24;00:09:10;1.012;0.006;0.122;-0.0073303827084600925;-0.018325956538319588;0.0024434609804302454
01:00:0A:00:00:00:00;1726358951;15/09/24;00:09:11;1.012;0.006;0.122;-0.00855211354792118;-0.0073303827084600925;-0.0012217304902151227
01:00:0A:00:00:00:00;1726358952;15/09/24;00:09:12;1.011;0.007;0.127;-0.00855211354792118;-0.009773843921720982;0.0024434609804302454
01:00:0A:00:00:00:00;1726358953;15/09/24;00:09:13;1.012;0.005;0.122;-0.0073303827084600925;-0.018325956538319588;0.0024434609804302454
01:00:0A:00:00:00:00;1726358954;15/09/24;00:09:14;1.011;0.007;0.122;-0.0073303827084600925;-0.006108652334660292;-0.0012217304902151227
01:00:0A:00:00:00:00;1726358955;15/09/24;00:09:15;1.011;0.007;0.126;-0.00855211354792118;-0.009773843921720982;0.0012217304902151227
01:00:0A:00:00:00:00;1726358956;15/09/24;00:09:16;1.012;0.006;0.123;-0.006108652334660292;-0.019547687843441963;0.0024434609804302454
01:00:0A:00:00:00:00;1726358957;15/09/24;00:09:17;1.011;0.006;0.121;-0.0073303827084600925;-0.0073303827084600925;0.0
01:00:0A:00:00:00:00;1726358958;15/09/24;00:09:18;1.011;0.006;0.126;-0.00855211354792118;-0.00855211354792118;0.0024434609804302454
01:00:0A:00:00:00:00;1726358959;15/09/24;00:09:19;1.011;0.006;0.122;-0.006108652334660292;-0.018325956538319588;0.0024434609804302454
01:00:0A:00:00:00:00;1726358960;15/09/24;00:09:20;1.012;0.006;0.12;-0.0073303827084600925;-0.0073303827084600925;0.0
01:00:0A:00:00:00:00;1726358961;15/09/24;00:09:21;1.011;0.007;0.127;-0.0073303827084600925;-0.00855211354792118;0.0024434609804302454
01:00:0A:00:00:00:00;1726358962;15/09/24;00:09:22;1.012;0.006;0.122;-0.004886921960860491;-0.018325956538319588;0.0012217304902151227
01:00:0A:00:00:00:00;1726358963;15/09/24;00:09:23;1.011;0.007;0.121;-0.006108652334660292;-0.0073303827084600925;0.0
01:00:0A:00:00:00:00;1726358964;15/09/24;00:09:24;1.011;0.006;0.127;-0.0073303827084600925;-0.00855211354792118;0.0024434609804302454
01:00:0A:00:00:00:00;1726358965;15/09/24;00:09:25;1.012;0.006;0.122;-0.004886921960860491;-0.019547687843441963;0.0024434609804302454
01:00:0A:00:00:00:00;1726358966;15/09/24;00:09:26;1.012;0.007;0.121;-0.006108652334660292;-0.00855211354792118;0.0
01:00:0A:00:00:00:00;1726358967;15/09/24;00:09:27;1.011;0.008;0.125;-0.0073303827084600925;-0.00855211354792118;0.0024434609804302454
01:00:0A:00:00:00:00;1726358968;15/09/24;00:09:28;1.011;0.006;0.122;-0.004886921960860491;-0.018325956538319588;0.0012217304902151227
01:00:0A:00:00:00:00;1726358969;15/09/24;00:09:29;1.012;0.007;0.121;-0.006108652334660292;-0.00855211354792118;0.0012217304902151227
01:00:0A:00:00:00:00;1726358970;15/09/24;00:09:30;1.013;0.008;0.125;-0.006108652334660292;-0.00855211354792118;0.0024434609804302454
01:00:0A:00:00:00:00;1726358971;15/09/24;00:09:31;1.011;0.006;0.123;-0.0036651913542300463;-0.018325956538319588;0.0012217304902151227
01:00:0A:00:00:00:00;1726358972;15/09/24;00:09:32;1.012;0.008;0.121;-0.006108652334660292;-0.00855211354792118;0.0012217304902151227
01:00:0A:00:00:00:00;1726358973;15/09/24;00:09:33;1.01;0.007;0.126;-0.0073303827084600925;-0.00855211354792118;0.0024434609804302454
01:00:0A:00:00:00:00;1726358974;15/09/24;00:09:34;1.011;0.007;0.123;-0.004886921960860491;-0.018325956538319588;0.0024434609804302454
01:00:0A:00:00:00:00;1726358975;15/09/24;00:09:35;1.012;0.007;0.121;-0.006108652334660292;-0.00855211354792118;0.0012217304902151227
01:00:0A:00:00:00:00;1726358976;15/09/24;00:09:36;1.011;0.007;0.127;-0.0073303827084600925;-0.0073303827084600925;0.0024434609804302454
01:00:0A:00:00:00:00;1726358977;15/09/24;00:09:37;1.011;0.007;0.122;-0.004886921960860491;-0.018325956538319588;0.0012217304902151227
01:00:0A:00:00:00:00;1726358978;15/09/24;00:09:38;1.012;0.008;0.121;-0.006108652334660292;-0.009773843921720982;0.0
01:00:0A:00:00:00:00;1726358979;15/09/24;00:09:39;1.012;0.007;0.125;-0.0073303827084600925;-0.00855211354792118;0.0024434609804302454
01:00:0A:00:00:00:00;1726358980;15/09/24;00:09:40;1.011;0.006;0.123;-0.004886921960860491;-0.01710422709584236;0.0012217304902151227
01:00:0A:00:00:00:00;1726358981;15/09/24;00:09:41;1.011;0.008;0.121;-0.0073303827084600925;-0.009773843921720982;0.0012217304902151227
01:00:0A:00:00:00:00;1726358982;15/09/24;00:09:42;1.011;0.007;0.124;-0.00855211354792118;-0.00855211354792118;0.0024434609804302454
01:00:0A:00:00:00:00;1726358983;15/09/24;00:09:43;1.012;0.007;0.124;-0.006108652334660292;-0.01710422709584236;0.0
01:00:0A:00:00:00:00;1726358984;15/09/24;00:09:44;1.011;0.007;0.121;-0.0073303827084600925;-0.009773843921720982;0.0
01:00:0A:00:00:00:00;1726358985;15/09/24;00:09:45;1.011;0.007;0.124;-0.00855211354792118;-0.00855211354792118;0.0036651913542300463
01:00:0A:00:00:00:00;1726358986;15/09/24;00:09:46;1.012;0.005;0.124;-0.006108652334660292;-0.01710422709584236;0.0012217304902151227
01:00:0A:00:00:00:00;1726358987;15/09/24;00:09:47;1.013;0.008;0.122;-0.0073303827084600925;-0.010995574295520782;0.0012217304902151227
01:00:0A:00:00:00:00;1726358988;15/09/24;00:09:48;1.012;0.009;0.125;-0.00855211354792118;-0.0073303827084600925;0.0024434609804302454
01:00:0A:00:00:00:00;1726358989;15/09/24;00:09:49;1.011;0.008;0.124;-0.006108652334660292;-0.015882495790719986;0.0
01:00:0A:00:00:00:00;1726358990;15/09/24;00:09:50;1.01;0.007;0.122;-0.0073303827084600925;-0.009773843921720982;0.0
01:00:0A:00:00:00:00;1726358991;15/09/24;00:09:51;1.01;0.005;0.124;-0.009773843921720982;-0.00855211354792118;0.0024434609804302454
01:00:0A:00:00:00:00;1726358992;15/09/24;00:09:52;1.011;0.006;0.123;-0.0073303827084600925;-0.01710422709584236;0.0012217304902151227
01:00:0A:00:00:00:00;1726358993;15/09/24;00:09:53;1.012;0.008;0.12;-0.00855211354792118;-0.010995574295520782;0.0012217304902151227
01:00:0A:00:00:00:00;1726358994;15/09/24;00:09:54;1.011;0.007;0.124;-0.009773843921720982;-0.00855211354792118;0.0024434609804302454
01:00:0A:00:00:00:00;1726358995;15/09/24;00:09:55;1.012;0.006;0.123;-0.0073303827084600925;-0.014660765416920185;-0.0012217304902151227
01:00:0A:00:00:00:00;1726358996;15/09/24;00:09:56;1.012;0.008;0.12;-0.00855211354792118;-0.010995574295520782;0.0
01:00:0A:00:00:00:00;1726358997;15/09/24;00:09:57;1.011;0.006;0.124;-0.009773843921720982;-0.00855211354792118;0.0024434609804302454
01:00:0A:00:00:00:00;1726358998;15/09/24;00:09:58;1.011;0.006;0.124;-0.0073303827084600925;-0.015882495790719986;0.0
01:00:0A:00:00:00:00;1726358999;15/09/24;00:09:59;1.012;0.008;0.122;-0.00855211354792118;-0.010995574295520782;0.0012217304902151227
01:00:0A:00:00:00:00;1726359000;15/09/24;00:10:00;1.011;0.007;0.125;-0.009773843921720982;-0.00855211354792118;0.0036651913542300463
01:00:0A:00:00:00:00;1726359001;15/09/24;00:10:01;1.011;0.007;0.124;-0.0073303827084600925;-0.014660765416920185;0.0
01:00:0A:00:00:00:00;1726359002;15/09/24;00:10:02;1.011;0.007;0.122;-0.00855211354792118;-0.010995574295520782;0.0
01:00:0A:00:00:00:00;1726359003;15/09/24;00:10:03;1.012;0.008;0.123;-0.009773843921720982;-0.00855211354792118;0.0036651913542300463
01:00:0A:00:00:00:00;1726359004;15/09/24;00:10:04;1.011;0.006;0.122;-0.0073303827084600925;-0.014660765416920185;0.0
01:00:0A:00:00:00:00;1726359005;15/09/24;00:10:05;1.012;0.009;0.122;-0.00855211354792118;-0.012217304669320583;0.0012217304902151227
01:00:0A:00:00:00:00;1726359006;15/09/24;00:10:06;1.012;0.007;0.124;-0.009773843921720982;-0.009773843921720982;0.0036651913542300463
01:00:0A:00:00:00:00;1726359007;15/09/24;00:10:07;1.011;0.006;0.124;-0.0073303827084600925;-0.013439035043120384;0.0
01:00:0A:00:00:00:00;1726359008;15/09/24;00:10:08;1.011;0.007;0.121;-0.00855211354792118;-0.012217304669320583;0.0
01:00:0A:00:00:00:00;1726359009;15/09/24;00:10:09;1.011;0.006;0.124;-0.009773843921720982;-0.00855211354792118;0.0036651913542300463
01:00:0A:00:00:00:00;1726359010;15/09/24;00:10:10;1.012;0.006;0.123;-0.0073303827084600925;-0.014660765416920185;0.0
01:00:0A:00:00:00:00;1726359011;15/09/24;00:10:11;1.012;0.008;0.122;-0.00855211354792118;-0.012217304669320583;0.0012217304902151227
01:00:0A:00:00:00:00;1726359012;15/09/24;00:10:12;1.012;0.006;0.123;-0.009773843921720982;-0.00855211354792118;0.0036651913542300463
01:00:0A:00:00:00:00;1726359013;15/09/24;00:10:13;1.012;0.006;0.123;-0.006108652334660292;-0.013439035043120384;0.0
01:00:0A:00:00:00:00;1726359014;15/09/24;00:10:14;1.012;0.009;0.122;-0.00855211354792118;-0.010995574295520782;0.0
01:00:0A:00:00:00:00;1726359015;15/09/24;00:10:15;1.012;0.006;0.124;-0.009773843921720982;-0.009773843921720982;0.0036651913542300463
01:00:0A:00:00:00:00;1726359016;15/09/24;00:10:16;1.012;0.006;0.123;-0.0073303827084600925;-0.013439035043120384;0.0
01:00:0A:00:00:00:00;1726359017;15/09/24;00:10:17;1.012;0.007;0.122;-0.00855211354792118;-0.012217304669320583;0.0012217304902151227
01:00:0A:00:00:00:00;1726359018;15/09/24;00:10:18;1.011;0.006;0.123;-0.009773843921720982;-0.009773843921720982;0.0036651913542300463
01:00:0A:00:00:00:00;1726359019;15/09/24;00:10:19;1.011;0.006;0.123;-0.006108652334660292;-0.012217304669320583;0.0
01:00:0A:00:00:00:00;1726359020;15/09/24;00:10:20;1.012;0.008;0.122;-0.0073303827084600925;-0.010995574295520782;0.0
01:00:0A:00:00:00:00;1726359021;15/09/24;00:10:21;1.012;0.006;0.123;-0.009773843921720982;-0.009773843921720982;0.0036651913542300463
01:00:0A:00:00:00:00;1726359022;15/09/24;00:10:22;1.012;0.006;0.124;-0.006108652334660292;-0.012217304669320583;0.0
01:00:0A:00:00:00:00;1726359023;15/09/24;00:10:23;1.011;0.008;0.122;-0.0073303827084600925;-0.010995574295520782;0.0012217304902151227
01:00:0A:00:00:00:00;1726359024;15/09/24;00:10:24;1.012;0.006;0.123;-0.00855211354792118;-0.009773843921720982;0.0036651913542300463
01:00:0A:00:00:00:00;1726359025;15/09/24;00:10:25;1.012;0.006;0.123;-0.006108652334660292;-0.012217304669320583;0.0
01:00:0A:00:00:00:00;1726359026;15/09/24;00:10:26;1.011;0.008;0.123;-0.0073303827084600925;-0.012217304669320583;0.0012217304902151227
01:00:0A:00:00:00:00;1726359027;15/09/24;00:10:27;1.01;0.007;0.124;-0.00855211354792118;-0.009773843921720982;0.0036651913542300463
01:00:0A:00:00:00:00;1726359028;15/09/24;00:10:28;1.01;0.007;0.123;-0.006108652334660292;-0.012217304669320583;0.0
01:00:0A:00:00:00:00;1726359029;15/09/24;00:10:29;1.012;0.008;0.123;-0.006108652334660292;-0.010995574295520782;0.0
01:00:0A:00:00:00:00;1726359030;15/09/24;00:10:30;1.011;0.006;0.124;-0.00855211354792118;-0.010995574295520782;0.0036651913542300463
01:00:0A:00:00:00:00;1726359031;15/09/24;00:10:31;1.012;0.006;0.123;-0.006108652334660292;-0.012217304669320583;0.0
01:00:0A:00:00:00:00;1726359032;15/09/24;00:10:32;1.011;0.007;0.122;-0.006108652334660292;-0.012217304669320583;0.0
01:00:0A:00:00:00:00;1726359033;15/09/24;00:10:33;1.011;0.006;0.124;-0.0073303827084600925;-0.010995574295520782;0.0036651913542300463
01:00:0A:00:00:00:00;1726359034;15/09/24;00:10:34;1.011;0.006;0.123;-0.004886921960860491;-0.012217304669320583;0.0
01:00:0A:00:00:00:00;1726359035;15/09/24;00:10:35;1.01;0.009;0.123;-0.006108652334660292;-0.010995574295520782;0.0
01:00:0A:00:00:00:00;1726359036;15/09/24;00:10:36;1.011;0.006;0.123;-0.0073303827084600925;-0.010995574295520782;0.0036651913542300463
01:00:0A:00:00:00:00;1726359037;15/09/24;00:10:37;1.011;0.007;0.123;-0.004886921960860491;-0.012217304669320583;0.0
01:00:0A:00:00:00:00;1726359038;15/09/24;00:10:38;1.011;0.009;0.123;-0.004886921960860491;-0.012217304669320583;0.0012217304902151227
01:00:0A:00:00:00:00;1726359039;15/09/24;00:10:39;1.01;0.006;0.123;-0.006108652334660292;-0.010995574295520782;0.0036651913542300463
01:00:0A:00:00:00:00;1726359040;15/09/24;00:10:40;1.011;0.006;0.123;-0.004886921960860491;-0.010995574295520782;0.0
01:00:0A:00:00:00:00;1726359041;15/09/24;00:10:41;1.01;0.008;0.123;-0.004886921960860491;-0.010995574295520782;0.0
01:00:0A:00:00:00:00;1726359042;15/09/24;00:10:42;1.012;0.005;0.124;-0.004886921960860491;-0.010995574295520782;0.0024434609804302454
01:00:0A:00:00:00:00;1726359043;15/09/24;00:10:43;1.012;0.006;0.123;-0.0036651913542300463;-0.012217304669320583;0.0012217304902151227
01:00:0A:00:00:00:00;1726359044;15/09/24;00:10:44;1.011;0.007;0.123;-0.0036651913542300463;-0.010995574295520782;0.0
01:00:0A:00:00:00:00;1726359045;15/09/24;00:10:45;1.011;0.007;0.122;-0.004886921960860491;-0.012217304669320583;0.0036651913542300463
01:00:0A:00:00:00:00;1726359046;15/09/24;00:10:46;1.011;0.006;0.123;-0.0036651913542300463;-0.010995574295520782;0.0012217304902151227
01:00:0A:00:00:00:00;1726359047;15/09/24;00:10:47;1.011;0.007;0.124;-0.0024434609804302454;-0.010995574295520782;0.0012217304902151227
01:00:0A:00:00:00:00;1726359048;15/09/24;00:10:48;1.011;0.007;0.123;-0.0036651913542300463;-0.010995574295520782;0.0036651913542300463
01:00:0A:00:00:00:00;1726359049;15/09/24;00:10:49;1.012;0.006;0.122;-0.0024434609804302454;-0.010995574295520782;0.0012217304902151227
01:00:0A:00:00:00:00;1726359050;15/09/24;00:10:50;1.012;0.006;0.124;-0.0012217304902151227;-0.013439035043120384;0.0
01:00:0A:00:00:00:00;1726359051;15/09/24;00:10:51;1.007;0.003;0.122;-0.0012217304902151227;-0.004886921960860491;-0.0036651913542300463
01:00:0A:00:00:00:00;1726359052;15/09/24;00:10:52;1.005;0.0;0.123;-0.0012217304902151227;-0.014660765416920185;0.00855211354792118
01:00:0A:00:00:00:00;1726359053;15/09/24;00:10:53;1.02;0.008;0.126;-0.0036651913542300463;-0.009773843921720982;0.019547687843441963
01:00:0A:00:00:00:00;1726359054;15/09/24;00:10:54;1.028;0.009;0.123;0.0024434609804302454;0.00855211354792118;0.0036651913542300463
01:00:0A:00:00:00:00;1726359055;15/09/24;00:10:55;1.016;0.012;0.122;0.012217304669320583;-0.00855211354792118;-0.014660765416920185
01:00:0A:00:00:00:00;1726359056;15/09/24;00:10:56;0.998;0.009;0.126;0.02076941914856434;-0.019547687843441963;-0.015882495790719986
01:00:0A:00:00:00:00;1726359057;15/09/24;00:10:57;0.979;0.0;0.131;0.02687807008624077;-0.02687807008624077;-0.013439035043120384
01:00:0A:00:00:00:00;1726359058;15/09/24;00:10:58;0.987;-0.004;0.128;0.025656338781118393;-0.02687807008624077;-0.0012217304902151227
01:00:0A:00:00:00:00;1726359059;15/09/24;00:10:59;1.028;-0.006;0.134;0.019547687843441963;-0.025656338781118393;0.03420845419168472
01:00:0A:00:00:00:00;1726359060;15/09/24;00:11:00;1.048;0.0;0.135;0.015882495790719986;-0.004886921960860491;0.05009094998240471
01:00:0A:00:00:00:00;1726359061;15/09/24;00:11:01;1.046;0.014;0.12;0.019547687843441963;0.025656338781118393;0.025656338781118393
01:00:0A:00:00:00:00;1726359062;15/09/24;00:11:02;1.002;0.024;0.112;0.03176499158143997;0.0024434609804302454;-0.021991148591041565
01:00:0A:00:00:00:00;1726359063;15/09/24;00:11:03;0.975;0.02;0.108;0.03420845419168472;-0.02076941914856434;-0.036651913076639175
01:00:0A:00:00:00:00;1726359064;15/09/24;00:11:04;0.985;0.001;0.113;0.024434609338641167;-0.04398229718208313;-0.03420845419168472
01:00:0A:00:00:00:00;1726359065;15/09/24;00:11:05;1.016;0.001;0.126;0.0012217304902151227;-0.05375614017248154;0.006108652334660292
01:00:0A:00:00:00:00;1726359066;15/09/24;00:11:06;1.039;0.001;0.141;-0.009773843921720982;-0.00855211354792118;0.00855211354792118
01:00:0A:00:00:00:00;1726359067;15/09/24;00:11:07;1.027;0.021;0.131;-0.028099799528717995;0.01710422709584236;0.0073303827084600925
01:00:0A:00:00:00:00;1726359068;15/09/24;00:11:08;0.989;0.009;0.112;-0.04153883829712868;0.015882495790719986;0.02321287989616394
01:00:0A:00:00:00:00;1726359069;15/09/24;00:11:09;0.975;0.015;0.103;-0.03176499158143997;-0.009773843921720982;-0.02076941914856434
01:00:0A:00:00:00:00;1726359070;15/09/24;00:11:10;1.009;0.02;0.11;-0.06230825558304787;-0.045204028487205505;0.030543262138962746
01:00:0A:00:00:00:00;1726359071;15/09/24;00:11:11;1.054;-0.002;0.13;-0.06230825558304787;-0.042760565876960754;-0.004886921960860491
01:00:0A:00:00:00:00;1726359072;15/09/24;00:11:12;1.059;0.036;0.133;-0.08674286305904388;-0.0073303827084600925;-0.01710422709584236
01:00:0A:00:00:00:00;1726359073;15/09/24;00:11:13;1.016;-0.025;0.096;-0.09529497474431992;-0.015882495790719986;0.07452555745840073
01:00:0A:00:00:00:00;1726359074;15/09/24;00:11:14;0.968;-0.024;0.146;-0.04642575979232788;0.1771509200334549;-0.028099799528717995
01:00:0A:00:00:00:00;1726359075;15/09/24;00:11:15;0.95;0.03;0.144;-0.0036651913542300463;-0.2015855312347412;-0.06963863223791122
01:00:0A:00:00:00:00;1726359076;15/09/24;00:11:16;0.992;0.017;0.071;-0.15882496535778046;0.036651913076639175;0.08429940044879913
01:00:0A:00:00:00:00;1726359077;15/09/24;00:11:17;1.044;0.035;0.122;-0.19425514340400696;-0.12950342893600464;-0.06841690838336945
01:00:0A:00:00:00:00;1726359078;15/09/24;00:11:18;1.056;0.008;0.067;-0.30543261766433716;-0.015882495790719986;0.02076941914856434
01:00:0A:00:00:00:00;1726359079;15/09/24;00:11:19;1.016;-0.023;0.164;-0.30054569244384766;0.0708603635430336;-0.0036651913542300463
01:00:0A:00:00:00:00;1726359080;15/09/24;00:11:20;0.977;0.038;0.119;-0.2528982162475586;-0.040317103266716;-0.08552113175392151
01:00:0A:00:00:00:00;1726359081;15/09/24;00:11:21;0.976;-0.056;0.11;-0.21624629199504852;-0.12461651116609573;0.13805554807186127
01:00:0A:00:00:00:00;1726359082;15/09/24;00:11:22;1.008;-0.094;0.039;-0.09285151958465576;0.15271630883216858;0.039095375686883926
01:00:0A:00:00:00:00;1726359083;15/09/24;00:11:23;0.987;-0.067;0.322;0.10995574295520782;0.08307767659425735;-0.17470745742321014
01:00:0A:00:00:00:00;1726359084;15/09/24;00:11:24;1.023;0.085;0.112;0.11484266817569733;-0.26022857427597046;-0.0036651913542300463
01:00:0A:00:00:00:00;1726359085;15/09/24;00:11:25;1.012;-0.017;0.095;-0.0036651913542300463;0.18325956165790558;0.030543262138962746
01:00:0A:00:00:00:00;1726359086;15/09/24;00:11:26;0.992;0.004;0.157;0.013439035043120384;-0.15027284622192383;0.11972958594560623
01:00:0A:00:00:00:00;1726359087;15/09/24;00:11:27;1.0;-0.111;0.033;0.05009094998240471;-0.06108652427792549;0.1258382350206375
01:00:0A:00:00:00:00;1726359088;15/09/24;00:11:28;1.006;-0.175;0.129;0.19425514340400696;0.2590068578720093;0.0024434609804302454
01:00:0A:00:00:00:00;1726359089;15/09/24;00:11:29;0.957;0.045;0.397;0.36651912331581116;0.11728612333536148;-0.23579397797584534
01:00:0A:00:00:00:00;1726359090;15/09/24;00:11:30;0.992;0.184;0.113;0.14538592100143433;-0.3188716471195221;0.10262535512447357
01:00:0A:00:00:00:00;1726359091;15/09/24;00:11:31;1.0;-0.066;0.061;-0.12461651116609573;0.12339477241039276;0.2590068578720093
01:00:0A:00:00:00:00;1726359092;15/09/24;00:11:32;0.994;0.021;0.155;-0.024434609338641167;-0.10018189996480942;-0.20036379992961884
01:00:0A:00:00:00:00;1726359093;15/09/24;00:11:33;1.016;0.111;0.02;-0.3481931686401367;-0.05253440886735916;0.06963863223791122
01:00:0A:00:00:00:00;1726359094;15/09/24;00:11:34;1.03;-0.047;0.134;-0.4862487316131592;0.17348572611808777;-0.2675589621067047
01:00:0A:00:00:00:00;1726359095;15/09/24;00:11:35;0.885;0.329;0.402;-0.5717698335647583;-0.294437050819397;-0.5326744914054871
01:00:0A:00:00:00:00;1726359096;15/09/24;00:11:36;0.982;0.248;-0.039;-1.0335839986801147;-0.8698720932006836;0.3188716471195221
01:00:0A:00:00:00:00;1726359097;15/09/24;00:11:37;0.966;0.17;-0.092;-1.4049899578094482;-0.24678954482078552;0.2932153046131134
01:00:0A:00:00:00:00;1726359098;15/09/24;00:11:38;1.0;0.077;-0.04;-1.6029103994369507;-0.3090977966785431;0.24190263450145721
01:00:0A:00:00:00:00;1726359099;15/09/24;00:11:39;1.01;0.184;0.035;-1.7336355447769165;-0.2076941877603531;0.15027284622192383
01:00:0A:00:00:00:00;1726359100;15/09/24;00:11:40;1.051;0.076;-0.037;-1.7495180368423462;-0.25045475363731384;0.02687807008624077
01:00:0A:00:00:00:00;1726359101;15/09/24;00:11:41;1.036;-0.033;0.159;-1.7324137687683105;-0.0024434609804302454;0.024434609338641167
01:00:0A:00:00:00:00;1726359102;15/09/24;00:11:42;0.974;0.06;0.178;-1.5393803119659424;0.08429940044879913;-0.3042108714580536
01:00:0A:00:00:00:00;1726359103;15/09/24;00:11:43;0.961;-0.002;0.018;-1.4953980445861816;-0.6426302194595337;-0.02932153083384037
01:00:0A:00:00:00:00;1726359104;15/09/24;00:11:44;0.935;0.148;-0.02;-1.813048005104065;0.05009094998240471;0.6963863372802734
01:00:0A:00:00:00:00;1726359105;15/09/24;00:11:45;0.996;-0.097;-0.011;-1.63467538356781;0.14782939851284027;-0.10995574295520782
01:00:0A:00:00:00:00;1726359106;15/09/24;00:11:46;1.056;-0.006;0.177;-1.4868459701538086;-0.1319468915462494;-0.0354301817715168
01:00:0A:00:00:00:00;1726359107;15/09/24;00:11:47;1.066;0.026;0.032;-1.389107584953308;-0.09529497474431992;-0.10506881773471832
01:00:0A:00:00:00:00;1726359108;15/09/24;00:11:48;1.007;0.015;0.215;-1.3548990488052368;0.06352998316287994;-0.08429940044879913
01:00:0A:00:00:00:00;1726359109;15/09/24;00:11:49;0.951;0.07;0.02;-1.2131783962249756;-0.31154125928878784;-0.3176499307155609
01:00:0A:00:00:00:00;1726359110;15/09/24;00:11:50;0.924;-0.058;0.203;-1.243721604347229;-0.17470745742321014;0.4043927788734436
01:00:0A:00:00:00:00;1726359111;15/09/24;00:11:51;0.995;0.015;0.009;-0.7819074988365173;0.19058994948863983;-0.8784241676330566
01:00:0A:00:00:00:00;1726359112;15/09/24;00:11:52;0.903;0.143;0.429;-0.9724974632263184;-0.5778785347938538;0.2028072476387024
01:00:0A:00:00:00:00;1726359113;15/09/24;00:11:53;1.046;0.023;-0.03;-0.8564330339431763;-0.19425514340400696;-0.1258382350206375
01:00:0A:00:00:00:00;1726359114;15/09/24;00:11:54;1.032;-0.052;0.188;-0.8539896011352539;0.14416420459747314;0.04642575979232788
01:00:0A:00:00:00:00;1726359115;15/09/24;00:11:55;1.008;0.05;0.125;-0.6792821884155273;-0.10995574295520782;-0.2822197377681732
01:00:0A:00:00:00:00;1726359116;15/09/24;00:11:56;0.961;0.083;0.15;-0.8100073337554932;-0.1160643920302391;-0.12095131725072861
01:00:0A:00:00:00:00;1726359117;15/09/24;00:11:57;0.956;0.155;0.09;-0.9468411207199097;-0.41661006212234497;-0.15027284622192383
01:00:0A:00:00:00:00;1726359118;15/09/24;00:11:58;0.982;0.157;0.113;-1.2363911867141724;-0.33597588539123535;0.30054569244384766
01:00:0A:00:00:00:00;1726359119;15/09/24;00:11:59;1.027;0.053;0.004;-1.2962559461593628;0.05375614017248154;0.019547687843441963
01:00:0A:00:00:00:00;1726359120;15/09/24;00:12:00;1.035;-0.071;0.207;-1.1582003831863403;-0.09285151958465576;-0.07330382615327835
01:00:0A:00:00:00:00;1726359121;15/09/24;00:12:01;1.038;0.084;0.083;-1.0299187898635864;0.004886921960860491;-0.2565633952617645
01:00:0A:00:00:00:00;1726359122;15/09/24;00:12:02;1.005;0.015;0.166;-1.0604619979858398;-0.13805554807186127;-0.08185594528913498
01:00:0A:00:00:00:00;1726359123;15/09/24;00:12:03;0.976;0.115;0.089;-1.0555751323699951;-0.10751228034496307;-0.2125810980796814
01:00:0A:00:00:00:00;1726359124;15/09/24;00:12:04;0.976;0.052;0.106;-1.1410963535308838;-0.3481931686401367;-0.012217304669320583
01:00:0A:00:00:00:00;1726359125;15/09/24;00:12:05;0.981;0.078;0.18;-1.1533136367797852;0.05864306166768074;0.04153883829712868
01:00:0A:00:00:00:00;1726359126;15/09/24;00:12:06;0.994;-0.052;0.184;-0.7635815143585205;-0.30054569244384766;-0.3701843321323395
01:00:0A:00:00:00:00;1726359127;15/09/24;00:12:07;1.027;0.083;0.158;-0.739146888256073;-0.06108652427792549;0.09896016865968704
01:00:0A:00:00:00:00;1726359128;15/09/24;00:12:08;1.05;-0.068;-0.024;-0.5534439086914062;-0.030543262138962746;-0.19547687470912933
01:00:0A:00:00:00:00;1726359129;15/09/24;00:12:09;1.007;0.2;0.157;-0.5717698335647583;0.17592918872833252;-0.3176499307155609
01:00:0A:00:00:00:00;1726359130;15/09/24;00:12:10;0.998;-0.064;0.204;-0.4948008358478546;-0.2565633952617645;0.030543262138962746
01:00:0A:00:00:00:00;1726359131;15/09/24;00:12:11;0.962;0.116;-0.021;-0.4544837474822998;-0.06475171446800232;-0.33108896017074585
01:00:0A:00:00:00:00;1726359132;15/09/24;00:12:12;0.954;0.162;0.078;-0.8429940342903137;-0.2785545289516449;0.485027015209198
01:00:0A:00:00:00:00;1726359133;15/09/24;00:12:13;1.008;0.043;-0.005;-0.9382889866828918;0.03420845419168472;0.09162978082895279
01:00:0A:00:00:00:00;1726359134;15/09/24;00:12:14;1.054;-0.04;-0.13;-1.0751228332519531;0.10262535512447357;0.6133087277412415
01:00:0A:00:00:00:00;1726359135;15/09/24;00:12:15;0.86;-0.618;-0.063;-0.6768386960029602;1.5137239694595337;-0.3433062732219696
01:00:0A:00:00:00:00;1726359136;15/09/24;00:12:16;0.817;0.231;0.587;-1.1924089193344116;-0.5571090579032898;-1.0922271013259888
01:00:0A:00:00:00:00;1726359137;15/09/24;00:12:17;1.024;-0.165;0.098;-1.1117748022079468;-0.5900958180427551;-0.13316862285137177
01:00:0A:00:00:00:00;1726359138;15/09/24;00:12:18;1.009;0.014;-0.091;-1.0592403411865234;0.16004669666290283;0.0073303827084600925
01:00:0A:00:00:00:00;1726359139;15/09/24;00:12:19;0.961;0.034;0.304;-1.0115928649902344;-0.17837265133857727;-0.3640756905078888
01:00:0A:00:00:00:00;1726359140;15/09/24;00:12:20;1.018;0.131;0.102;-1.1227703094482422;-0.7904595732688904;0.10873401165008545
01:00:0A:00:00:00:00;1726359141;15/09/24;00:12:21;0.934;0.167;-0.39;-1.5638149976730347;-0.1869247555732727;0.7965682148933411
01:00:0A:00:00:00:00;1726359142;15/09/24;00:12:22;0.946;-0.184;-0.401;-1.7177530527114868;0.4447098970413208;0.7672467231750488
01:00:0A:00:00:00:00;1726359143;15/09/24;00:12:23;1.004;-0.197;-0.147;-1.6297883987426758;0.7171557545661926;0.5229006409645081
01:00:0A:00:00:00:00;1726359144;15/09/24;00:12:24;0.953;-0.268;0.2;-1.2877038717269897;0.6658430695533752;-0.15271630883216858
01:00:0A:00:00:00:00;1726359145;15/09/24;00:12:25;0.911;-0.086;0.372;-1.1606439352035522;0.3384193480014801;-1.2400563955307007
01:00:0A:00:00:00:00;1726359146;15/09/24;00:12:26;0.957;0.14;0.187;-1.3292428255081177;-0.6426302194595337;-0.2528982162475586
01:00:0A:00:00:00:00;1726359147;15/09/24;00:12:27;1.011;-0.052;-0.126;-1.510058879852295;-0.17470745742321014;0.2223549485206604
01:00:0A:00:00:00:00;1726359148;15/09/24;00:12:28;1.022;-0.146;0.164;-1.4233160018920898;0.2981022298336029;-0.16249015927314758
01:00:0A:00:00:00:00;1726359149;15/09/24;00:12:29;1.016;0.225;0.102;-1.4184291362762451;-0.6206390857696533;-0.3481931686401367
01:00:0A:00:00:00:00;1726359150;15/09/24;00:12:30;0.991;0.239;-0.127;-1.938886284828186;-0.4605923891067505;0.5070181488990784
01:00:0A:00:00:00:00;1726359151;15/09/24;00:12:31;0.939;-0.205;-0.322;-2.0476202964782715;-0.08918632566928864;0.7806857824325562
01:00:0A:00:00:00:00;1726359152;15/09/24;00:12:32;0.978;0.194;-0.087;-2.1087067127227783;0.20036379992961884;0.485027015209198
01:00:0A:00:00:00:00;1726359153;15/09/24;00:12:33;0.987;-0.081;-0.103;-1.8484781980514526;-0.03787364438176155;0.08429940044879913
01:00:0A:00:00:00:00;1726359154;15/09/24;00:12:34;0.995;-0.019;0.176;-1.7470746040344238;0.2724458873271942;0.04153883829712868
01:00:0A:00:00:00:00;1726359155;15/09/24;00:12:35;1.001;-0.029;0.192;-1.330464482307434;-0.08185594528913498;-0.616973876953125
01:00:0A:00:00:00:00;1726359156;15/09/24;00:12:36;0.989;0.036;0.284;-1.215621829032898;-0.22968533635139465;-0.1258382350206375
01:00:0A:00:00:00:00;1726359157;15/09/24;00:12:37;1.027;0.067;0.074;-1.0458012819290161;-0.00855211354792118;-0.1722639948129654
01:00:0A:00:00:00:00;1726359158;15/09/24;00:12:38;1.021;-0.067;0.153;-0.9773843884468079;-0.0024434609804302454;-0.006108652334660292
01:00:0A:00:00:00:00;1726359159;15/09/24;00:12:39;1.003;0.09;0.113;-0.8161159753799438;0.018325956538319588;-0.34086278080940247
01:00:0A:00:00:00:00;1726359160;15/09/24;00:12:40;0.969;-0.064;0.209;-0.8307767510414124;-0.1368338167667389;0.2076941877603531
01:00:0A:00:00:00:00;1726359161;15/09/24;00:12:41;0.996;-0.088;0.046;-0.4996877610683441;0.010995574295520782;-0.3628539443016052
01:00:0A:00:00:00:00;1726359162;15/09/24;00:12:42;0.978;0.096;0.301;-0.5705481767654419;0.04886921867728233;0.16493360698223114
01:00:0A:00:00:00:00;1726359163;15/09/24;00:12:43;1.041;-0.132;0.192;-0.313984751701355;-0.29688048362731934;-0.1966986060142517
01:00:0A:00:00:00:00;1726359164;15/09/24;00:12:44;1.056;0.08;-0.055;-0.3176499307155609;0.12339477241039276;-0.05375614017248154
01:00:0A:00:00:00:00;1726359165;15/09/24;00:12:45;0.958;-0.16;0.381;-0.21135938167572021;0.11972958594560623;0.14416420459747314
01:00:0A:00:00:00:00;1726359166;15/09/24;00:12:46;1.014;0.034;-0.032;-0.015882495790719986;-0.43249258399009705;-0.24190263450145721
01:00:0A:00:00:00:00;1726359167;15/09/24;00:12:47;0.968;0.076;-0.109;-0.39095374941825867;0.1576032191514969;0.43860122561454773
01:00:0A:00:00:00:00;1726359168;15/09/24;00:12:48;0.972;-0.161;0.086;-0.34574973583221436;0.21624629199504852;-0.1270599663257599
01:00:0A:00:00:00:00;1726359169;15/09/24;00:12:49;1.029;0.081;0.081;-0.2272418737411499;-0.20525071024894714;-0.15882496535778046
01:00:0A:00:00:00:00;1726359170;15/09/24;00:12:50;1.063;0.02;-0.007;-0.39217546582221985;0.16004669666290283;0.24923302233219147
01:00:0A:00:00:00:00;1726359171;15/09/24;00:12:51;0.99;-0.299;0.309;-0.1258382350206375;0.23335053026676178;0.10262535512447357
01:00:0A:00:00:00:00;1726359172;15/09/24;00:12:52;1.009;0.146;0.143;0.11484266817569733;-0.19914205372333527;-0.5009095072746277
01:00:0A:00:00:00:00;1726359173;15/09/24;00:12:53;0.991;-0.079;0.144;-0.23090705275535583;0.1563815027475357;0.39706242084503174
01:00:0A:00:00:00:00;1726359174;15/09/24;00:12:54;0.967;-0.059;0.108;-0.012217304669320583;-0.37140607833862305;-0.23457224667072296
01:00:0A:00:00:00:00;1726359175;15/09/24;00:12:55;0.965;0.127;0.011;-0.3066543638706207;0.14782939851284027;0.12950342893600464
01:00:0A:00:00:00:00;1726359176;15/09/24;00:12:56;1.008;-0.01;0.151;-0.4288274049758911;-0.08185594528913498;0.21380282938480377
01:00:0A:00:00:00:00;1726359177;15/09/24;00:12:57;1.023;-0.171;-0.073;-0.3628539443016052;-0.04886921867728233;0.18936821818351746
01:00:0A:00:00:00:00;1726359178;15/09/24;00:12:58;1.018;-0.149;0.127;-0.19303341209888458;0.2370157092809677;-0.2981022298336029
01:00:0A:00:00:00:00;1726359179;15/09/24;00:12:59;0.954;0.283;0.262;-0.23945917189121246;-0.17837265133857727;-0.4080579876899719
01:00:0A:00:00:00:00;1726359180;15/09/24;00:13:00;1.0;0.224;-0.065;-0.7049384713172913;-0.3933972120285034;0.2174680233001709
01:00:0A:00:00:00:00;1726359181;15/09/24;00:13:01;1.028;-0.007;0.014;-0.8991935849189758;0.15271630883216858;0.2223549485206604
01:00:0A:00:00:00:00;1726359182;15/09/24;00:13:02;0.986;-0.165;0.238;-0.5546656250953674;0.22602014243602753;-0.12217304855585098
01:00:0A:00:00:00:00;1726359183;15/09/24;00:13:03;0.989;0.094;0.188;-0.28588491678237915;-0.10751228034496307;-0.3933972120285034
01:00:0A:00:00:00:00;1726359184;15/09/24;00:13:04;1.0;0.067;0.11;-0.485027015209198;-0.15393804013729095;0.17470745742321014
01:00:0A:00:00:00:00;1726359185;15/09/24;00:13:05;1.012;-0.097;0.025;-0.4153883755207062;0.0036651913542300463;0.006108652334660292
01:00:0A:00:00:00:00;1726359186;15/09/24;00:13:06;1.012;0.023;0.158;-0.3029891550540924;0.10018189996480942;-0.1661553531885147
01:00:0A:00:00:00:00;1726359187;15/09/24;00:13:07;0.993;0.1;0.235;-0.3274237811565399;-0.15271630883216858;-0.0024434609804302454
01:00:0A:00:00:00:00;1726359188;15/09/24;00:13:08;1.021;0.0;0.043;-0.3543018400669098;-0.13561207056045532;0.013439035043120384
01:00:0A:00:00:00:00;1726359189;15/09/24;00:13:09;0.999;0.015;0.157;-0.37262779474258423;0.21502456068992615;-0.05619959905743599
01:00:0A:00:00:00:00;1726359190;15/09/24;00:13:10;0.974;-0.011;0.177;-0.4080579876899719;-0.34697145223617554;0.04642575979232788
01:00:0A:00:00:00:00;1726359191;15/09/24;00:13:11;0.973;0.047;-0.028;-0.6340781450271606;0.3799581527709961;-0.07819075137376785
01:00:0A:00:00:00:00;1726359192;15/09/24;00:13:12;0.985;-0.078;0.262;-0.5558874011039734;-0.14294245839118958;0.09162978082895279
01:00:0A:00:00:00:00;1726359193;15/09/24;00:13:13;1.035;-0.01;0.073;-0.30054569244384766;-0.08918632566928864;-0.24923302233219147
01:00:0A:00:00:00:00;1726359194;15/09/24;00:13:14;1.033;0.146;0.166;-0.41783180832862854;0.0659734457731247;0.1014036238193512
01:00:0A:00:00:00:00;1726359195;15/09/24;00:13:15;1.03;-0.19;0.079;-0.29565879702568054;-0.0659734457731247;0.10262535512447357
01:00:0A:00:00:00:00;1726359196;15/09/24;00:13:16;1.014;0.134;0.114;-0.17592918872833252;0.11850785464048386;-0.34697145223617554
01:00:0A:00:00:00:00;1726359197;15/09/24;00:13:17;0.982;-0.007;0.136;-0.33597588539123535;-0.07696902006864548;0.2370157092809677
01:00:0A:00:00:00:00;1726359198;15/09/24;00:13:18;0.966;-0.026;0.07;-0.19058994948863983;-0.06230825558304787;-0.18570303916931152
01:00:0A:00:00:00:00;1726359199;15/09/24;00:13:19;0.977;0.031;0.135;-0.2626720666885376;0.030543262138962746;0.05375614017248154
01:00:0A:00:00:00:00;1726359200;15/09/24;00:13:20;1.004;-0.05;0.145;-0.20647244155406952;-0.1661553531885147;0.006108652334660292
01:00:0A:00:00:00:00;1726359201;15/09/24;00:13:21;1.043;0.006;0.058;-0.21502456068992615;0.05375614017248154;0.0036651913542300463
01:00:0A:00:00:00:00;1726359202;15/09/24;00:13:22;1.033;0.018;0.186;-0.22479839622974396;-0.02321287989616394;0.03787364438176155
01:00:0A:00:00:00:00;1726359203;15/09/24;00:13:23;1.034;-0.002;0.08;-0.17837265133857727;-0.12828169763088226;-0.03787364438176155
01:00:0A:00:00:00:00;1726359204;15/09/24;00:13:24;1.014;0.026;0.129;-0.2076941877603531;0.06841690838336945;-0.059864792972803116
01:00:0A:00:00:00:00;1726359205;15/09/24;00:13:25;1.003;-0.019;0.173;-0.20525071024894714;-0.004886921960860491;0.02076941914856434
01:00:0A:00:00:00:00;1726359206;15/09/24;00:13:26;1.006;0.005;0.106;-0.1661553531885147;-0.059864792972803116;-0.042760565876960754
01:00:0A:00:00:00:00;1726359207;15/09/24;00:13:27;0.999;0.024;0.122;-0.21991148591041565;0.06719517707824707;0.014660765416920185
01:00:0A:00:00:00:00;1726359208;15/09/24;00:13:28;1.001;-0.003;0.155;-0.19425514340400696;-0.0659734457731247;-0.004886921960860491
01:00:0A:00:00:00:00;1726359209;15/09/24;00:13:29;1.021;0.022;0.101;-0.17348572611808777;-0.07208210229873657;-0.03420845419168472
01:00:0A:00:00:00:00;1726359210;15/09/24;00:13:30;1.03;0.012;0.117;-0.1966986060142517;0.0024434609804302454;-0.006108652334660292
01:00:0A:00:00:00:00;1726359211;15/09/24;00:13:31;1.018;-0.032;0.157;-0.14294245839118958;0.0036651913542300463;-0.040317103266716
01:00:0A:00:00:00:00;1726359212;15/09/24;00:13:32;1.005;0.004;0.12;-0.10018189996480942;-0.018325956538319588;-0.080634206533432
01:00:0A:00:00:00:00;1726359213;15/09/24;00:13:33;0.996;-0.024;0.112;-0.12828169763088226;0.039095375686883926;0.04886921867728233
01:00:0A:00:00:00:00;1726359214;15/09/24;00:13:34;1.001;-0.04;0.118;-0.05009094998240471;-0.05619959905743599;-0.04153883829712868
01:00:0A:00:00:00:00;1726359215;15/09/24;00:13:35;1.018;0.028;0.11;-0.05253440886735916;-0.09407324343919754;-0.0012217304902151227
01:00:0A:00:00:00:00;1726359216;15/09/24;00:13:36;1.026;0.026;0.1;-0.13439035415649414;-0.030543262138962746;0.07696902006864548
01:00:0A:00:00:00:00;1726359217;15/09/24;00:13:37;1.025;-0.006;0.133;-0.12339477241039276;0.019547687843441963;-0.013439035043120384
01:00:0A:00:00:00:00;1726359218;15/09/24;00:13:38;1.017;0.047;0.119;-0.12950342893600464;-0.0012217304902151227;-0.06841690838336945
01:00:0A:00:00:00:00;1726359219;15/09/24;00:13:39;1.011;0.02;0.092;-0.19547687470912933;0.0024434609804302454;0.036651913076639175
01:00:0A:00:00:00:00;1726359220;15/09/24;00:13:40;1.012;-0.001;0.11;-0.1771509200334549;0.025656338781118393;-0.05009094998240471
01:00:0A:00:00:00:00;1726359221;15/09/24;00:13:41;1.018;0.041;0.14;-0.17348572611808777;-0.03420845419168472;-0.05864306166768074
01:00:0A:00:00:00:00;1726359222;15/09/24;00:13:42;1.023;0.001;0.112;-0.2028072476387024;-0.01710422709584236;0.006108652334660292
01:00:0A:00:00:00:00;1726359223;15/09/24;00:13:43;1.007;-0.014;0.129;-0.18325956165790558;0.040317103266716;-0.028099799528717995
01:00:0A:00:00:00:00;1726359224;15/09/24;00:13:44;0.976;0.015;0.133;-0.16982054710388184;-0.040317103266716;-0.04153883829712868
01:00:0A:00:00:00:00;1726359225;15/09/24;00:13:45;0.98;0.003;0.101;-0.19547687470912933;-0.07819075137376785;0.040317103266716
01:00:0A:00:00:00:00;1726359226;15/09/24;00:13:46;1.022;0.0;0.102;-0.3042108714580536;0.08185594528913498;0.021991148591041565
01:00:0A:00:00:00:00;1726359227;15/09/24;00:13:47;1.043;-0.019;0.184;-0.23579397797584534;-0.10018189996480942;-0.05497787147760391
01:00:0A:00:00:00:00;1726359228;15/09/24;00:13:48;1.06;0.05;0.048;-0.2565633952617645;-0.05619959905743599;-0.051312677562236786
01:00:0A:00:00:00:00;1726359229;15/09/24;00:13:49;1.031;-0.02;0.185;-0.2871066629886627;0.13316862285137177;0.01710422709584236
01:00:0A:00:00:00:00;1726359230;15/09/24;00:13:50;0.985;0.032;0.068;-0.2125810980796814;-0.12828169763088226;-0.15515977144241333
01:00:0A:00:00:00:00;1726359231;15/09/24;00:13:51;0.96;0.013;0.078;-0.3176499307155609;0.0659734457731247;0.07819075137376785
01:00:0A:00:00:00:00;1726359232;15/09/24;00:13:52;0.976;-0.011;0.108;-0.22602014243602753;-0.09896016865968704;-0.12828169763088226
01:00:0A:00:00:00:00;1726359233;15/09/24;00:13:53;1.026;0.035;0.101;-0.27611109614372253;-0.03298672288656235;0.02687807008624077
01:00:0A:00:00:00:00;1726359234;15/09/24;00:13:54;1.041;-0.03;0.126;-0.26511549949645996;-0.028099799528717995;0.00855211354792118
01:00:0A:00:00:00:00;1726359235;15/09/24;00:13:55;1.033;0.017;0.119;-0.22968533635139465;-0.010995574295520782;-0.05253440886735916
01:00:0A:00:00:00:00;1726359236;15/09/24;00:13:56;1.009;0.027;0.122;-0.24434609711170197;-0.025656338781118393;-0.019547687843441963
01:00:0A:00:00:00:00;1726359237;15/09/24;00:13:57;0.994;-0.006;0.114;-0.23945917189121246;-0.04642575979232788;0.006108652334660292
01:00:0A:00:00:00:00;1726359238;15/09/24;00:13:58;1.002;0.009;0.122;-0.2223549485206604;-0.018325956538319588;-0.021991148591041565
01:00:0A:00:00:00:00;1726359239;15/09/24;00:13:59;1.024;0.025;0.145;-0.2321287840604782;-0.025656338781118393;0.021991148591041565
01:00:0A:00:00:00:00;1726359240;15/09/24;00:14:00;1.037;0.008;0.105;-0.21991148591041565;-0.004886921960860491;-0.00855211354792118
01:00:0A:00:00:00:00;1726359241;15/09/24;00:14:01;1.017;0.026;0.126;-0.20402899384498596;0.05375614017248154;-0.05864306166768074
01:00:0A:00:00:00:00;1726359242;15/09/24;00:14:02;0.998;0.007;0.102;-0.19792033731937408;-0.013439035043120384;-0.03420845419168472
01:00:0A:00:00:00:00;1726359243;15/09/24;00:14:03;0.999;0.009;0.081;-0.19547687470912933;-0.018325956538319588;-0.04153883829712868
01:00:0A:00:00:00:00;1726359244;15/09/24;00:14:04;0.998;0.011;0.107;-0.2015855312347412;-0.028099799528717995;-0.028099799528717995
01:00:0A:00:00:00:00;1726359245;15/09/24;00:14:05;1.002;0.009;0.129;-0.19547687470912933;-0.059864792972803116;-0.028099799528717995
01:00:0A:00:00:00:00;1726359246;15/09/24;00:14:06;1.018;0.006;0.122;-0.2076941877603531;-0.00855211354792118;-0.0036651913542300463
01:00:0A:00:00:00:00;1726359247;15/09/24;00:14:07;1.028;0.001;0.132;-0.2076941877603531;0.013439035043120384;0.0073303827084600925
01:00:0A:00:00:00:00;1726359248;15/09/24;00:14:08;1.027;0.007;0.117;-0.1869247555732727;-0.0036651913542300463;-0.009773843921720982
01:00:0A:00:00:00:00;1726359249;15/09/24;00:14:09;1.006;0.023;0.113;-0.18081611394882202;-0.013439035043120384;-0.02687807008624077
01:00:0A:00:00:00:00;1726359250;15/09/24;00:14:10;0.99;0.011;0.123;-0.1820378452539444;-0.0012217304902151227;-0.018325956538319588
01:00:0A:00:00:00:00;1726359251;15/09/24;00:14:11;0.991;0.0;0.116;-0.1722639948129654;-0.05864306166768074;-0.012217304669320583
01:00:0A:00:00:00:00;1726359252;15/09/24;00:14:12;1.01;0.009;0.108;-0.17959438264369965;-0.05009094998240471;0.02076941914856434
01:00:0A:00:00:00:00;1726359253;15/09/24;00:14:13;1.04;0.014;0.13;-0.18081611394882202;-0.025656338781118393;0.015882495790719986
01:00:0A:00:00:00:00;1726359254;15/09/24;00:14:14;1.052;0.019;0.144;-0.16004669666290283;-0.024434609338641167;-0.015882495790719986
01:00:0A:00:00:00:00;1726359255;15/09/24;00:14:15;1.027;0.016;0.12;-0.15393804013729095;0.006108652334660292;-0.03420845419168472
01:00:0A:00:00:00:00;1726359256;15/09/24;00:14:16;0.993;-0.007;0.124;-0.14905111491680145;0.04642575979232788;-0.00855211354792118
01:00:0A:00:00:00:00;1726359257;15/09/24;00:14:17;0.976;-0.004;0.108;-0.11972958594560623;-0.03176499158143997;-0.015882495790719986
01:00:0A:00:00:00:00;1726359258;15/09/24;00:14:18;1.008;0.019;0.1;-0.1258382350206375;-0.03787364438176155;0.025656338781118393
01:00:0A:00:00:00:00;1726359259;15/09/24;00:14:19;1.019;0.01;0.13;-0.1160643920302391;-0.03298672288656235;0.015882495790719986
01:00:0A:00:00:00:00;1726359260;15/09/24;00:14:20;1.025;0.014;0.136;-0.08796459436416626;-0.0073303827084600925;-0.03176499158143997
01:00:0A:00:00:00:00;1726359261;15/09/24;00:14:21;1.016;0.02;0.12;-0.07941248267889023;0.013439035043120384;-0.042760565876960754
01:00:0A:00:00:00:00;1726359262;15/09/24;00:14:22;0.997;-0.006;0.108;-0.08429940044879913;0.025656338781118393;0.0036651913542300463
01:00:0A:00:00:00:00;1726359263;15/09/24;00:14:23;0.995;-0.007;0.105;-0.05864306166768074;-0.024434609338641167;-0.0073303827084600925
01:00:0A:00:00:00:00;1726359264;15/09/24;00:14:24;1.015;0.013;0.116;-0.05864306166768074;-0.04764748737215996;0.024434609338641167
01:00:0A:00:00:00:00;1726359265;15/09/24;00:14:25;1.029;0.009;0.132;-0.05497787147760391;-0.024434609338641167;0.02076941914856434
01:00:0A:00:00:00:00;1726359266;15/09/24;00:14:26;1.031;0.003;0.137;-0.03787364438176155;0.0;-0.012217304669320583
01:00:0A:00:00:00:00;1726359267;15/09/24;00:14:27;1.016;0.019;0.13;-0.036651913076639175;0.03787364438176155;-0.02687807008624077
01:00:0A:00:00:00:00;1726359268;15/09/24;00:14:28;1.002;0.006;0.112;-0.04642575979232788;0.02076941914856434;0.004886921960860491
01:00:0A:00:00:00:00;1726359269;15/09/24;00:14:29;0.985;0.002;0.101;-0.03298672288656235;-0.03787364438176155;-0.010995574295520782
01:00:0A:00:00:00:00;1726359270;15/09/24;00:14:30;0.988;0.011;0.107;-0.036651913076639175;-0.04642575979232788;-0.00855211354792118
01:00:0A:00:00:00:00;1726359271;15/09/24;00:14:31;1.006;0.003;0.125;-0.05009094998240471;-0.04764748737215996;0.02932153083384037
01:00:0A:00:00:00:00;1726359272;15/09/24;00:14:32;1.021;-0.002;0.131;-0.0354301817715168;-0.018325956538319588;0.0036651913542300463
01:00:0A:00:00:00:00;1726359273;15/09/24;00:14:33;1.039;0.021;0.129;-0.03176499158143997;0.00855211354792118;-0.006108652334660292
01:00:0A:00:00:00:00;1726359274;15/09/24;00:14:34;1.048;0.014;0.124;-0.03787364438176155;-0.0024434609804302454;0.00855211354792118
01:00:0A:00:00:00:00;1726359275;15/09/24;00:14:35;1.02;0.005;0.117;-0.02932153083384037;0.010995574295520782;-0.01710422709584236
01:00:0A:00:00:00:00;1726359276;15/09/24;00:14:36;0.975;0.019;0.112;-0.025656338781118393;0.0;-0.04398229718208313
01:00:0A:00:00:00:00;1726359277;15/09/24;00:14:37;0.965;0.009;0.112;-0.051312677562236786;-0.03787364438176155;0.028099799528717995
01:00:0A:00:00:00:00;1726359278;15/09/24;00:14:38;0.999;-0.001;0.109;-0.04153883829712868;-0.04642575979232788;-0.013439035043120384
01:00:0A:00:00:00:00;1726359279;15/09/24;00:14:39;1.028;0.02;0.121;-0.04886921867728233;-0.04398229718208313;0.010995574295520782
01:00:0A:00:00:00:00;1726359280;15/09/24;00:14:40;1.045;0.007;0.137;-0.05253440886735916;-0.01710422709584236;-0.0012217304902151227
01:00:0A:00:00:00:00;1726359281;15/09/24;00:14:41;1.041;0.004;0.126;-0.05375614017248154;0.02321287989616394;-0.015882495790719986
01:00:0A:00:00:00:00;1726359282;15/09/24;00:14:42;1.015;0.019;0.117;-0.06352998316287994;0.04886921867728233;-0.015882495790719986
01:00:0A:00:00:00:00;1726359283;15/09/24;00:14:43;0.999;0.017;0.107;-0.06841690838336945;-0.0036651913542300463;0.0012217304902151227
01:00:0A:00:00:00:00;1726359284;15/09/24;00:14:44;0.987;0.014;0.104;-0.06108652427792549;-0.03176499158143997;-0.025656338781118393
01:00:0A:00:00:00:00;1726359285;15/09/24;00:14:45;0.995;0.01;0.121;-0.06719517707824707;-0.024434609338641167;-0.024434609338641167
01:00:0A:00:00:00:00;1726359286;15/09/24;00:14:46;1.004;0.004;0.128;-0.07208210229873657;-0.051312677562236786;0.0012217304902151227
01:00:0A:00:00:00:00;1726359287;15/09/24;00:14:47;1.018;0.003;0.122;-0.07819075137376785;-0.02321287989616394;0.021991148591041565
01:00:0A:00:00:00:00;1726359288;15/09/24;00:14:48;1.028;0.018;0.133;-0.07819075137376785;0.0036651913542300463;0.010995574295520782
01:00:0A:00:00:00:00;1726359289;15/09/24;00:14:49;1.033;0.022;0.131;-0.06719517707824707;0.0024434609804302454;-0.01710422709584236
01:00:0A:00:00:00:00;1726359290;15/09/24;00:14:50;1.019;0.014;0.115;-0.05864306166768074;0.009773843921720982;-0.03420845419168472
01:00:0A:00:00:00:00;1726359291;15/09/24;00:14:51;0.999;0.004;0.119;-0.05619959905743599;0.025656338781118393;-0.028099799528717995
01:00:0A:00:00:00:00;1726359292;15/09/24;00:14:52;0.993;0.0;0.125;-0.04642575979232788;-0.028099799528717995;-0.0024434609804302454
01:00:0A:00:00:00:00;1726359293;15/09/24;00:14:53;1.003;0.005;0.108;-0.04764748737215996;-0.04153883829712868;0.02076941914856434
01:00:0A:00:00:00:00;1726359294;15/09/24;00:14:54;1.016;0.014;0.122;-0.04764748737215996;-0.015882495790719986;0.010995574295520782
01:00:0A:00:00:00:00;1726359295;15/09/24;00:14:55;1.023;0.017;0.14;-0.0354301817715168;-0.03176499158143997;-0.00855211354792118
01:00:0A:00:00:00:00;1726359296;15/09/24;00:14:56;1.016;0.01;0.118;-0.03420845419168472;-0.015882495790719986;-0.02076941914856434
01:00:0A:00:00:00:00;1726359297;15/09/24;00:14:57;0.999;-0.002;0.127;-0.042760565876960754;0.02932153083384037;-0.004886921960860491
01:00:0A:00:00:00:00;1726359298;15/09/24;00:14:58;1.001;-0.002;0.128;-0.030543262138962746;-0.025656338781118393;0.014660765416920185
01:00:0A:00:00:00:00;1726359299;15/09/24;00:14:59;1.016;0.013;0.118;-0.02932153083384037;-0.03176499158143997;0.015882495790719986
01:00:0A:00:00:00:00;1726359300;15/09/24;00:15:00;1.032;0.015;0.128;-0.03420845419168472;0.004886921960860491;0.0073303827084600925
01:00:0A:00:00:00:00;1726359301;15/09/24;00:15:01;1.027;0.01;0.137;-0.019547687843441963;-0.0024434609804302454;-0.009773843921720982
01:00:0A:00:00:00:00;1726359302;15/09/24;00:15:02;1.011;0.015;0.112;-0.014660765416920185;-0.010995574295520782;-0.024434609338641167
01:00:0A:00:00:00:00;1726359303;15/09/24;00:15:03;1.003;0.002;0.115;-0.02932153083384037;0.004886921960860491;0.010995574295520782
01:00:0A:00:00:00:00;1726359304;15/09/24;00:15:04;1.012;0.0;0.128;-0.018325956538319588;-0.019547687843441963;0.014660765416920185
01:00:0A:00:00:00:00;1726359305;15/09/24;00:15:05;1.021;0.02;0.113;-0.014660765416920185;-0.021991148591041565;0.0036651913542300463
