Source;Epoch timestamp (UTC);Date;Time (UTC);Accel X (G);Accel Y (G);Accel Z (G);Gyro X (rad/s);Gyro Y (rad/s);Gyro Z (rad/s)
01:00:0A:00:00:00:00;1723075200;08/08/24;00:00:00;1.025;0.079;-0.023;0.5852089524269104;-0.08185594528913498;-0.2565633952617645
01:00:0A:00:00:00:00;1723075201;08/08/24;00:00:01;0.993;0.078;0.067;0.5742133259773254;0.17959438264369965;-0.02321287989616394
01:00:0A:00:00:00:00;1723075202;08/08/24;00:00:02;0.971;-0.002;-0.038;0.5473352670669556;-0.11972958594560623;0.27611109614372253
01:00:0A:00:00:00:00;1723075203;08/08/24;00:00:03;0.981;-0.122;0.065;0.7990117073059082;0.25045475363731384;-0.2638937830924988
01:00:0A:00:00:00:00;1723075204;08/08/24;00:00:04;0.981;0.181;0.299;0.6047565937042236;-0.04764748737215996;0.3591887652873993
01:00:0A:00:00:00:00;1723075205;08/08/24;00:00:05;1.038;-0.271;0.076;0.6108652353286743;-0.4190535545349121;0.13561207056045532
01:00:0A:00:00:00:00;1723075206;08/08/24;00:00:06;1.062;-0.02;0.052;0.7916813492774963;0.030543262138962746;-0.11239919811487198
01:00:0A:00:00:00:00;1723075207;08/08/24;00:00:07;0.998;-0.091;0.211;0.7709119319915771;0.02076941914856434;0.11972958594560623
01:00:0A:00:00:00:00;1723075208;08/08/24;00:00:08;0.973;0.033;-0.126;0.846659243106842;-0.3494149148464203;-0.4300491213798523
01:00:0A:00:00:00:00;1723075209;08/08/24;00:00:09;0.944;0.148;-0.111;1.0189231634140015;0.6609562039375305;-0.5094615817070007
01:00:0A:00:00:00:00;1723075210;08/08/24;00:00:10;0.935;0.266;0.173;0.7916813492774963;0.8710938096046448;0.39095374941825867
01:00:0A:00:00:00:00;1723075211;08/08/24;00:00:11;0.894;0.067;0.495;0.44226640462875366;-0.045204028487205505;0.7367035150527954
01:00:0A:00:00:00:00;1723075212;08/08/24;00:00:12;0.985;-0.267;0.172;0.4642575681209564;-0.6023131012916565;0.13561207056045532
01:00:0A:00:00:00:00;1723075213;08/08/24;00:00:13;1.008;-0.209;0.008;0.7452555894851685;-0.2773328125476837;-0.2724458873271942
01:00:0A:00:00:00:00;1723075214;08/08/24;00:00:14;0.962;0.138;-0.169;1.0213667154312134;0.013439035043120384;-1.0005972385406494
01:00:0A:00:00:00:00;1723075215;08/08/24;00:00:15;0.88;0.362;-0.078;1.0030406713485718;1.193630576133728;-0.2223549485206604
01:00:0A:00:00:00:00;1723075216;08/08/24;00:00:16;0.948;-0.009;0.371;0.8161159753799438;0.21502456068992615;1.0726792812347412
01:00:0A:00:00:00:00;1723075217;08/08/24;00:00:17;0.966;-0.176;0.342;0.9040805697441101;-0.7134906053543091;0.18325956165790558
01:00:0A:00:00:00:00;1723075218;08/08/24;00:00:18;1.014;-0.15;-0.142;1.1313223838806152;-0.43860122561454773;-0.14294245839118958
01:00:0A:00:00:00:00;1723075219;08/08/24;00:00:19;1.001;-0.196;-0.052;1.5015066862106323;-0.3066543638706207;-0.7195992469787598
01:00:0A:00:00:00:00;1723075220;08/08/24;00:00:20;1.001;0.153;0.054;1.3695597648620605;0.5803219676017761;-0.21380282938480377
01:00:0A:00:00:00:00;1723075221;08/08/24;00:00:21;1.004;0.107;-0.058;1.282817006111145;0.26145032048225403;0.17959438264369965
01:00:0A:00:00:00:00;1723075222;08/08/24;00:00:22;1.012;0.073;0.128;1.253495454788208;0.26022857427597046;0.06475171446800232
01:00:0A:00:00:00:00;1723075223;08/08/24;00:00:23;0.967;0.268;0.231;0.9578366875648499;0.41661006212234497;0.2590068578720093
01:00:0A:00:00:00:00;1723075224;08/08/24;00:00:24;0.917;-0.009;0.463;0.5436700582504272;0.10384709388017654;0.9871581792831421
01:00:0A:00:00:00:00;1723075225;08/08/24;00:00:25;0.838;-0.474;0.306;0.49235740303993225;-1.0201449394226074;0.5229006409645081
01:00:0A:00:00:00:00;1723075226;08/08/24;00:00:26;0.876;-0.431;-0.284;0.9822713136672974;-1.036027431488037;-0.6218608021736145
01:00:0A:00:00:00:00;1723075227;08/08/24;00:00:27;0.972;0.218;-0.155;1.6798794269561768;0.5681046843528748;-0.6230825185775757
01:00:0A:00:00:00:00;1723075228;08/08/24;00:00:28;0.968;0.281;0.205;1.3243558406829834;0.656069278717041;0.375071257352829
01:00:0A:00:00:00:00;1723075229;08/08/24;00:00:29;0.955;0.086;0.414;0.9969320893287659;-0.06230825558304787;0.5693264007568359
01:00:0A:00:00:00:00;1723075230;08/08/24;00:00:30;1.017;-0.252;-0.06;1.036027431488037;-0.5461135506629944;-0.019547687843441963
01:00:0A:00:00:00:00;1723075231;08/08/24;00:00:31;1.018;-0.051;-0.036;1.253495454788208;0.23335053026676178;-0.44104471802711487
01:00:0A:00:00:00:00;1723075232;08/08/24;00:00:32;0.951;0.202;0.219;1.0983357429504395;0.32009339332580566;0.05009094998240471
01:00:0A:00:00:00:00;1723075233;08/08/24;00:00:33;1.01;0.013;0.138;0.8356636166572571;-0.28588491678237915;0.3799581527709961
01:00:0A:00:00:00:00;1723075234;08/08/24;00:00:34;1.013;-0.238;-0.067;0.9749408960342407;-0.2028072476387024;-0.0757472887635231
01:00:0A:00:00:00:00;1723075235;08/08/24;00:00:35;1.051;-0.059;0.099;1.0091493129730225;0.02076941914856434;-0.07819075137376785
01:00:0A:00:00:00:00;1723075236;08/08/24;00:00:36;1.032;0.091;0.036;0.919963002204895;0.012217304669320583;-0.05742133408784866
01:00:0A:00:00:00:00;1723075237;08/08/24;00:00:37;1.005;-0.039;0.123;0.8234463334083557;0.13805554807186127;0.13805554807186127
01:00:0A:00:00:00:00;1723075238;08/08/24;00:00:38;0.955;-0.04;0.049;0.76846843957901;-0.16004669666290283;0.06108652427792549
01:00:0A:00:00:00:00;1723075239;08/08/24;00:00:39;0.959;-0.047;0.081;0.8051203489303589;0.2015855312347412;-0.15271630883216858
01:00:0A:00:00:00:00;1723075240;08/08/24;00:00:40;1.006;0.009;0.136;0.6670648455619812;-0.036651913076639175;0.19303341209888458
01:00:0A:00:00:00:00;1723075241;08/08/24;00:00:41;1.039;-0.129;0.111;0.6389650106430054;-0.006108652334660292;0.02076941914856434
01:00:0A:00:00:00:00;1723075242;08/08/24;00:00:42;1.039;0.012;0.03;0.5998696088790894;-0.0757472887635231;-0.04764748737215996
01:00:0A:00:00:00:00;1723075243;08/08/24;00:00:43;0.986;-0.031;0.088;0.5448917746543884;0.07208210229873657;0.1869247555732727
01:00:0A:00:00:00:00;1723075244;08/08/24;00:00:44;0.944;-0.01;0.096;0.49357908964157104;-0.07330382615327835;0.06475171446800232
01:00:0A:00:00:00:00;1723075245;08/08/24;00:00:45;0.986;-0.021;0.076;0.46181410551071167;0.06841690838336945;0.045204028487205505
01:00:0A:00:00:00:00;1723075246;08/08/24;00:00:46;1.034;-0.031;0.138;0.4031710624694824;-0.08796459436416626;0.0073303827084600925
01:00:0A:00:00:00:00;1723075247;08/08/24;00:00:47;1.099;-0.015;0.007;0.3995058536529541;0.1820378452539444;0.04764748737215996
01:00:0A:00:00:00:00;1723075248;08/08/24;00:00:48;1.073;-0.002;0.243;0.3298672139644623;0.08429940044879913;0.045204028487205505
01:00:0A:00:00:00:00;1723075249;08/08/24;00:00:49;1.018;-0.143;-0.201;0.32131510972976685;-0.44104471802711487;0.1820378452539444
01:00:0A:00:00:00:00;1723075250;08/08/24;00:00:50;0.961;0.056;0.23;0.4288274049758911;0.5607742667198181;-0.24556782841682434
01:00:0A:00:00:00:00;1723075251;08/08/24;00:00:51;0.97;-0.036;0.081;0.1417207270860672;-0.4593706727027893;0.43737950921058655
01:00:0A:00:00:00:00;1723075252;08/08/24;00:00:52;0.94;-0.055;0.059;0.32620203495025635;0.27611109614372253;-0.3579670488834381
01:00:0A:00:00:00:00;1723075253;08/08/24;00:00:53;0.951;0.033;0.124;0.18570303916931152;-0.161268413066864;0.1563815027475357
01:00:0A:00:00:00:00;1723075254;08/08/24;00:00:54;1.016;-0.09;0.082;0.20647244155406952;0.06230825558304787;-0.04886921867728233
01:00:0A:00:00:00:00;1723075255;08/08/24;00:00:55;1.044;0.0;0.151;0.16371189057826996;-0.0659734457731247;0.06230825558304787
01:00:0A:00:00:00:00;1723075256;08/08/24;00:00:56;1.076;-0.036;0.021;0.17837265133857727;0.05742133408784866;0.09040805697441101
01:00:0A:00:00:00:00;1723075257;08/08/24;00:00:57;1.048;0.012;0.147;0.18081611394882202;0.07452555745840073;0.0
01:00:0A:00:00:00:00;1723075258;08/08/24;00:00:58;1.015;0.014;0.01;0.1563815027475357;-0.16004669666290283;-0.030543262138962746
01:00:0A:00:00:00:00;1723075259;08/08/24;00:00:59;0.994;-0.016;0.113;0.17348572611808777;0.12828169763088226;0.0073303827084600925
01:00:0A:00:00:00:00;1723075260;08/08/24;00:01:00;1.002;-0.009;0.156;0.1062905490398407;-0.10995574295520782;-0.028099799528717995
01:00:0A:00:00:00:00;1723075261;08/08/24;00:01:01;1.007;0.009;0.045;0.07208210229873657;-0.09040805697441101;-0.02687807008624077
01:00:0A:00:00:00:00;1723075262;08/08/24;00:01:02;0.99;0.008;0.084;0.06230825558304787;0.07941248267889023;0.004886921960860491
01:00:0A:00:00:00:00;1723075263;08/08/24;00:01:03;0.983;-0.005;0.116;0.004886921960860491;-0.13927726447582245;0.01710422709584236
01:00:0A:00:00:00:00;1723075264;08/08/24;00:01:04;1.002;0.006;0.057;-0.004886921960860491;-0.024434609338641167;0.00855211354792118
01:00:0A:00:00:00:00;1723075265;08/08/24;00:01:05;1.024;0.017;0.099;-0.024434609338641167;0.05375614017248154;0.03176499158143997
01:00:0A:00:00:00:00;1723075266;08/08/24;00:01:06;1.026;-0.001;0.08;-0.05619959905743599;-0.06475171446800232;0.00855211354792118
01:00:0A:00:00:00:00;1723075267;08/08/24;00:01:07;1.021;0.01;0.0;-0.0354301817715168;-0.05375614017248154;-0.0036651913542300463
01:00:0A:00:00:00:00;1723075268;08/08/24;00:01:08;1.028;0.005;0.052;-0.012217304669320583;0.02321287989616394;0.0012217304902151227
01:00:0A:00:00:00:00;1723075269;08/08/24;00:01:09;1.027;0.0;0.084;-0.02687807008624077;-0.06963863223791122;0.028099799528717995
01:00:0A:00:00:00:00;1723075270;08/08/24;00:01:10;1.02;0.0;0.014;0.0;-0.02321287989616394;0.02687807008624077
01:00:0A:00:00:00:00;1723075271;08/08/24;00:01:11;1.006;0.014;0.061;0.02687807008624077;0.14294245839118958;-0.0024434609804302454
01:00:0A:00:00:00:00;1723075272;08/08/24;00:01:12;0.995;0.026;0.063;-0.018325956538319588;-0.018325956538319588;0.0073303827084600925
01:00:0A:00:00:00:00;1723075273;08/08/24;00:01:13;1.0;0.005;0.022;-0.021991148591041565;-0.036651913076639175;0.0012217304902151227
01:00:0A:00:00:00:00;1723075274;08/08/24;00:01:14;1.025;-0.006;0.062;-0.004886921960860491;-0.03420845419168472;-0.05864306166768074
01:00:0A:00:00:00:00;1723075275;08/08/24;00:01:15;1.037;-0.003;0.104;-0.02321287989616394;-0.1062905490398407;-0.028099799528717995
01:00:0A:00:00:00:00;1723075276;08/08/24;00:01:16;1.026;-0.029;0.053;-0.0073303827084600925;-0.03787364438176155;0.040317103266716
01:00:0A:00:00:00:00;1723075277;08/08/24;00:01:17;0.989;-0.032;0.103;0.02076941914856434;0.14294245839118958;0.06841690838336945
01:00:0A:00:00:00:00;1723075278;08/08/24;00:01:18;0.977;-0.012;0.088;0.004886921960860491;-0.03176499158143997;0.015882495790719986
01:00:0A:00:00:00:00;1723075279;08/08/24;00:01:19;1.001;0.002;0.048;0.004886921960860491;0.0354301817715168;0.01710422709584236
01:00:0A:00:00:00:00;1723075280;08/08/24;00:01:20;1.029;-0.016;0.092;-0.004886921960860491;-0.045204028487205505;-0.03420845419168472
01:00:0A:00:00:00:00;1723075281;08/08/24;00:01:21;1.06;-0.016;0.08;-0.018325956538319588;-0.05375614017248154;-0.025656338781118393
01:00:0A:00:00:00:00;1723075282;08/08/24;00:01:22;1.056;-0.03;0.092;-0.019547687843441963;-0.015882495790719986;0.018325956538319588
01:00:0A:00:00:00:00;1723075283;08/08/24;00:01:23;1.011;-0.026;0.101;-0.025656338781118393;-0.010995574295520782;0.028099799528717995
01:00:0A:00:00:00:00;1723075284;08/08/24;00:01:24;0.985;-0.01;0.08;-0.036651913076639175;-0.036651913076639175;0.021991148591041565
01:00:0A:00:00:00:00;1723075285;08/08/24;00:01:25;0.987;-0.012;0.091;-0.040317103266716;-0.0024434609804302454;0.030543262138962746
01:00:0A:00:00:00:00;1723075286;08/08/24;00:01:26;1.015;-0.029;0.1;-0.03787364438176155;-0.021991148591041565;-0.02076941914856434
01:00:0A:00:00:00:00;1723075287;08/08/24;00:01:27;1.026;-0.017;0.087;-0.0354301817715168;-0.0024434609804302454;-0.04398229718208313
01:00:0A:00:00:00:00;1723075288;08/08/24;00:01:28;1.02;-0.016;0.081;-0.045204028487205505;0.004886921960860491;0.01710422709584236
01:00:0A:00:00:00:00;1723075289;08/08/24;00:01:29;1.01;-0.035;0.077;-0.04153883829712868;-0.014660765416920185;0.015882495790719986
01:00:0A:00:00:00:00;1723075289;08/08/24;00:01:29;1.016;-0.018;0.082;-0.025656338781118393;0.00855211354792118;-0.030543262138962746
01:00:0A:00:00:00:00;1723075290;08/08/24;00:01:30;1.032;-0.011;0.097;-0.036651913076639175;-0.0024434609804302454;0.0036651913542300463
01:00:0A:00:00:00:00;1723075291;08/08/24;00:01:31;1.041;-0.051;0.076;-0.036651913076639175;-0.006108652334660292;-0.0024434609804302454
01:00:0A:00:00:00:00;1723075292;08/08/24;00:01:32;1.023;-0.019;0.083;-0.0354301817715168;0.00855211354792118;-0.021991148591041565
01:00:0A:00:00:00:00;1723075293;08/08/24;00:01:33;0.989;-0.017;0.079;-0.051312677562236786;-0.03420845419168472;0.03298672288656235
01:00:0A:00:00:00:00;1723075294;08/08/24;00:01:34;0.979;-0.013;0.081;-0.042760565876960754;-0.02076941914856434;-0.025656338781118393
01:00:0A:00:00:00:00;1723075295;08/08/24;00:01:35;0.994;0.0;0.088;-0.039095375686883926;-0.014660765416920185;-0.03787364438176155
01:00:0A:00:00:00:00;1723075296;08/08/24;00:01:36;1.024;-0.013;0.089;-0.04398229718208313;-0.02321287989616394;-0.028099799528717995
01:00:0A:00:00:00:00;1723075297;08/08/24;00:01:37;1.029;-0.033;0.085;-0.04398229718208313;-0.0024434609804302454;-0.03298672288656235
01:00:0A:00:00:00:00;1723075298;08/08/24;00:01:38;1.033;-0.026;0.089;-0.045204028487205505;0.0012217304902151227;-0.00855211354792118
01:00:0A:00:00:00:00;1723075299;08/08/24;00:01:39;1.041;-0.027;0.08;-0.04886921867728233;-0.01710422709584236;0.014660765416920185
01:00:0A:00:00:00:00;1723075300;08/08/24;00:01:40;1.038;-0.033;0.079;-0.042760565876960754;-0.018325956538319588;0.014660765416920185
01:00:0A:00:00:00:00;1723075301;08/08/24;00:01:41;1.009;-0.026;0.086;-0.04153883829712868;-0.0036651913542300463;0.014660765416920185
01:00:0A:00:00:00:00;1723075302;08/08/24;00:01:42;0.98;-0.034;0.072;-0.05009094998240471;-0.05497787147760391;0.045204028487205505
01:00:0A:00:00:00:00;1723075303;08/08/24;00:01:43;0.962;-0.019;0.077;-0.03787364438176155;-0.02076941914856434;0.009773843921720982
01:00:0A:00:00:00:00;1723075304;08/08/24;00:01:44;0.979;-0.004;0.084;-0.039095375686883926;-0.051312677562236786;0.01710422709584236
01:00:0A:00:00:00:00;1723075305;08/08/24;00:01:45;1.033;-0.008;0.085;-0.030543262138962746;0.0012217304902151227;-0.0354301817715168
01:00:0A:00:00:00:00;1723075306;08/08/24;00:01:46;1.052;-0.006;0.1;-0.03787364438176155;0.009773843921720982;-0.05253440886735916
01:00:0A:00:00:00:00;1723075307;08/08/24;00:01:47;1.055;-0.033;0.08;-0.04886921867728233;0.009773843921720982;-0.009773843921720982
01:00:0A:00:00:00:00;1723075308;08/08/24;00:01:48;1.037;-0.035;0.076;-0.05375614017248154;0.0036651913542300463;0.021991148591041565
01:00:0A:00:00:00:00;1723075309;08/08/24;00:01:49;0.994;-0.014;0.082;-0.0659734457731247;-0.0036651913542300463;0.04886921867728233
01:00:0A:00:00:00:00;1723075310;08/08/24;00:01:50;0.976;0.008;0.09;-0.0757472887635231;-0.02321287989616394;0.02932153083384037
01:00:0A:00:00:00:00;1723075311;08/08/24;00:01:51;0.983;0.012;0.096;-0.080634206533432;0.009773843921720982;-0.012217304669320583
01:00:0A:00:00:00:00;1723075312;08/08/24;00:01:52;1.01;0.005;0.094;-0.09040805697441101;0.03298672288656235;-0.040317103266716
01:00:0A:00:00:00:00;1723075313;08/08/24;00:01:53;1.027;-0.014;0.089;-0.10262535512447357;0.02687807008624077;-0.05253440886735916
01:00:0A:00:00:00:00;1723075314;08/08/24;00:01:54;1.044;-0.026;0.064;-0.11484266817569733;-0.015882495790719986;-0.03420845419168472
01:00:0A:00:00:00:00;1723075315;08/08/24;00:01:55;1.04;-0.022;0.073;-0.1270599663257599;-0.04398229718208313;-0.0024434609804302454
01:00:0A:00:00:00:00;1723075316;08/08/24;00:01:56;1.007;-0.026;0.092;-0.13439035415649414;-0.05253440886735916;0.013439035043120384
01:00:0A:00:00:00:00;1723075317;08/08/24;00:01:57;0.984;-0.015;0.102;-0.13072516024112701;-0.018325956538319588;-0.024434609338641167
01:00:0A:00:00:00:00;1723075318;08/08/24;00:01:58;0.992;-0.018;0.097;-0.13805554807186127;-0.0073303827084600925;0.00855211354792118
01:00:0A:00:00:00:00;1723075319;08/08/24;00:01:59;1.031;-0.035;0.087;-0.13439035415649414;0.006108652334660292;-0.013439035043120384
01:00:0A:00:00:00:00;1723075320;08/08/24;00:02:00;1.05;-0.013;0.081;-0.13561207056045532;-0.0012217304902151227;0.006108652334660292
01:00:0A:00:00:00:00;1723075321;08/08/24;00:02:01;1.037;-0.018;0.082;-0.1417207270860672;-0.012217304669320583;0.030543262138962746
01:00:0A:00:00:00:00;1723075322;08/08/24;00:02:02;1.009;-0.023;0.079;-0.1368338167667389;-0.013439035043120384;0.01710422709584236
01:00:0A:00:00:00:00;1723075323;08/08/24;00:02:03;0.976;-0.012;0.081;-0.12950342893600464;0.0024434609804302454;-0.009773843921720982
01:00:0A:00:00:00:00;1723075324;08/08/24;00:02:04;0.985;-0.016;0.081;-0.1368338167667389;-0.019547687843441963;0.01710422709584236
01:00:0A:00:00:00:00;1723075325;08/08/24;00:02:05;1.019;-0.021;0.081;-0.1258382350206375;-0.015882495790719986;-0.0354301817715168
01:00:0A:00:00:00:00;1723075326;08/08/24;00:02:06;1.035;-0.014;0.099;-0.12828169763088226;0.012217304669320583;-0.0024434609804302454
01:00:0A:00:00:00:00;1723075327;08/08/24;00:02:07;1.026;-0.028;0.086;-0.13439035415649414;-0.0012217304902151227;0.042760565876960754
01:00:0A:00:00:00:00;1723075328;08/08/24;00:02:08;1.003;-0.01;0.07;-0.1258382350206375;0.0012217304902151227;0.018325956538319588
01:00:0A:00:00:00:00;1723075329;08/08/24;00:02:09;0.992;0.003;0.081;-0.12339477241039276;-0.009773843921720982;0.010995574295520782
01:00:0A:00:00:00:00;1723075330;08/08/24;00:02:10;1.007;-0.001;0.086;-0.12217304855585098;-0.04398229718208313;-0.030543262138962746
01:00:0A:00:00:00:00;1723075331;08/08/24;00:02:11;1.025;-0.01;0.079;-0.10995574295520782;-0.0036651913542300463;-0.06963863223791122
01:00:0A:00:00:00:00;1723075332;08/08/24;00:02:12;1.035;-0.028;0.093;-0.11239919811487198;0.010995574295520782;-0.0354301817715168
01:00:0A:00:00:00:00;1723075333;08/08/24;00:02:13;1.026;-0.038;0.076;-0.11850785464048386;-0.014660765416920185;-0.00855211354792118
01:00:0A:00:00:00:00;1723075334;08/08/24;00:02:14;1.009;-0.027;0.063;-0.1160643920302391;-0.025656338781118393;0.03298672288656235
01:00:0A:00:00:00:00;1723075335;08/08/24;00:02:15;1.004;-0.011;0.089;-0.11362093687057495;-0.02932153083384037;0.025656338781118393
01:00:0A:00:00:00:00;1723075336;08/08/24;00:02:16;1.009;-0.012;0.089;-0.10995574295520782;-0.040317103266716;-0.004886921960860491
01:00:0A:00:00:00:00;1723075337;08/08/24;00:02:17;1.016;-0.013;0.084;-0.10262535512447357;0.0073303827084600925;-0.004886921960860491
01:00:0A:00:00:00:00;1723075338;08/08/24;00:02:18;1.014;-0.022;0.087;-0.09896016865968704;0.010995574295520782;0.0024434609804302454
01:00:0A:00:00:00:00;1723075339;08/08/24;00:02:19;1.01;-0.013;0.069;-0.09407324343919754;-0.02687807008624077;-0.012217304669320583
01:00:0A:00:00:00:00;1723075340;08/08/24;00:02:20;1.01;-0.006;0.074;-0.08918632566928864;-0.018325956538319588;-0.0036651913542300463
01:00:0A:00:00:00:00;1723075341;08/08/24;00:02:21;1.018;-0.022;0.095;-0.08429940044879913;-0.03298672288656235;-0.019547687843441963
01:00:0A:00:00:00:00;1723075342;08/08/24;00:02:22;1.023;-0.021;0.084;-0.07330382615327835;-0.019547687843441963;-0.03420845419168472
01:00:0A:00:00:00:00;1723075343;08/08/24;00:02:23;1.012;-0.024;0.079;-0.06719517707824707;0.02076941914856434;0.01710422709584236
01:00:0A:00:00:00:00;1723075344;08/08/24;00:02:24;1.001;-0.024;0.069;-0.06230825558304787;-0.00855211354792118;0.02932153083384037
01:00:0A:00:00:00:00;1723075345;08/08/24;00:02:25;1.007;-0.01;0.058;-0.05253440886735916;-0.03298672288656235;0.0036651913542300463
01:00:0A:00:00:00:00;1723075346;08/08/24;00:02:26;1.034;-0.004;0.073;-0.04764748737215996;-0.03420845419168472;0.01710422709584236
01:00:0A:00:00:00:00;1723075347;08/08/24;00:02:27;1.049;-0.019;0.097;-0.042760565876960754;-0.03176499158143997;0.0
01:00:0A:00:00:00:00;1723075348;08/08/24;00:02:28;1.029;-0.001;0.087;-0.039095375686883926;-0.009773843921720982;-0.019547687843441963
01:00:0A:00:00:00:00;1723075349;08/08/24;00:02:29;1.001;-0.015;0.085;-0.039095375686883926;0.03176499158143997;0.025656338781118393
01:00:0A:00:00:00:00;1723075350;08/08/24;00:02:30;0.965;-0.017;0.069;-0.03298672288656235;0.0012217304902151227;-0.03420845419168472
01:00:0A:00:00:00:00;1723075351;08/08/24;00:02:31;0.98;-0.01;0.056;-0.03298672288656235;0.0012217304902151227;-0.019547687843441963
01:00:0A:00:00:00:00;1723075352;08/08/24;00:02:32;1.032;-0.019;0.068;-0.0354301817715168;-0.03298672288656235;-0.014660765416920185
01:00:0A:00:00:00:00;1723075353;08/08/24;00:02:33;1.055;-0.026;0.087;-0.040317103266716;-0.019547687843441963;-0.0024434609804302454
01:00:0A:00:00:00:00;1723075354;08/08/24;00:02:34;1.039;-0.011;0.084;-0.04886921867728233;-0.0012217304902151227;0.004886921960860491
01:00:0A:00:00:00:00;1723075355;08/08/24;00:02:35;0.989;-0.017;0.076;-0.05619959905743599;0.015882495790719986;0.036651913076639175
01:00:0A:00:00:00:00;1723075356;08/08/24;00:02:36;0.973;-0.008;0.069;-0.05619959905743599;0.004886921960860491;-0.009773843921720982
01:00:0A:00:00:00:00;1723075357;08/08/24;00:02:37;1.0;0.0;0.067;-0.06963863223791122;-0.02932153083384037;0.01710422709584236
01:00:0A:00:00:00:00;1723075358;08/08/24;00:02:38;1.031;-0.02;0.075;-0.06841690838336945;-0.040317103266716;-0.018325956538319588
01:00:0A:00:00:00:00;1723075359;08/08/24;00:02:39;1.052;-0.01;0.092;-0.06719517707824707;-0.02687807008624077;-0.015882495790719986
01:00:0A:00:00:00:00;1723075360;08/08/24;00:02:40;1.045;-0.02;0.095;-0.0708603635430336;-0.0073303827084600925;0.0036651913542300463
01:00:0A:00:00:00:00;1723075361;08/08/24;00:02:41;1.006;-0.023;0.086;-0.06963863223791122;0.013439035043120384;0.02321287989616394
01:00:0A:00:00:00:00;1723075362;08/08/24;00:02:42;0.984;-0.007;0.081;-0.06841690838336945;0.010995574295520782;0.0
01:00:0A:00:00:00:00;1723075363;08/08/24;00:02:43;0.991;-0.009;0.079;-0.0757472887635231;-0.01710422709584236;0.00855211354792118
01:00:0A:00:00:00:00;1723075364;08/08/24;00:02:44;1.013;-0.022;0.077;-0.0708603635430336;-0.01710422709584236;-0.02321287989616394
01:00:0A:00:00:00:00;1723075365;08/08/24;00:02:45;1.026;-0.021;0.089;-0.07452555745840073;-0.012217304669320583;-0.009773843921720982
01:00:0A:00:00:00:00;1723075366;08/08/24;00:02:46;1.033;-0.023;0.088;-0.08429940044879913;-0.00855211354792118;0.02321287989616394
01:00:0A:00:00:00:00;1723075367;08/08/24;00:02:47;1.031;-0.018;0.076;-0.08429940044879913;-0.00855211354792118;0.028099799528717995
01:00:0A:00:00:00:00;1723075368;08/08/24;00:02:48;1.014;-0.003;0.082;-0.08185594528913498;-0.010995574295520782;-0.0012217304902151227
01:00:0A:00:00:00:00;1723075369;08/08/24;00:02:49;0.994;-0.001;0.087;-0.08429940044879913;-0.018325956538319588;-0.021991148591041565
01:00:0A:00:00:00:00;1723075370;08/08/24;00:02:50;0.986;-0.014;0.086;-0.08429940044879913;-0.018325956538319588;-0.03176499158143997
01:00:0A:00:00:00:00;1723075371;08/08/24;00:02:51;1.005;-0.026;0.09;-0.08552113175392151;-0.004886921960860491;-0.012217304669320583
01:00:0A:00:00:00:00;1723075372;08/08/24;00:02:52;1.028;-0.028;0.091;-0.08796459436416626;-0.01710422709584236;0.0
01:00:0A:00:00:00:00;1723075373;08/08/24;00:02:53;1.054;-0.022;0.08;-0.08796459436416626;0.0012217304902151227;0.014660765416920185
01:00:0A:00:00:00:00;1723075374;08/08/24;00:02:54;1.051;-0.016;0.087;-0.08918632566928864;0.010995574295520782;0.019547687843441963
01:00:0A:00:00:00:00;1723075375;08/08/24;00:02:55;1.01;-0.014;0.071;-0.09040805697441101;-0.019547687843441963;0.01710422709584236
01:00:0A:00:00:00:00;1723075376;08/08/24;00:02:56;0.976;-0.01;0.071;-0.08552113175392151;-0.0073303827084600925;0.0
01:00:0A:00:00:00:00;1723075377;08/08/24;00:02:57;0.965;-0.007;0.081;-0.08429940044879913;-0.02076941914856434;-0.010995574295520782
01:00:0A:00:00:00:00;1723075378;08/08/24;00:02:58;1.013;-0.018;0.085;-0.08307767659425735;-0.025656338781118393;-0.024434609338641167
01:00:0A:00:00:00:00;1723075379;08/08/24;00:02:59;1.044;-0.021;0.089;-0.07941248267889023;-0.004886921960860491;-0.019547687843441963
01:00:0A:00:00:00:00;1723075380;08/08/24;00:03:00;1.057;-0.026;0.089;-0.08185594528913498;0.009773843921720982;0.01710422709584236
01:00:0A:00:00:00:00;1723075381;08/08/24;00:03:01;1.037;-0.022;0.081;-0.08307767659425735;-0.006108652334660292;0.02687807008624077
01:00:0A:00:00:00:00;1723075382;08/08/24;00:03:02;0.988;-0.011;0.085;-0.08185594528913498;-0.0073303827084600925;0.01710422709584236
01:00:0A:00:00:00:00;1723075383;08/08/24;00:03:03;0.975;-0.012;0.093;-0.08552113175392151;-0.03298672288656235;0.0073303827084600925
01:00:0A:00:00:00:00;1723075384;08/08/24;00:03:04;0.998;-0.014;0.098;-0.08185594528913498;0.0024434609804302454;-0.025656338781118393
01:00:0A:00:00:00:00;1723075385;08/08/24;00:03:05;1.029;-0.015;0.099;-0.08307767659425735;0.019547687843441963;-0.01710422709584236
01:00:0A:00:00:00:00;1723075386;08/08/24;00:03:06;1.047;-0.024;0.08;-0.08429940044879913;0.02076941914856434;-0.0012217304902151227
01:00:0A:00:00:00:00;1723075387;08/08/24;00:03:07;1.038;-0.02;0.07;-0.08552113175392151;0.0073303827084600925;0.0012217304902151227
01:00:0A:00:00:00:00;1723075388;08/08/24;00:03:08;1.004;-0.021;0.068;-0.08796459436416626;-0.045204028487205505;0.013439035043120384
01:00:0A:00:00:00:00;1723075389;08/08/24;00:03:09;0.987;-0.024;0.091;-0.08674286305904388;-0.06108652427792549;0.009773843921720982
01:00:0A:00:00:00:00;1723075390;08/08/24;00:03:10;0.995;-0.029;0.101;-0.080634206533432;-0.030543262138962746;-0.0036651913542300463
01:00:0A:00:00:00:00;1723075391;08/08/24;00:03:11;1.016;-0.024;0.104;-0.07819075137376785;0.004886921960860491;0.014660765416920185
01:00:0A:00:00:00:00;1723075392;08/08/24;00:03:12;1.026;-0.023;0.096;-0.0757472887635231;0.02076941914856434;0.02321287989616394
01:00:0A:00:00:00:00;1723075393;08/08/24;00:03:13;1.026;-0.011;0.077;-0.06841690838336945;0.018325956538319588;0.0
01:00:0A:00:00:00:00;1723075394;08/08/24;00:03:14;1.024;-0.012;0.078;-0.0659734457731247;-0.00855211354792118;-0.014660765416920185
01:00:0A:00:00:00:00;1723075395;08/08/24;00:03:15;1.018;-0.025;0.078;-0.06352998316287994;-0.025656338781118393;-0.013439035043120384
01:00:0A:00:00:00:00;1723075396;08/08/24;00:03:16;1.017;-0.03;0.082;-0.05864306166768074;-0.024434609338641167;-0.0036651913542300463
01:00:0A:00:00:00:00;1723075397;08/08/24;00:03:17;1.006;-0.024;0.091;-0.05864306166768074;-0.0073303827084600925;0.028099799528717995
01:00:0A:00:00:00:00;1723075398;08/08/24;00:03:18;0.995;-0.018;0.082;-0.05619959905743599;-0.009773843921720982;0.02687807008624077
01:00:0A:00:00:00:00;1723075399;08/08/24;00:03:19;0.995;-0.012;0.08;-0.04642575979232788;-0.006108652334660292;-0.0024434609804302454
01:00:0A:00:00:00:00;1723075400;08/08/24;00:03:20;1.019;-0.009;0.082;-0.04398229718208313;-0.025656338781118393;-0.02076941914856434
01:00:0A:00:00:00:00;1723075401;08/08/24;00:03:21;1.033;-0.022;0.084;-0.04398229718208313;-0.025656338781118393;-0.019547687843441963
01:00:0A:00:00:00:00;1723075402;08/08/24;00:03:22;1.039;-0.027;0.088;-0.040317103266716;-0.0036651913542300463;-0.0012217304902151227
01:00:0A:00:00:00:00;1723075403;08/08/24;00:03:23;1.023;-0.024;0.092;-0.040317103266716;0.0012217304902151227;0.010995574295520782
01:00:0A:00:00:00:00;1723075404;08/08/24;00:03:24;0.998;-0.02;0.081;-0.039095375686883926;0.0;0.019547687843441963
01:00:0A:00:00:00:00;1723075405;08/08/24;00:03:25;0.989;-0.012;0.083;-0.03298672288656235;0.010995574295520782;0.0036651913542300463
01:00:0A:00:00:00:00;1723075406;08/08/24;00:03:26;0.998;-0.009;0.084;-0.03298672288656235;-0.014660765416920185;-0.00855211354792118
01:00:0A:00:00:00:00;1723075407;08/08/24;00:03:27;1.022;-0.019;0.081;-0.030543262138962746;-0.013439035043120384;-0.02076941914856434
01:00:0A:00:00:00:00;1723075408;08/08/24;00:03:28;1.027;-0.024;0.081;-0.02932153083384037;-0.0012217304902151227;-0.004886921960860491
01:00:0A:00:00:00:00;1723075409;08/08/24;00:03:29;1.024;-0.02;0.083;-0.030543262138962746;-0.013439035043120384;0.013439035043120384
01:00:0A:00:00:00:00;1723075410;08/08/24;00:03:30;1.018;-0.014;0.073;-0.028099799528717995;-0.01710422709584236;0.015882495790719986
01:00:0A:00:00:00:00;1723075411;08/08/24;00:03:31;1.016;-0.011;0.081;-0.02076941914856434;-0.018325956538319588;0.0012217304902151227
01:00:0A:00:00:00:00;1723075412;08/08/24;00:03:32;1.017;-0.011;0.084;-0.018325956538319588;-0.03787364438176155;-0.015882495790719986
01:00:0A:00:00:00:00;1723075413;08/08/24;00:03:33;1.021;-0.019;0.08;-0.013439035043120384;-0.02321287989616394;-0.02076941914856434
01:00:0A:00:00:00:00;1723075414;08/08/24;00:03:34;1.018;-0.027;0.09;-0.010995574295520782;0.004886921960860491;0.0012217304902151227
01:00:0A:00:00:00:00;1723075415;08/08/24;00:03:35;1.016;-0.026;0.085;-0.012217304669320583;-0.014660765416920185;0.013439035043120384
01:00:0A:00:00:00:00;1723075416;08/08/24;00:03:36;1.008;-0.014;0.077;-0.00855211354792118;-0.006108652334660292;0.024434609338641167
01:00:0A:00:00:00:00;1723075417;08/08/24;00:03:37;1.006;-0.011;0.085;-0.006108652334660292;0.006108652334660292;0.02321287989616394
01:00:0A:00:00:00:00;1723075418;08/08/24;00:03:38;1.01;-0.009;0.08;-0.006108652334660292;-0.018325956538319588;0.0
01:00:0A:00:00:00:00;1723075419;08/08/24;00:03:39;1.012;-0.01;0.074;0.0;-0.0073303827084600925;-0.0073303827084600925
01:00:0A:00:00:00:00;1723075420;08/08/24;00:03:40;1.012;-0.02;0.083;0.0012217304902151227;-0.010995574295520782;-0.0024434609804302454
01:00:0A:00:00:00:00;1723075421;08/08/24;00:03:41;1.012;-0.022;0.079;0.0;-0.036651913076639175;0.0024434609804302454
01:00:0A:00:00:00:00;1723075422;08/08/24;00:03:42;1.013;-0.017;0.077;0.0036651913542300463;-0.019547687843441963;0.00855211354792118
01:00:0A:00:00:00:00;1723075423;08/08/24;00:03:43;1.016;-0.015;0.09;0.004886921960860491;-0.0073303827084600925;0.0036651913542300463
01:00:0A:00:00:00:00;1723075424;08/08/24;00:03:44;1.021;-0.016;0.083;0.006108652334660292;-0.02076941914856434;-0.01710422709584236
01:00:0A:00:00:00:00;1723075425;08/08/24;00:03:45;1.027;-0.024;0.075;0.00855211354792118;0.0;-0.0073303827084600925
01:00:0A:00:00:00:00;1723075426;08/08/24;00:03:46;1.023;-0.028;0.088;0.004886921960860491;-0.004886921960860491;0.00855211354792118
01:00:0A:00:00:00:00;1723075427;08/08/24;00:03:47;1.017;-0.027;0.08;0.0;-0.028099799528717995;0.024434609338641167
01:00:0A:00:00:00:00;1723075428;08/08/24;00:03:48;1.014;-0.018;0.08;0.0012217304902151227;-0.00855211354792118;0.03176499158143997
01:00:0A:00:00:00:00;1723075429;08/08/24;00:03:49;1.004;-0.005;0.09;0.0;-0.0036651913542300463;0.021991148591041565
01:00:0A:00:00:00:00;1723075430;08/08/24;00:03:50;0.998;-0.006;0.082;-0.0012217304902151227;-0.02076941914856434;-0.013439035043120384
01:00:0A:00:00:00:00;1723075431;08/08/24;00:03:51;0.997;-0.009;0.077;0.0012217304902151227;0.0;-0.019547687843441963
01:00:0A:00:00:00:00;1723075432;08/08/24;00:03:52;1.008;-0.018;0.085;-0.0012217304902151227;-0.025656338781118393;-0.02076941914856434
01:00:0A:00:00:00:00;1723075433;08/08/24;00:03:53;1.017;-0.024;0.08;-0.0036651913542300463;-0.03176499158143997;-0.014660765416920185
01:00:0A:00:00:00:00;1723075434;08/08/24;00:03:54;1.035;-0.023;0.081;-0.0012217304902151227;-0.013439035043120384;0.0073303827084600925
01:00:0A:00:00:00:00;1723075435;08/08/24;00:03:55;1.036;-0.022;0.095;-0.0024434609804302454;-0.012217304669320583;0.013439035043120384
01:00:0A:00:00:00:00;1723075436;08/08/24;00:03:56;1.022;-0.023;0.083;-0.0024434609804302454;-0.010995574295520782;0.015882495790719986
01:00:0A:00:00:00:00;1723075437;08/08/24;00:03:57;1.009;-0.018;0.082;0.0036651913542300463;0.010995574295520782;0.01710422709584236
01:00:0A:00:00:00:00;1723075438;08/08/24;00:03:58;0.993;-0.018;0.085;0.0012217304902151227;-0.00855211354792118;0.009773843921720982
01:00:0A:00:00:00:00;1723075439;08/08/24;00:03:59;1.0;-0.021;0.079;0.0024434609804302454;-0.02687807008624077;0.0012217304902151227
01:00:0A:00:00:00:00;1723075440;08/08/24;00:04:00;1.011;-0.018;0.079;0.0073303827084600925;-0.00855211354792118;-0.0024434609804302454
01:00:0A:00:00:00:00;1723075441;08/08/24;00:04:01;1.027;-0.022;0.092;0.006108652334660292;-0.019547687843441963;0.0
01:00:0A:00:00:00:00;1723075442;08/08/24;00:04:02;1.027;-0.022;0.079;0.004886921960860491;-0.018325956538319588;0.009773843921720982
01:00:0A:00:00:00:00;1723075443;08/08/24;00:04:03;1.019;-0.016;0.083;0.006108652334660292;0.0012217304902151227;0.018325956538319588
01:00:0A:00:00:00:00;1723075444;08/08/24;00:04:04;1.013;-0.013;0.089;0.0036651913542300463;-0.010995574295520782;0.00855211354792118
01:00:0A:00:00:00:00;1723075445;08/08/24;00:04:05;1.01;-0.012;0.077;0.004886921960860491;-0.015882495790719986;-0.012217304669320583
01:00:0A:00:00:00:00;1723075446;08/08/24;00:04:06;1.012;-0.015;0.082;0.0073303827084600925;-0.0012217304902151227;-0.014660765416920185
01:00:0A:00:00:00:00;1723075447;08/08/24;00:04:07;1.016;-0.021;0.088;0.0036651913542300463;-0.015882495790719986;-0.010995574295520782
01:00:0A:00:00:00:00;1723075448;08/08/24;00:04:08;1.016;-0.026;0.076;0.0024434609804302454;-0.013439035043120384;0.006108652334660292
01:00:0A:00:00:00:00;1723075449;08/08/24;00:04:09;1.016;-0.023;0.081;0.004886921960860491;0.0;0.019547687843441963
01:00:0A:00:00:00:00;1723075450;08/08/24;00:04:10;1.014;-0.016;0.084;0.0012217304902151227;-0.02687807008624077;0.015882495790719986
01:00:0A:00:00:00:00;1723075451;08/08/24;00:04:11;1.016;-0.013;0.074;0.004886921960860491;-0.021991148591041565;0.004886921960860491
01:00:0A:00:00:00:00;1723075452;08/08/24;00:04:12;1.014;-0.018;0.085;0.0073303827084600925;-0.004886921960860491;0.004886921960860491
01:00:0A:00:00:00:00;1723075453;08/08/24;00:04:13;1.014;-0.022;0.089;0.004886921960860491;-0.024434609338641167;0.004886921960860491
01:00:0A:00:00:00:00;1723075454;08/08/24;00:04:14;1.015;-0.019;0.081;0.0073303827084600925;-0.009773843921720982;0.012217304669320583
01:00:0A:00:00:00:00;1723075455;08/08/24;00:04:15;1.015;-0.017;0.089;0.009773843921720982;0.006108652334660292;0.02076941914856434
01:00:0A:00:00:00:00;1723075456;08/08/24;00:04:16;1.013;-0.01;0.085;0.009773843921720982;-0.014660765416920185;0.0012217304902151227
01:00:0A:00:00:00:00;1723075457;08/08/24;00:04:17;1.011;-0.009;0.074;0.013439035043120384;-0.010995574295520782;-0.015882495790719986
01:00:0A:00:00:00:00;1723075458;08/08/24;00:04:18;1.008;-0.014;0.082;0.015882495790719986;-0.0036651913542300463;-0.01710422709584236
01:00:0A:00:00:00:00;1723075459;08/08/24;00:04:19;1.009;-0.023;0.082;0.012217304669320583;-0.03298672288656235;-0.0073303827084600925
01:00:0A:00:00:00:00;1723075460;08/08/24;00:04:20;1.016;-0.025;0.075;0.013439035043120384;-0.018325956538319588;0.0073303827084600925
01:00:0A:00:00:00:00;1723075461;08/08/24;00:04:21;1.03;-0.025;0.09;0.013439035043120384;-0.009773843921720982;0.030543262138962746
01:00:0A:00:00:00:00;1723075462;08/08/24;00:04:22;1.033;-0.02;0.089;0.012217304669320583;-0.02076941914856434;0.024434609338641167
01:00:0A:00:00:00:00;1723075463;08/08/24;00:04:23;1.017;-0.01;0.081;0.015882495790719986;-0.006108652334660292;0.009773843921720982
01:00:0A:00:00:00:00;1723075464;08/08/24;00:04:24;1.004;-0.013;0.088;0.018325956538319588;0.010995574295520782;0.0012217304902151227
01:00:0A:00:00:00:00;1723075465;08/08/24;00:04:25;0.992;-0.018;0.08;0.01710422709584236;-0.015882495790719986;-0.012217304669320583
01:00:0A:00:00:00:00;1723075466;08/08/24;00:04:26;1.004;-0.02;0.071;0.02076941914856434;-0.006108652334660292;-0.0073303827084600925
01:00:0A:00:00:00:00;1723075467;08/08/24;00:04:27;1.019;-0.02;0.082;0.019547687843441963;-0.018325956538319588;0.0
01:00:0A:00:00:00:00;1723075468;08/08/24;00:04:28;1.034;-0.022;0.084;0.015882495790719986;-0.02932153083384037;0.010995574295520782
01:00:0A:00:00:00:00;1723075469;08/08/24;00:04:29;1.031;-0.019;0.078;0.019547687843441963;-0.01710422709584236;0.010995574295520782
01:00:0A:00:00:00:00;1723075470;08/08/24;00:04:30;1.015;-0.018;0.091;0.019547687843441963;-0.009773843921720982;0.004886921960860491
01:00:0A:00:00:00:00;1723075471;08/08/24;00:04:31;1.006;-0.02;0.084;0.01710422709584236;-0.02932153083384037;0.0
01:00:0A:00:00:00:00;1723075472;08/08/24;00:04:32;1.002;-0.019;0.081;0.02076941914856434;-0.0024434609804302454;0.004886921960860491
01:00:0A:00:00:00:00;1723075473;08/08/24;00:04:33;1.012;-0.018;0.091;0.018325956538319588;-0.0012217304902151227;0.0073303827084600925
01:00:0A:00:00:00:00;1723075474;08/08/24;00:04:34;1.022;-0.02;0.084;0.01710422709584236;-0.013439035043120384;0.004886921960860491
01:00:0A:00:00:00:00;1723075475;08/08/24;00:04:35;1.029;-0.015;0.076;0.019547687843441963;0.0036651913542300463;0.006108652334660292
01:00:0A:00:00:00:00;1723075476;08/08/24;00:04:36;1.023;-0.016;0.085;0.01710422709584236;0.0024434609804302454;0.009773843921720982
01:00:0A:00:00:00:00;1723075477;08/08/24;00:04:37;1.008;-0.02;0.079;0.014660765416920185;-0.025656338781118393;0.0073303827084600925
01:00:0A:00:00:00:00;1723075478;08/08/24;00:04:38;1.0;-0.019;0.079;0.018325956538319588;-0.004886921960860491;0.006108652334660292
01:00:0A:00:00:00:00;1723075479;08/08/24;00:04:39;0.999;-0.02;0.083;0.015882495790719986;-0.021991148591041565;0.004886921960860491
01:00:0A:00:00:00:00;1723075480;08/08/24;00:04:40;1.006;-0.022;0.08;0.015882495790719986;-0.028099799528717995;0.0
01:00:0A:00:00:00:00;1723075481;08/08/24;00:04:41;1.027;-0.021;0.081;0.018325956538319588;-0.009773843921720982;0.0012217304902151227
01:00:0A:00:00:00:00;1723075482;08/08/24;00:04:42;1.033;-0.02;0.093;0.014660765416920185;-0.00855211354792118;0.013439035043120384
01:00:0A:00:00:00:00;1723075483;08/08/24;00:04:43;1.025;-0.02;0.084;0.013439035043120384;-0.019547687843441963;0.009773843921720982
01:00:0A:00:00:00:00;1723075484;08/08/24;00:04:44;1.004;-0.02;0.085;0.015882495790719986;0.0036651913542300463;0.006108652334660292
01:00:0A:00:00:00:00;1723075485;08/08/24;00:04:45;0.999;-0.019;0.088;0.013439035043120384;-0.0024434609804302454;0.010995574295520782
01:00:0A:00:00:00:00;1723075486;08/08/24;00:04:46;0.999;-0.02;0.079;0.012217304669320583;-0.018325956538319588;0.0012217304902151227
01:00:0A:00:00:00:00;1723075487;08/08/24;00:04:47;1.007;-0.018;0.079;0.015882495790719986;-0.0036651913542300463;-0.0024434609804302454
01:00:0A:00:00:00:00;1723075488;08/08/24;00:04:48;1.018;-0.017;0.084;0.012217304669320583;-0.01710422709584236;0.0012217304902151227
01:00:0A:00:00:00:00;1723075489;08/08/24;00:04:49;1.023;-0.018;0.078;0.009773843921720982;-0.02076941914856434;0.0024434609804302454
01:00:0A:00:00:00:00;1723075490;08/08/24;00:04:50;1.022;-0.017;0.081;0.012217304669320583;-0.0073303827084600925;0.0024434609804302454
01:00:0A:00:00:00:00;1723075491;08/08/24;00:04:51;1.016;-0.017;0.085;0.00855211354792118;-0.01710422709584236;0.00855211354792118
01:00:0A:00:00:00:00;1723075492;08/08/24;00:04:52;1.014;-0.019;0.082;0.0073303827084600925;-0.018325956538319588;0.0073303827084600925
01:00:0A:00:00:00:00;1723075493;08/08/24;00:04:53;1.01;-0.018;0.084;0.00855211354792118;-0.0024434609804302454;0.0024434609804302454
01:00:0A:00:00:00:00;1723075494;08/08/24;00:04:54;1.009;-0.017;0.091;0.006108652334660292;-0.010995574295520782;0.006108652334660292
01:00:0A:00:00:00:00;1723075495;08/08/24;00:04:55;1.011;-0.017;0.084;0.006108652334660292;0.0;0.0036651913542300463
01:00:0A:00:00:00:00;1723075496;08/08/24;00:04:56;1.015;-0.017;0.083;0.0073303827084600925;0.00855211354792118;0.0024434609804302454
01:00:0A:00:00:00:00;1723075497;08/08/24;00:04:57;1.016;-0.017;0.081;0.0036651913542300463;-0.004886921960860491;0.00855211354792118
01:00:0A:00:00:00:00;1723075498;08/08/24;00:04:58;1.017;-0.018;0.074;0.004886921960860491;-0.009773843921720982;0.004886921960860491
01:00:0A:00:00:00:00;1723075499;08/08/24;00:04:59;1.012;-0.015;0.079;0.0073303827084600925;-0.010995574295520782;0.0
01:00:0A:00:00:00:00;1723075500;08/08/24;00:05:00;1.006;-0.016;0.082;0.006108652334660292;-0.021991148591041565;0.0024434609804302454
01:00:0A:00:00:00:00;1723075501;08/08/24;00:05:01;1.005;-0.019;0.079;0.00855211354792118;-0.018325956538319588;-0.0024434609804302454
01:00:0A:00:00:00:00;1723075502;08/08/24;00:05:02;1.012;-0.02;0.085;0.010995574295520782;-0.009773843921720982;-0.0012217304902151227
01:00:0A:00:00:00:00;1723075503;08/08/24;00:05:03;1.019;-0.019;0.085;0.009773843921720982;-0.019547687843441963;0.0036651913542300463
01:00:0A:00:00:00:00;1723075504;08/08/24;00:05:04;1.026;-0.019;0.082;0.013439035043120384;-0.012217304669320583;0.0036651913542300463
01:00:0A:00:00:00:00;1723075505;08/08/24;00:05:05;1.023;-0.016;0.085;0.01710422709584236;-0.006108652334660292;0.0036651913542300463
01:00:0A:00:00:00:00;1723075506;08/08/24;00:05:06;1.017;-0.017;0.084;0.015882495790719986;-0.010995574295520782;0.004886921960860491
01:00:0A:00:00:00:00;1723075507;08/08/24;00:05:07;1.011;-0.02;0.079;0.01710422709584236;-0.00855211354792118;0.0024434609804302454
01:00:0A:00:00:00:00;1723075508;08/08/24;00:05:08;1.01;-0.016;0.081;0.018325956538319588;-0.004886921960860491;0.0073303827084600925
01:00:0A:00:00:00:00;1723075509;08/08/24;00:05:09;1.011;-0.015;0.081;0.015882495790719986;-0.015882495790719986;0.010995574295520782
01:00:0A:00:00:00:00;1723075510;08/08/24;00:05:10;1.013;-0.014;0.08;0.018325956538319588;-0.013439035043120384;0.0036651913542300463
01:00:0A:00:00:00:00;1723075511;08/08/24;00:05:11;1.011;-0.013;0.085;0.018325956538319588;-0.009773843921720982;-0.006108652334660292
01:00:0A:00:00:00:00;1723075512;08/08/24;00:05:12;1.009;-0.017;0.085;0.01710422709584236;-0.013439035043120384;-0.004886921960860491
01:00:0A:00:00:00:00;1723075513;08/08/24;00:05:13;1.015;-0.023;0.082;0.018325956538319588;-0.006108652334660292;-0.004886921960860491
01:00:0A:00:00:00:00;1723075514;08/08/24;00:05:14;1.018;-0.024;0.085;0.01710422709584236;-0.004886921960860491;0.0073303827084600925
01:00:0A:00:00:00:00;1723075515;08/08/24;00:05:15;1.026;-0.023;0.082;0.013439035043120384;-0.009773843921720982;0.02687807008624077
01:00:0A:00:00:00:00;1723075516;08/08/24;00:05:16;1.027;-0.021;0.082;0.013439035043120384;-0.004886921960860491;0.02687807008624077
01:00:0A:00:00:00:00;1723075517;08/08/24;00:05:17;1.018;-0.01;0.081;0.013439035043120384;-0.006108652334660292;0.01710422709584236
01:00:0A:00:00:00:00;1723075518;08/08/24;00:05:18;1.006;-0.014;0.082;0.013439035043120384;-0.013439035043120384;-0.0012217304902151227
01:00:0A:00:00:00:00;1723075519;08/08/24;00:05:19;1.001;-0.017;0.081;0.015882495790719986;-0.009773843921720982;-0.014660765416920185
01:00:0A:00:00:00:00;1723075520;08/08/24;00:05:20;1.003;-0.021;0.084;0.014660765416920185;-0.013439035043120384;-0.010995574295520782
01:00:0A:00:00:00:00;1723075521;08/08/24;00:05:21;1.009;-0.023;0.086;0.012217304669320583;-0.014660765416920185;0.0
01:00:0A:00:00:00:00;1723075522;08/08/24;00:05:22;1.021;-0.023;0.084;0.010995574295520782;-0.0073303827084600925;0.012217304669320583
01:00:0A:00:00:00:00;1723075523;08/08/24;00:05:23;1.026;-0.018;0.086;0.009773843921720982;-0.006108652334660292;0.014660765416920185
01:00:0A:00:00:00:00;1723075524;08/08/24;00:05:24;1.026;-0.017;0.082;0.009773843921720982;-0.0073303827084600925;0.00855211354792118
01:00:0A:00:00:00:00;1723075525;08/08/24;00:05:25;1.017;-0.017;0.081;0.010995574295520782;-0.009773843921720982;0.0012217304902151227
01:00:0A:00:00:00:00;1723075526;08/08/24;00:05:26;1.011;-0.018;0.084;0.010995574295520782;-0.00855211354792118;0.0024434609804302454
01:00:0A:00:00:00:00;1723075527;08/08/24;00:05:27;1.003;-0.02;0.082;0.00855211354792118;-0.012217304669320583;0.012217304669320583
01:00:0A:00:00:00:00;1723075528;08/08/24;00:05:28;1.002;-0.017;0.081;0.009773843921720982;-0.009773843921720982;0.009773843921720982
01:00:0A:00:00:00:00;1723075529;08/08/24;00:05:29;1.009;-0.012;0.082;0.009773843921720982;-0.010995574295520782;0.0012217304902151227
01:00:0A:00:00:00:00;1723075530;08/08/24;00:05:30;1.016;-0.01;0.081;0.00855211354792118;-0.014660765416920185;-0.006108652334660292
01:00:0A:00:00:00:00;1723075531;08/08/24;00:05:31;1.026;-0.017;0.082;0.009773843921720982;-0.014660765416920185;-0.014660765416920185
01:00:0A:00:00:00:00;1723075532;08/08/24;00:05:32;1.027;-0.02;0.086;0.00855211354792118;-0.010995574295520782;-0.0073303827084600925
01:00:0A:00:00:00:00;1723075533;08/08/24;00:05:33;1.02;-0.025;0.084;0.006108652334660292;-0.00855211354792118;0.00855211354792118
01:00:0A:00:00:00:00;1723075534;08/08/24;00:05:34;1.006;-0.023;0.082;0.004886921960860491;-0.0036651913542300463;0.02076941914856434
01:00:0A:00:00:00:00;1723075535;08/08/24;00:05:35;0.998;-0.018;0.082;0.006108652334660292;-0.00855211354792118;0.015882495790719986
01:00:0A:00:00:00:00;1723075536;08/08/24;00:05:36;1.0;-0.016;0.082;0.006108652334660292;-0.015882495790719986;0.0024434609804302454
01:00:0A:00:00:00:00;1723075537;08/08/24;00:05:37;1.008;-0.016;0.083;0.00855211354792118;-0.01710422709584236;-0.009773843921720982
01:00:0A:00:00:00:00;1723075538;08/08/24;00:05:38;1.027;-0.021;0.086;0.0073303827084600925;-0.01710422709584236;-0.0073303827084600925
01:00:0A:00:00:00:00;1723075539;08/08/24;00:05:39;1.032;-0.023;0.087;0.0073303827084600925;-0.0073303827084600925;0.004886921960860491
01:00:0A:00:00:00:00;1723075540;08/08/24;00:05:40;1.026;-0.022;0.084;0.006108652334660292;-0.0024434609804302454;0.013439035043120384
01:00:0A:00:00:00:00;1723075541;08/08/24;00:05:41;1.009;-0.018;0.082;0.006108652334660292;-0.006108652334660292;0.009773843921720982
01:00:0A:00:00:00:00;1723075542;08/08/24;00:05:42;1.002;-0.019;0.082;0.0073303827084600925;-0.00855211354792118;0.00855211354792118
01:00:0A:00:00:00:00;1723075543;08/08/24;00:05:43;1.0;-0.016;0.081;0.00855211354792118;-0.014660765416920185;-0.006108652334660292
01:00:0A:00:00:00:00;1723075544;08/08/24;00:05:44;1.003;-0.015;0.083;0.00855211354792118;-0.01710422709584236;-0.004886921960860491
01:00:0A:00:00:00:00;1723075545;08/08/24;00:05:45;1.014;-0.02;0.083;0.00855211354792118;-0.019547687843441963;-0.0012217304902151227
01:00:0A:00:00:00:00;1723075546;08/08/24;00:05:46;1.017;-0.021;0.083;0.009773843921720982;-0.015882495790719986;-0.004886921960860491
01:00:0A:00:00:00:00;1723075547;08/08/24;00:05:47;1.023;-0.018;0.085;0.00855211354792118;-0.010995574295520782;0.006108652334660292
01:00:0A:00:00:00:00;1723075548;08/08/24;00:05:48;1.024;-0.02;0.084;0.00855211354792118;-0.010995574295520782;0.006108652334660292
01:00:0A:00:00:00:00;1723075549;08/08/24;00:05:49;1.024;-0.022;0.083;0.009773843921720982;-0.004886921960860491;0.009773843921720982
01:00:0A:00:00:00:00;1723075550;08/08/24;00:05:50;1.017;-0.016;0.083;0.0073303827084600925;-0.006108652334660292;0.015882495790719986
01:00:0A:00:00:00:00;1723075551;08/08/24;00:05:51;1.014;-0.019;0.081;0.0073303827084600925;-0.0073303827084600925;0.013439035043120384
01:00:0A:00:00:00:00;1723075552;08/08/24;00:05:52;1.004;-0.017;0.081;0.009773843921720982;-0.00855211354792118;0.004886921960860491
01:00:0A:00:00:00:00;1723075553;08/08/24;00:05:53;1.004;-0.015;0.081;0.009773843921720982;-0.010995574295520782;0.0024434609804302454
01:00:0A:00:00:00:00;1723075554;08/08/24;00:05:54;1.009;-0.017;0.081;0.00855211354792118;-0.012217304669320583;0.0024434609804302454
01:00:0A:00:00:00:00;1723075555;08/08/24;00:05:55;1.015;-0.017;0.083;0.009773843921720982;-0.012217304669320583;-0.0024434609804302454
01:00:0A:00:00:00:00;1723075556;08/08/24;00:05:56;1.02;-0.017;0.083;0.00855211354792118;-0.012217304669320583;0.0
01:00:0A:00:00:00:00;1723075557;08/08/24;00:05:57;1.021;-0.02;0.083;0.00855211354792118;-0.009773843921720982;0.004886921960860491
01:00:0A:00:00:00:00;1723075558;08/08/24;00:05:58;1.017;-0.019;0.084;0.009773843921720982;-0.009773843921720982;0.0024434609804302454
01:00:0A:00:00:00:00;1723075559;08/08/24;00:05:59;1.014;-0.02;0.082;0.00855211354792118;-0.00855211354792118;0.00855211354792118
01:00:0A:00:00:00:00;1723075560;08/08/24;00:06:00;1.013;-0.021;0.081;0.0073303827084600925;-0.004886921960860491;0.014660765416920185
01:00:0A:00:00:00:00;1723075561;08/08/24;00:06:01;1.013;-0.015;0.081;0.0073303827084600925;-0.0073303827084600925;0.012217304669320583
01:00:0A:00:00:00:00;1723075562;08/08/24;00:06:02;1.015;-0.014;0.08;0.0073303827084600925;-0.009773843921720982;0.009773843921720982
01:00:0A:00:00:00:00;1723075563;08/08/24;00:06:03;1.013;-0.013;0.08;0.00855211354792118;-0.010995574295520782;-0.0012217304902151227
01:00:0A:00:00:00:00;1723075564;08/08/24;00:06:04;1.013;-0.014;0.082;0.00855211354792118;-0.013439035043120384;-0.0073303827084600925
01:00:0A:00:00:00:00;1723075565;08/08/24;00:06:05;1.016;-0.017;0.083;0.00855211354792118;-0.010995574295520782;-0.004886921960860491
01:00:0A:00:00:00:00;1723075566;08/08/24;00:06:06;1.017;-0.021;0.083;0.00855211354792118;-0.0073303827084600925;0.0
01:00:0A:00:00:00:00;1723075567;08/08/24;00:06:07;1.016;-0.02;0.084;0.006108652334660292;-0.00855211354792118;0.012217304669320583
01:00:0A:00:00:00:00;1723075568;08/08/24;00:06:08;1.014;-0.015;0.081;0.006108652334660292;-0.013439035043120384;0.012217304669320583
01:00:0A:00:00:00:00;1723075569;08/08/24;00:06:09;1.011;-0.014;0.081;0.006108652334660292;-0.012217304669320583;0.0036651913542300463
01:00:0A:00:00:00:00;1723075570;08/08/24;00:06:10;1.012;-0.016;0.083;0.006108652334660292;-0.014660765416920185;-0.004886921960860491
01:00:0A:00:00:00:00;1723075571;08/08/24;00:06:11;1.015;-0.018;0.083;0.006108652334660292;-0.012217304669320583;-0.004886921960860491
01:00:0A:00:00:00:00;1723075572;08/08/24;00:06:12;1.017;-0.02;0.083;0.004886921960860491;-0.004886921960860491;0.0024434609804302454
01:00:0A:00:00:00:00;1723075573;08/08/24;00:06:13;1.018;-0.02;0.083;0.0036651913542300463;-0.0073303827084600925;0.00855211354792118
01:00:0A:00:00:00:00;1723075574;08/08/24;00:06:14;1.014;-0.017;0.081;0.0036651913542300463;-0.009773843921720982;0.009773843921720982
01:00:0A:00:00:00:00;1723075575;08/08/24;00:06:15;1.011;-0.013;0.081;0.006108652334660292;-0.00855211354792118;0.0024434609804302454
01:00:0A:00:00:00:00;1723075576;08/08/24;00:06:16;1.013;-0.015;0.081;0.006108652334660292;-0.015882495790719986;-0.006108652334660292
01:00:0A:00:00:00:00;1723075577;08/08/24;00:06:17;1.019;-0.02;0.081;0.006108652334660292;-0.013439035043120384;-0.0036651913542300463
01:00:0A:00:00:00:00;1723075578;08/08/24;00:06:18;1.019;-0.021;0.082;0.006108652334660292;-0.009773843921720982;0.0036651913542300463
01:00:0A:00:00:00:00;1723075579;08/08/24;00:06:19;1.015;-0.018;0.082;0.0036651913542300463;-0.013439035043120384;0.014660765416920185
01:00:0A:00:00:00:00;1723075580;08/08/24;00:06:20;1.01;-0.017;0.08;0.0036651913542300463;-0.013439035043120384;0.015882495790719986
01:00:0A:00:00:00:00;1723075581;08/08/24;00:06:21;1.006;-0.013;0.082;0.004886921960860491;-0.010995574295520782;0.006108652334660292
01:00:0A:00:00:00:00;1723075582;08/08/24;00:06:22;1.007;-0.013;0.084;0.004886921960860491;-0.015882495790719986;0.0
01:00:0A:00:00:00:00;1723075583;08/08/24;00:06:23;1.016;-0.017;0.081;0.006108652334660292;-0.012217304669320583;-0.004886921960860491
01:00:0A:00:00:00:00;1723075584;08/08/24;00:06:24;1.024;-0.021;0.085;0.006108652334660292;-0.009773843921720982;0.0024434609804302454
01:00:0A:00:00:00:00;1723075585;08/08/24;00:06:25;1.023;-0.02;0.085;0.004886921960860491;-0.012217304669320583;0.009773843921720982
01:00:0A:00:00:00:00;1723075586;08/08/24;00:06:26;1.016;-0.018;0.081;0.004886921960860491;-0.0073303827084600925;0.012217304669320583
01:00:0A:00:00:00:00;1723075587;08/08/24;00:06:27;1.012;-0.017;0.082;0.006108652334660292;-0.006108652334660292;0.00855211354792118
01:00:0A:00:00:00:00;1723075588;08/08/24;00:06:28;1.007;-0.014;0.081;0.004886921960860491;-0.01710422709584236;0.0036651913542300463
01:00:0A:00:00:00:00;1723075589;08/08/24;00:06:29;1.01;-0.017;0.081;0.0073303827084600925;-0.010995574295520782;0.0
01:00:0A:00:00:00:00;1723075590;08/08/24;00:06:30;1.015;-0.02;0.084;0.006108652334660292;-0.012217304669320583;0.0012217304902151227
01:00:0A:00:00:00:00;1723075591;08/08/24;00:06:31;1.016;-0.018;0.083;0.004886921960860491;-0.01710422709584236;0.004886921960860491
01:00:0A:00:00:00:00;1723075592;08/08/24;00:06:32;1.016;-0.018;0.082;0.006108652334660292;-0.006108652334660292;0.0073303827084600925
01:00:0A:00:00:00:00;1723075593;08/08/24;00:06:33;1.014;-0.016;0.084;0.006108652334660292;-0.004886921960860491;0.0036651913542300463
01:00:0A:00:00:00:00;1723075594;08/08/24;00:06:34;1.014;-0.017;0.082;0.0036651913542300463;-0.013439035043120384;0.0012217304902151227
01:00:0A:00:00:00:00;1723075595;08/08/24;00:06:35;1.017;-0.018;0.081;0.004886921960860491;-0.009773843921720982;0.0
01:00:0A:00:00:00:00;1723075596;08/08/24;00:06:36;1.018;-0.018;0.085;0.0036651913542300463;-0.012217304669320583;0.0024434609804302454
01:00:0A:00:00:00:00;1723075597;08/08/24;00:06:37;1.016;-0.018;0.082;0.0024434609804302454;-0.014660765416920185;0.0073303827084600925
01:00:0A:00:00:00:00;1723075598;08/08/24;00:06:38;1.014;-0.019;0.081;0.0036651913542300463;-0.006108652334660292;0.00855211354792118
01:00:0A:00:00:00:00;1723075599;08/08/24;00:06:39;1.009;-0.016;0.083;0.0036651913542300463;-0.0073303827084600925;0.004886921960860491
01:00:0A:00:00:00:00;1723075600;08/08/24;00:06:40;1.009;-0.016;0.08;0.0036651913542300463;-0.01710422709584236;0.0024434609804302454
01:00:0A:00:00:00:00;1723075601;08/08/24;00:06:41;1.013;-0.019;0.081;0.004886921960860491;-0.009773843921720982;0.0
01:00:0A:00:00:00:00;1723075602;08/08/24;00:06:42;1.017;-0.019;0.086;0.0036651913542300463;-0.012217304669320583;0.0036651913542300463
01:00:0A:00:00:00:00;1723075603;08/08/24;00:06:43;1.018;-0.018;0.083;0.0024434609804302454;-0.013439035043120384;0.004886921960860491
01:00:0A:00:00:00:00;1723075604;08/08/24;00:06:44;1.016;-0.017;0.081;0.004886921960860491;-0.0036651913542300463;0.0036651913542300463
01:00:0A:00:00:00:00;1723075605;08/08/24;00:06:45;1.016;-0.017;0.084;0.0036651913542300463;-0.010995574295520782;0.0024434609804302454
01:00:0A:00:00:00:00;1723075606;08/08/24;00:06:46;1.016;-0.018;0.081;0.0024434609804302454;-0.01710422709584236;0.0024434609804302454
01:00:0A:00:00:00:00;1723075607;08/08/24;00:06:47;1.017;-0.02;0.081;0.0036651913542300463;-0.00855211354792118;0.0036651913542300463
01:00:0A:00:00:00:00;1723075608;08/08/24;00:06:48;1.016;-0.018;0.085;0.0012217304902151227;-0.013439035043120384;0.0073303827084600925
01:00:0A:00:00:00:00;1723075609;08/08/24;00:06:49;1.014;-0.018;0.081;0.0012217304902151227;-0.014660765416920185;0.00855211354792118
01:00:0A:00:00:00:00;1723075610;08/08/24;00:06:50;1.009;-0.017;0.081;0.0024434609804302454;-0.0036651913542300463;0.004886921960860491
01:00:0A:00:00:00:00;1723075611;08/08/24;00:06:51;1.008;-0.016;0.084;0.0012217304902151227;-0.013439035043120384;0.0
01:00:0A:00:00:00:00;1723075612;08/08/24;00:06:52;1.011;-0.018;0.08;0.0012217304902151227;-0.018325956538319588;-0.0012217304902151227
01:00:0A:00:00:00:00;1723075613;08/08/24;00:06:53;1.02;-0.019;0.083;0.0024434609804302454;-0.0073303827084600925;0.0012217304902151227
01:00:0A:00:00:00:00;1723075614;08/08/24;00:06:54;1.021;-0.019;0.087;0.0012217304902151227;-0.012217304669320583;0.004886921960860491
01:00:0A:00:00:00:00;1723075615;08/08/24;00:06:55;1.016;-0.019;0.081;0.0;-0.012217304669320583;0.00855211354792118
01:00:0A:00:00:00:00;1723075616;08/08/24;00:06:56;1.012;-0.015;0.082;0.0024434609804302454;0.0;0.0073303827084600925
01:00:0A:00:00:00:00;1723075617;08/08/24;00:06:57;1.007;-0.015;0.082;0.0;-0.015882495790719986;0.0036651913542300463
01:00:0A:00:00:00:00;1723075618;08/08/24;00:06:58;1.01;-0.018;0.079;0.0;-0.015882495790719986;0.0
01:00:0A:00:00:00:00;1723075619;08/08/24;00:06:59;1.017;-0.018;0.084;0.0024434609804302454;-0.0073303827084600925;0.0
01:00:0A:00:00:00:00;1723075620;08/08/24;00:07:00;1.02;-0.02;0.087;0.0;-0.012217304669320583;0.006108652334660292
01:00:0A:00:00:00:00;1723075621;08/08/24;00:07:01;1.016;-0.018;0.08;0.0;-0.010995574295520782;0.00855211354792118
01:00:0A:00:00:00:00;1723075622;08/08/24;00:07:02;1.011;-0.016;0.084;0.0012217304902151227;-0.0024434609804302454;0.006108652334660292
01:00:0A:00:00:00:00;1723075623;08/08/24;00:07:03;1.008;-0.015;0.085;-0.0012217304902151227;-0.015882495790719986;0.0036651913542300463
01:00:0A:00:00:00:00;1723075624;08/08/24;00:07:04;1.013;-0.017;0.079;0.0012217304902151227;-0.012217304669320583;-0.0012217304902151227
01:00:0A:00:00:00:00;1723075625;08/08/24;00:07:05;1.018;-0.018;0.085;0.0012217304902151227;-0.006108652334660292;0.0
01:00:0A:00:00:00:00;1723075626;08/08/24;00:07:06;1.02;-0.019;0.085;-0.0012217304902151227;-0.012217304669320583;0.004886921960860491
01:00:0A:00:00:00:00;1723075627;08/08/24;00:07:07;1.019;-0.019;0.08;0.0;-0.0073303827084600925;0.00855211354792118
01:00:0A:00:00:00:00;1723075628;08/08/24;00:07:08;1.012;-0.016;0.082;0.0012217304902151227;-0.0036651913542300463;0.00855211354792118
01:00:0A:00:00:00:00;1723075629;08/08/24;00:07:09;1.009;-0.016;0.082;-0.0012217304902151227;-0.02076941914856434;0.0036651913542300463
01:00:0A:00:00:00:00;1723075630;08/08/24;00:07:10;1.011;-0.016;0.08;0.0012217304902151227;-0.012217304669320583;0.0
01:00:0A:00:00:00:00;1723075631;08/08/24;00:07:11;1.016;-0.018;0.085;0.0024434609804302454;-0.0073303827084600925;-0.0012217304902151227
01:00:0A:00:00:00:00;1723075632;08/08/24;00:07:12;1.02;-0.02;0.084;0.0;-0.018325956538319588;0.0012217304902151227
01:00:0A:00:00:00:00;1723075633;08/08/24;00:07:13;1.016;-0.019;0.079;0.0012217304902151227;-0.006108652334660292;0.006108652334660292
01:00:0A:00:00:00:00;1723075634;08/08/24;00:07:14;1.015;-0.016;0.085;0.0012217304902151227;-0.0036651913542300463;0.00855211354792118
01:00:0A:00:00:00:00;1723075635;08/08/24;00:07:15;1.011;-0.016;0.082;0.0;-0.018325956538319588;0.004886921960860491
01:00:0A:00:00:00:00;1723075636;08/08/24;00:07:16;1.011;-0.015;0.079;0.0024434609804302454;-0.0073303827084600925;0.0012217304902151227
01:00:0A:00:00:00:00;1723075637;08/08/24;00:07:17;1.015;-0.017;0.086;0.0024434609804302454;-0.0073303827084600925;-0.0012217304902151227
01:00:0A:00:00:00:00;1723075638;08/08/24;00:07:18;1.017;-0.018;0.082;0.0012217304902151227;-0.01710422709584236;0.0
01:00:0A:00:00:00:00;1723075639;08/08/24;00:07:19;1.017;-0.019;0.08;0.0036651913542300463;-0.0073303827084600925;0.0024434609804302454
01:00:0A:00:00:00:00;1723075640;08/08/24;00:07:20;1.015;-0.018;0.085;0.0024434609804302454;-0.006108652334660292;0.0073303827084600925
01:00:0A:00:00:00:00;1723075641;08/08/24;00:07:21;1.014;-0.016;0.081;0.0012217304902151227;-0.018325956538319588;0.006108652334660292
01:00:0A:00:00:00:00;1723075642;08/08/24;00:07:22;1.012;-0.015;0.08;0.004886921960860491;-0.0073303827084600925;0.0036651913542300463
01:00:0A:00:00:00:00;1723075643;08/08/24;00:07:23;1.011;-0.016;0.085;0.004886921960860491;-0.009773843921720982;0.0024434609804302454
01:00:0A:00:00:00:00;1723075644;08/08/24;00:07:24;1.013;-0.017;0.081;0.0036651913542300463;-0.018325956538319588;0.0
01:00:0A:00:00:00:00;1723075645;08/08/24;00:07:25;1.014;-0.019;0.08;0.006108652334660292;-0.006108652334660292;0.0036651913542300463
01:00:0A:00:00:00:00;1723075646;08/08/24;00:07:26;1.016;-0.019;0.086;0.004886921960860491;-0.010995574295520782;0.0073303827084600925
01:00:0A:00:00:00:00;1723075647;08/08/24;00:07:27;1.016;-0.017;0.081;0.004886921960860491;-0.01710422709584236;0.0073303827084600925
01:00:0A:00:00:00:00;1723075648;08/08/24;00:07:28;1.015;-0.016;0.08;0.00855211354792118;-0.004886921960860491;0.006108652334660292
01:00:0A:00:00:00:00;1723075649;08/08/24;00:07:29;1.014;-0.017;0.086;0.0073303827084600925;-0.010995574295520782;0.0024434609804302454
01:00:0A:00:00:00:00;1723075650;08/08/24;00:07:30;1.015;-0.018;0.081;0.0073303827084600925;-0.015882495790719986;0.0012217304902151227
01:00:0A:00:00:00:00;1723075651;08/08/24;00:07:31;1.015;-0.019;0.081;0.009773843921720982;-0.004886921960860491;0.006108652334660292
01:00:0A:00:00:00:00;1723075652;08/08/24;00:07:32;1.015;-0.02;0.085;0.00855211354792118;-0.010995574295520782;0.00855211354792118
01:00:0A:00:00:00:00;1723075653;08/08/24;00:07:33;1.015;-0.018;0.079;0.00855211354792118;-0.015882495790719986;0.009773843921720982
01:00:0A:00:00:00:00;1723075654;08/08/24;00:07:34;1.013;-0.015;0.081;0.010995574295520782;-0.0036651913542300463;0.006108652334660292
01:00:0A:00:00:00:00;1723075655;08/08/24;00:07:35;1.012;-0.016;0.085;0.009773843921720982;-0.013439035043120384;0.0036651913542300463
01:00:0A:00:00:00:00;1723075656;08/08/24;00:07:36;1.015;-0.017;0.079;0.010995574295520782;-0.015882495790719986;0.0012217304902151227
01:00:0A:00:00:00:00;1723075657;08/08/24;00:07:37;1.016;-0.019;0.082;0.012217304669320583;-0.0036651913542300463;0.0024434609804302454
01:00:0A:00:00:00:00;1723075658;08/08/24;00:07:38;1.016;-0.019;0.085;0.010995574295520782;-0.013439035043120384;0.006108652334660292
01:00:0A:00:00:00:00;1723075659;08/08/24;00:07:39;1.017;-0.017;0.08;0.010995574295520782;-0.013439035043120384;0.004886921960860491
01:00:0A:00:00:00:00;1723075660;08/08/24;00:07:40;1.016;-0.016;0.082;0.013439035043120384;-0.0036651913542300463;0.004886921960860491
01:00:0A:00:00:00:00;1723075661;08/08/24;00:07:41;1.013;-0.017;0.084;0.010995574295520782;-0.015882495790719986;0.0012217304902151227
01:00:0A:00:00:00:00;1723075662;08/08/24;00:07:42;1.012;-0.019;0.078;0.012217304669320583;-0.013439035043120384;0.0
01:00:0A:00:00:00:00;1723075663;08/08/24;00:07:43;1.014;-0.019;0.082;0.013439035043120384;-0.004886921960860491;0.004886921960860491
01:00:0A:00:00:00:00;1723075664;08/08/24;00:07:44;1.016;-0.018;0.086;0.010995574295520782;-0.015882495790719986;0.0073303827084600925
01:00:0A:00:00:00:00;1723075665;08/08/24;00:07:45;1.016;-0.018;0.079;0.012217304669320583;-0.013439035043120384;0.0073303827084600925
01:00:0A:00:00:00:00;1723075666;08/08/24;00:07:46;1.015;-0.015;0.084;0.013439035043120384;-0.004886921960860491;0.0036651913542300463
01:00:0A:00:00:00:00;1723075667;08/08/24;00:07:47;1.014;-0.016;0.085;0.013439035043120384;-0.014660765416920185;0.0
01:00:0A:00:00:00:00;1723075668;08/08/24;00:07:48;1.013;-0.018;0.079;0.014660765416920185;-0.009773843921720982;-0.0012217304902151227
01:00:0A:00:00:00:00;1723075669;08/08/24;00:07:49;1.013;-0.02;0.083;0.014660765416920185;-0.0036651913542300463;0.0036651913542300463
01:00:0A:00:00:00:00;1723075670;08/08/24;00:07:50;1.014;-0.02;0.083;0.012217304669320583;-0.01710422709584236;0.0073303827084600925
01:00:0A:00:00:00:00;1723075671;08/08/24;00:07:51;1.017;-0.017;0.079;0.014660765416920185;-0.012217304669320583;0.0073303827084600925
01:00:0A:00:00:00:00;1723075672;08/08/24;00:07:52;1.016;-0.016;0.085;0.015882495790719986;-0.006108652334660292;0.004886921960860491
01:00:0A:00:00:00:00;1723075673;08/08/24;00:07:53;1.015;-0.017;0.084;0.013439035043120384;-0.018325956538319588;0.0036651913542300463
01:00:0A:00:00:00:00;1723075674;08/08/24;00:07:54;1.013;-0.018;0.08;0.015882495790719986;-0.009773843921720982;0.0024434609804302454
01:00:0A:00:00:00:00;1723075675;08/08/24;00:07:55;1.012;-0.018;0.084;0.015882495790719986;-0.006108652334660292;0.004886921960860491
01:00:0A:00:00:00:00;1723075676;08/08/24;00:07:56;1.015;-0.018;0.083;0.014660765416920185;-0.018325956538319588;0.0073303827084600925
01:00:0A:00:00:00:00;1723075677;08/08/24;00:07:57;1.017;-0.018;0.08;0.01710422709584236;-0.00855211354792118;0.006108652334660292
01:00:0A:00:00:00:00;1723075678;08/08/24;00:07:58;1.016;-0.016;0.085;0.01710422709584236;-0.004886921960860491;0.004886921960860491
01:00:0A:00:00:00:00;1723075679;08/08/24;00:07:59;1.013;-0.017;0.082;0.015882495790719986;-0.01710422709584236;0.0024434609804302454
01:00:0A:00:00:00:00;1723075680;08/08/24;00:08:00;1.011;-0.018;0.078;0.018325956538319588;-0.0073303827084600925;0.0024434609804302454
01:00:0A:00:00:00:00;1723075681;08/08/24;00:08:01;1.011;-0.017;0.084;0.018325956538319588;-0.00855211354792118;0.0036651913542300463
01:00:0A:00:00:00:00;1723075682;08/08/24;00:08:02;1.014;-0.018;0.081;0.01710422709584236;-0.019547687843441963;0.004886921960860491
01:00:0A:00:00:00:00;1723075683;08/08/24;00:08:03;1.019;-0.017;0.08;0.019547687843441963;-0.00855211354792118;0.0036651913542300463
01:00:0A:00:00:00:00;1723075684;08/08/24;00:08:04;1.021;-0.018;0.087;0.019547687843441963;-0.00855211354792118;0.006108652334660292
01:00:0A:00:00:00:00;1723075685;08/08/24;00:08:05;1.016;-0.018;0.081;0.01710422709584236;-0.015882495790719986;0.00855211354792118
01:00:0A:00:00:00:00;1723075686;08/08/24;00:08:06;1.013;-0.016;0.08;0.02076941914856434;-0.0036651913542300463;0.006108652334660292
01:00:0A:00:00:00:00;1723075687;08/08/24;00:08:07;1.008;-0.016;0.084;0.019547687843441963;-0.009773843921720982;0.0073303827084600925
01:00:0A:00:00:00:00;1723075688;08/08/24;00:08:08;1.011;-0.016;0.081;0.018325956538319588;-0.019547687843441963;0.0036651913542300463
01:00:0A:00:00:00:00;1723075689;08/08/24;00:08:09;1.014;-0.016;0.079;0.02076941914856434;-0.0073303827084600925;0.0
01:00:0A:00:00:00:00;1723075690;08/08/24;00:08:10;1.018;-0.017;0.086;0.019547687843441963;-0.012217304669320583;0.0036651913542300463
01:00:0A:00:00:00:00;1723075691;08/08/24;00:08:11;1.018;-0.018;0.08;0.01710422709584236;-0.015882495790719986;0.0073303827084600925
01:00:0A:00:00:00:00;1723075692;08/08/24;00:08:12;1.015;-0.017;0.08;0.02076941914856434;-0.0036651913542300463;0.006108652334660292
01:00:0A:00:00:00:00;1723075693;08/08/24;00:08:13;1.013;-0.016;0.084;0.018325956538319588;-0.010995574295520782;0.0073303827084600925
01:00:0A:00:00:00:00;1723075694;08/08/24;00:08:14;1.014;-0.016;0.079;0.018325956538319588;-0.018325956538319588;0.0036651913542300463
01:00:0A:00:00:00:00;1723075695;08/08/24;00:08:15;1.016;-0.016;0.081;0.02076941914856434;-0.006108652334660292;-0.0012217304902151227
01:00:0A:00:00:00:00;1723075696;08/08/24;00:08:16;1.016;-0.018;0.086;0.018325956538319588;-0.013439035043120384;0.004886921960860491
01:00:0A:00:00:00:00;1723075697;08/08/24;00:08:17;1.014;-0.019;0.08;0.01710422709584236;-0.015882495790719986;0.0073303827084600925
01:00:0A:00:00:00:00;1723075698;08/08/24;00:08:18;1.013;-0.017;0.081;0.019547687843441963;-0.0024434609804302454;0.006108652334660292
01:00:0A:00:00:00:00;1723075699;08/08/24;00:08:19;1.013;-0.014;0.083;0.01710422709584236;-0.013439035043120384;0.0073303827084600925
01:00:0A:00:00:00:00;1723075700;08/08/24;00:08:20;1.015;-0.017;0.079;0.018325956538319588;-0.015882495790719986;0.0036651913542300463
01:00:0A:00:00:00:00;1723075701;08/08/24;00:08:21;1.015;-0.016;0.081;0.02076941914856434;-0.0073303827084600925;-0.0024434609804302454
01:00:0A:00:00:00:00;1723075702;08/08/24;00:08:22;1.015;-0.017;0.085;0.01710422709584236;-0.015882495790719986;0.0036651913542300463
01:00:0A:00:00:00:00;1723075703;08/08/24;00:08:23;1.016;-0.02;0.081;0.018325956538319588;-0.012217304669320583;0.006108652334660292
01:00:0A:00:00:00:00;1723075704;08/08/24;00:08:24;1.015;-0.017;0.082;0.019547687843441963;-0.0036651913542300463;0.004886921960860491
01:00:0A:00:00:00:00;1723075705;08/08/24;00:08:25;1.015;-0.015;0.084;0.01710422709584236;-0.014660765416920185;0.00855211354792118
01:00:0A:00:00:00:00;1723075706;08/08/24;00:08:26;1.014;-0.017;0.079;0.018325956538319588;-0.013439035043120384;0.0036651913542300463
01:00:0A:00:00:00:00;1723075707;08/08/24;00:08:27;1.014;-0.016;0.082;0.019547687843441963;-0.0073303827084600925;-0.0012217304902151227
01:00:0A:00:00:00:00;1723075708;08/08/24;00:08:28;1.013;-0.017;0.085;0.01710422709584236;-0.01710422709584236;0.006108652334660292
01:00:0A:00:00:00:00;1723075709;08/08/24;00:08:29;1.014;-0.02;0.08;0.01710422709584236;-0.013439035043120384;0.006108652334660292
01:00:0A:00:00:00:00;1723075710;08/08/24;00:08:30;1.016;-0.016;0.084;0.019547687843441963;-0.0036651913542300463;0.0036651913542300463
01:00:0A:00:00:00:00;1723075711;08/08/24;00:08:31;1.017;-0.015;0.083;0.015882495790719986;-0.014660765416920185;0.00855211354792118
01:00:0A:00:00:00:00;1723075712;08/08/24;00:08:32;1.018;-0.018;0.08;0.018325956538319588;-0.013439035043120384;0.0036651913542300463
01:00:0A:00:00:00:00;1723075713;08/08/24;00:08:33;1.015;-0.015;0.084;0.019547687843441963;-0.004886921960860491;0.0
01:00:0A:00:00:00:00;1723075714;08/08/24;00:08:34;1.012;-0.018;0.084;0.015882495790719986;-0.015882495790719986;0.0073303827084600925
01:00:0A:00:00:00:00;1723075715;08/08/24;00:08:35;1.013;-0.02;0.081;0.01710422709584236;-0.010995574295520782;0.006108652334660292
01:00:0A:00:00:00:00;1723075716;08/08/24;00:08:36;1.016;-0.016;0.083;0.018325956538319588;-0.006108652334660292;0.004886921960860491
01:00:0A:00:00:00:00;1723075717;08/08/24;00:08:37;1.016;-0.015;0.083;0.014660765416920185;-0.015882495790719986;0.009773843921720982
01:00:0A:00:00:00:00;1723075718;08/08/24;00:08:38;1.016;-0.019;0.08;0.01710422709584236;-0.009773843921720982;0.0036651913542300463
01:00:0A:00:00:00:00;1723075719;08/08/24;00:08:39;1.014;-0.016;0.085;0.018325956538319588;-0.0073303827084600925;0.0024434609804302454
01:00:0A:00:00:00:00;1723075720;08/08/24;00:08:40;1.013;-0.017;0.082;0.014660765416920185;-0.01710422709584236;0.00855211354792118
01:00:0A:00:00:00:00;1723075721;08/08/24;00:08:41;1.015;-0.019;0.08;0.01710422709584236;-0.00855211354792118;0.0036651913542300463
01:00:0A:00:00:00:00;1723075722;08/08/24;00:08:42;1.016;-0.016;0.085;0.01710422709584236;-0.0073303827084600925;0.004886921960860491
01:00:0A:00:00:00:00;1723075723;08/08/24;00:08:43;1.016;-0.018;0.082;0.013439035043120384;-0.015882495790719986;0.009773843921720982
01:00:0A:00:00:00:00;1723075724;08/08/24;00:08:44;1.014;-0.018;0.08;0.015882495790719986;-0.009773843921720982;0.0024434609804302454
01:00:0A:00:00:00:00;1723075725;08/08/24;00:08:45;1.012;-0.015;0.085;0.015882495790719986;-0.009773843921720982;0.0012217304902151227
01:00:0A:00:00:00:00;1723075726;08/08/24;00:08:46;1.011;-0.018;0.082;0.013439035043120384;-0.018325956538319588;0.00855211354792118
01:00:0A:00:00:00:00;1723075727;08/08/24;00:08:47;1.015;-0.019;0.081;0.01710422709584236;-0.00855211354792118;0.0012217304902151227
01:00:0A:00:00:00:00;1723075728;08/08/24;00:08:48;1.018;-0.016;0.085;0.015882495790719986;-0.009773843921720982;0.0036651913542300463
01:00:0A:00:00:00:00;1723075729;08/08/24;00:08:49;1.018;-0.018;0.081;0.013439035043120384;-0.015882495790719986;0.009773843921720982
01:00:0A:00:00:00:00;1723075730;08/08/24;00:08:50;1.016;-0.019;0.081;0.015882495790719986;-0.0073303827084600925;0.0024434609804302454
01:00:0A:00:00:00:00;1723075731;08/08/24;00:08:51;1.012;-0.014;0.083;0.014660765416920185;-0.009773843921720982;0.0036651913542300463
01:00:0A:00:00:00:00;1723075732;08/08/24;00:08:52;1.011;-0.017;0.081;0.012217304669320583;-0.01710422709584236;0.0073303827084600925
01:00:0A:00:00:00:00;1723075733;08/08/24;00:08:53;1.012;-0.017;0.081;0.015882495790719986;-0.00855211354792118;0.0
01:00:0A:00:00:00:00;1723075734;08/08/24;00:08:54;1.016;-0.014;0.083;0.014660765416920185;-0.010995574295520782;0.0036651913542300463
01:00:0A:00:00:00:00;1723075735;08/08/24;00:08:55;1.016;-0.019;0.081;0.012217304669320583;-0.015882495790719986;0.00855211354792118
01:00:0A:00:00:00:00;1723075736;08/08/24;00:08:56;1.016;-0.018;0.081;0.015882495790719986;-0.00855211354792118;0.0024434609804302454
01:00:0A:00:00:00:00;1723075737;08/08/24;00:08:57;1.013;-0.015;0.084;0.013439035043120384;-0.012217304669320583;0.004886921960860491
01:00:0A:00:00:00:00;1723075738;08/08/24;00:08:58;1.012;-0.019;0.08;0.012217304669320583;-0.015882495790719986;0.00855211354792118
01:00:0A:00:00:00:00;1723075739;08/08/24;00:08:59;1.015;-0.018;0.081;0.015882495790719986;-0.00855211354792118;0.0
01:00:0A:00:00:00:00;1723075740;08/08/24;00:09:00;1.015;-0.014;0.083;0.013439035043120384;-0.012217304669320583;0.004886921960860491
01:00:0A:00:00:00:00;1723075741;08/08/24;00:09:01;1.016;-0.019;0.081;0.012217304669320583;-0.012217304669320583;0.0073303827084600925
01:00:0A:00:00:00:00;1723075742;08/08/24;00:09:02;1.016;-0.019;0.081;0.014660765416920185;-0.0073303827084600925;0.0012217304902151227
01:00:0A:00:00:00:00;1723075743;08/08/24;00:09:03;1.016;-0.016;0.083;0.012217304669320583;-0.012217304669320583;0.00855211354792118
01:00:0A:00:00:00:00;1723075744;08/08/24;00:09:04;1.013;-0.018;0.081;0.012217304669320583;-0.014660765416920185;0.00855211354792118
01:00:0A:00:00:00:00;1723075745;08/08/24;00:09:05;1.011;-0.017;0.082;0.014660765416920185;-0.00855211354792118;0.0
01:00:0A:00:00:00:00;1723075746;08/08/24;00:09:06;1.015;-0.016;0.082;0.012217304669320583;-0.012217304669320583;0.006108652334660292
01:00:0A:00:00:00:00;1723075747;08/08/24;00:09:07;1.016;-0.02;0.081;0.012217304669320583;-0.013439035043120384;0.006108652334660292
01:00:0A:00:00:00:00;1723075748;08/08/24;00:09:08;1.017;-0.018;0.081;0.013439035043120384;-0.009773843921720982;0.0012217304902151227
01:00:0A:00:00:00:00;1723075749;08/08/24;00:09:09;1.016;-0.016;0.084;0.012217304669320583;-0.012217304669320583;0.009773843921720982
01:00:0A:00:00:00:00;1723075750;08/08/24;00:09:10;1.013;-0.02;0.081;0.010995574295520782;-0.012217304669320583;0.00855211354792118
01:00:0A:00:00:00:00;1723075751;08/08/24;00:09:11;1.013;-0.016;0.081;0.014660765416920185;-0.0073303827084600925;-0.0024434609804302454
01:00:0A:00:00:00:00;1723075752;08/08/24;00:09:12;1.013;-0.016;0.082;0.012217304669320583;-0.012217304669320583;0.004886921960860491
01:00:0A:00:00:00:00;1723075753;08/08/24;00:09:13;1.016;-0.019;0.081;0.012217304669320583;-0.013439035043120384;0.004886921960860491
01:00:0A:00:00:00:00;1723075754;08/08/24;00:09:14;1.017;-0.017;0.082;0.013439035043120384;-0.009773843921720982;0.0
01:00:0A:00:00:00:00;1723075755;08/08/24;00:09:15;1.016;-0.015;0.082;0.010995574295520782;-0.012217304669320583;0.00855211354792118
01:00:0A:00:00:00:00;1723075756;08/08/24;00:09:16;1.015;-0.019;0.081;0.012217304669320583;-0.010995574295520782;0.006108652334660292
01:00:0A:00:00:00:00;1723075757;08/08/24;00:09:17;1.013;-0.017;0.082;0.013439035043120384;-0.00855211354792118;0.0
01:00:0A:00:00:00:00;1723075758;08/08/24;00:09:18;1.012;-0.016;0.082;0.010995574295520782;-0.013439035043120384;0.006108652334660292
01:00:0A:00:00:00:00;1723075759;08/08/24;00:09:19;1.015;-0.022;0.081;0.012217304669320583;-0.013439035043120384;0.004886921960860491
01:00:0A:00:00:00:00;1723075760;08/08/24;00:09:20;1.017;-0.018;0.083;0.013439035043120384;-0.010995574295520782;0.0024434609804302454
01:00:0A:00:00:00:00;1723075761;08/08/24;00:09:21;1.016;-0.016;0.082;0.012217304669320583;-0.012217304669320583;0.0073303827084600925
01:00:0A:00:00:00:00;1723075762;08/08/24;00:09:22;1.014;-0.019;0.082;0.013439035043120384;-0.009773843921720982;0.004886921960860491
01:00:0A:00:00:00:00;1723075763;08/08/24;00:09:23;1.013;-0.016;0.082;0.014660765416920185;-0.00855211354792118;0.0012217304902151227
01:00:0A:00:00:00:00;1723075764;08/08/24;00:09:24;1.013;-0.018;0.082;0.013439035043120384;-0.012217304669320583;0.006108652334660292
01:00:0A:00:00:00:00;1723075765;08/08/24;00:09:25;1.015;-0.02;0.081;0.015882495790719986;-0.012217304669320583;0.004886921960860491
01:00:0A:00:00:00:00;1723075766;08/08/24;00:09:26;1.015;-0.017;0.082;0.01710422709584236;-0.010995574295520782;0.0024434609804302454
01:00:0A:00:00:00:00;1723075767;08/08/24;00:09:27;1.015;-0.017;0.083;0.015882495790719986;-0.012217304669320583;0.00855211354792118
01:00:0A:00:00:00:00;1723075768;08/08/24;00:09:28;1.013;-0.019;0.082;0.01710422709584236;-0.009773843921720982;0.0036651913542300463
01:00:0A:00:00:00:00;1723075769;08/08/24;00:09:29;1.014;-0.017;0.082;0.018325956538319588;-0.010995574295520782;0.0012217304902151227
01:00:0A:00:00:00:00;1723075770;08/08/24;00:09:30;1.016;-0.019;0.082;0.01710422709584236;-0.013439035043120384;0.0073303827084600925
01:00:0A:00:00:00:00;1723075771;08/08/24;00:09:31;1.016;-0.02;0.081;0.02932153083384037;-0.018325956538319588;0.0036651913542300463
01:00:0A:00:00:00:00;1723075772;08/08/24;00:09:32;1.016;-0.016;0.081;0.03420845419168472;-0.0073303827084600925;0.006108652334660292
01:00:0A:00:00:00:00;1723075773;08/08/24;00:09:33;1.015;-0.016;0.081;0.04886921867728233;-0.0073303827084600925;0.009773843921720982
01:00:0A:00:00:00:00;1723075774;08/08/24;00:09:34;1.014;-0.021;0.084;0.05497787147760391;-0.010995574295520782;0.006108652334660292
01:00:0A:00:00:00:00;1723075775;08/08/24;00:09:35;1.015;-0.017;0.081;0.05253440886735916;-0.013439035043120384;0.0024434609804302454
01:00:0A:00:00:00:00;1723075776;08/08/24;00:09:36;1.015;-0.018;0.082;0.051312677562236786;-0.010995574295520782;0.009773843921720982
01:00:0A:00:00:00:00;1723075777;08/08/24;00:09:37;1.015;-0.02;0.08;0.06230825558304787;-0.019547687843441963;0.010995574295520782
01:00:0A:00:00:00:00;1723075778;08/08/24;00:09:38;1.015;-0.02;0.078;0.08185594528913498;-0.012217304669320583;0.006108652334660292
01:00:0A:00:00:00:00;1723075779;08/08/24;00:09:39;1.015;-0.017;0.079;0.09651670604944229;-0.0036651913542300463;0.006108652334660292
01:00:0A:00:00:00:00;1723075780;08/08/24;00:09:40;1.013;-0.016;0.084;0.09529497474431992;-0.0073303827084600925;0.009773843921720982
01:00:0A:00:00:00:00;1723075781;08/08/24;00:09:41;1.014;-0.019;0.086;0.09040805697441101;-0.01710422709584236;0.00855211354792118
01:00:0A:00:00:00:00;1723075782;08/08/24;00:09:42;1.016;-0.018;0.081;0.08796459436416626;-0.015882495790719986;0.0073303827084600925
01:00:0A:00:00:00:00;1723075783;08/08/24;00:09:43;1.016;-0.016;0.082;0.08796459436416626;-0.006108652334660292;0.00855211354792118
01:00:0A:00:00:00:00;1723075784;08/08/24;00:09:44;1.016;-0.017;0.085;0.08429940044879913;-0.010995574295520782;0.010995574295520782
01:00:0A:00:00:00:00;1723075785;08/08/24;00:09:45;1.014;-0.017;0.081;0.08185594528913498;-0.014660765416920185;0.006108652334660292
01:00:0A:00:00:00:00;1723075786;08/08/24;00:09:46;1.012;-0.018;0.081;0.08307767659425735;-0.0073303827084600925;0.006108652334660292
01:00:0A:00:00:00:00;1723075787;08/08/24;00:09:47;1.012;-0.017;0.084;0.07941248267889023;-0.010995574295520782;0.009773843921720982
01:00:0A:00:00:00:00;1723075788;08/08/24;00:09:48;1.013;-0.019;0.081;0.07819075137376785;-0.015882495790719986;0.0073303827084600925
01:00:0A:00:00:00:00;1723075789;08/08/24;00:09:49;1.016;-0.015;0.081;0.07819075137376785;-0.009773843921720982;0.006108652334660292
01:00:0A:00:00:00:00;1723075790;08/08/24;00:09:50;1.017;-0.017;0.083;0.0757472887635231;-0.009773843921720982;0.00855211354792118
01:00:0A:00:00:00:00;1723075791;08/08/24;00:09:51;1.016;-0.018;0.083;0.07452555745840073;-0.014660765416920185;0.00855211354792118
01:00:0A:00:00:00:00;1723075792;08/08/24;00:09:52;1.016;-0.017;0.081;0.07452555745840073;-0.010995574295520782;0.006108652334660292
01:00:0A:00:00:00:00;1723075793;08/08/24;00:09:53;1.013;-0.018;0.084;0.07330382615327835;-0.00855211354792118;0.009773843921720982
01:00:0A:00:00:00:00;1723075794;08/08/24;00:09:54;1.013;-0.018;0.083;0.07208210229873657;-0.014660765416920185;0.00855211354792118
01:00:0A:00:00:00:00;1723075795;08/08/24;00:09:55;1.016;-0.017;0.081;0.07208210229873657;-0.013439035043120384;0.006108652334660292
01:00:0A:00:00:00:00;1723075796;08/08/24;00:09:56;1.017;-0.018;0.083;0.0708603635430336;-0.00855211354792118;0.0073303827084600925
01:00:0A:00:00:00:00;1723075797;08/08/24;00:09:57;1.016;-0.018;0.085;0.06963863223791122;-0.014660765416920185;0.00855211354792118
01:00:0A:00:00:00:00;1723075798;08/08/24;00:09:58;1.013;-0.017;0.08;0.06963863223791122;-0.012217304669320583;0.0073303827084600925
01:00:0A:00:00:00:00;1723075799;08/08/24;00:09:59;1.012;-0.016;0.083;0.06963863223791122;-0.0073303827084600925;0.0073303827084600925
01:00:0A:00:00:00:00;1723075800;08/08/24;00:10:00;1.014;-0.017;0.083;0.06719517707824707;-0.014660765416920185;0.0073303827084600925
01:00:0A:00:00:00:00;1723075801;08/08/24;00:10:01;1.015;-0.017;0.081;0.06719517707824707;-0.012217304669320583;0.006108652334660292
01:00:0A:00:00:00:00;1723075802;08/08/24;00:10:02;1.016;-0.017;0.083;0.06719517707824707;-0.009773843921720982;0.006108652334660292
01:00:0A:00:00:00:00;1723075803;08/08/24;00:10:03;1.016;-0.016;0.085;0.0659734457731247;-0.013439035043120384;0.009773843921720982
01:00:0A:00:00:00:00;1723075804;08/08/24;00:10:04;1.014;-0.018;0.081;0.0659734457731247;-0.010995574295520782;0.00855211354792118
01:00:0A:00:00:00:00;1723075805;08/08/24;00:10:05;1.013;-0.017;0.083;0.0659734457731247;-0.0073303827084600925;0.0073303827084600925
01:00:0A:00:00:00:00;1723075806;08/08/24;00:10:06;1.011;-0.016;0.083;0.06352998316287994;-0.014660765416920185;0.00855211354792118
01:00:0A:00:00:00:00;1723075807;08/08/24;00:10:07;1.016;-0.017;0.081;0.06475171446800232;-0.014660765416920185;0.0073303827084600925
01:00:0A:00:00:00:00;1723075808;08/08/24;00:10:08;1.016;-0.017;0.082;0.06475171446800232;-0.009773843921720982;0.006108652334660292
01:00:0A:00:00:00:00;1723075809;08/08/24;00:10:09;1.016;-0.017;0.084;0.06230825558304787;-0.013439035043120384;0.009773843921720982
01:00:0A:00:00:00:00;1723075810;08/08/24;00:10:10;1.016;-0.018;0.081;0.06230825558304787;-0.010995574295520782;0.00855211354792118
01:00:0A:00:00:00:00;1723075811;08/08/24;00:10:11;1.013;-0.016;0.081;0.06352998316287994;-0.0073303827084600925;0.006108652334660292
01:00:0A:00:00:00:00;1723075812;08/08/24;00:10:12;1.014;-0.017;0.082;0.06108652427792549;-0.014660765416920185;0.00855211354792118
01:00:0A:00:00:00:00;1723075813;08/08/24;00:10:13;1.014;-0.017;0.081;0.06230825558304787;-0.013439035043120384;0.006108652334660292
01:00:0A:00:00:00:00;1723075814;08/08/24;00:10:14;1.017;-0.016;0.084;0.06230825558304787;-0.009773843921720982;0.006108652334660292
01:00:0A:00:00:00:00;1723075815;08/08/24;00:10:15;1.016;-0.016;0.084;0.059864792972803116;-0.013439035043120384;0.009773843921720982
01:00:0A:00:00:00:00;1723075816;08/08/24;00:10:16;1.014;-0.018;0.081;0.059864792972803116;-0.010995574295520782;0.00855211354792118
01:00:0A:00:00:00:00;1723075817;08/08/24;00:10:17;1.012;-0.016;0.082;0.059864792972803116;-0.00855211354792118;0.006108652334660292
01:00:0A:00:00:00:00;1723075818;08/08/24;00:10:18;1.012;-0.017;0.083;0.05742133408784866;-0.014660765416920185;0.00855211354792118
01:00:0A:00:00:00:00;1723075819;08/08/24;00:10:19;1.014;-0.018;0.081;0.05742133408784866;-0.013439035043120384;0.006108652334660292
01:00:0A:00:00:00:00;1723075820;08/08/24;00:10:20;1.016;-0.016;0.084;0.05864306166768074;-0.009773843921720982;0.004886921960860491
01:00:0A:00:00:00:00;1723075821;08/08/24;00:10:21;1.016;-0.017;0.083;0.05497787147760391;-0.012217304669320583;0.009773843921720982
01:00:0A:00:00:00:00;1723075822;08/08/24;00:10:22;1.014;-0.019;0.081;0.05619959905743599;-0.010995574295520782;0.0073303827084600925
01:00:0A:00:00:00:00;1723075823;08/08/24;00:10:23;1.013;-0.017;0.081;0.05497787147760391;-0.009773843921720982;0.004886921960860491
01:00:0A:00:00:00:00;1723075824;08/08/24;00:10:24;1.014;-0.018;0.081;0.05375614017248154;-0.013439035043120384;0.009773843921720982
01:00:0A:00:00:00:00;1723075825;08/08/24;00:10:25;1.016;-0.017;0.081;0.05375614017248154;-0.012217304669320583;0.006108652334660292
01:00:0A:00:00:00:00;1723075826;08/08/24;00:10:26;1.015;-0.014;0.083;0.05375614017248154;-0.010995574295520782;0.004886921960860491
01:00:0A:00:00:00:00;1723075827;08/08/24;00:10:27;1.015;-0.017;0.083;0.051312677562236786;-0.010995574295520782;0.009773843921720982
01:00:0A:00:00:00:00;1723075828;08/08/24;00:10:28;1.014;-0.019;0.082;0.051312677562236786;-0.010995574295520782;0.006108652334660292
01:00:0A:00:00:00:00;1723075829;08/08/24;00:10:29;1.012;-0.016;0.081;0.051312677562236786;-0.010995574295520782;0.006108652334660292
01:00:0A:00:00:00:00;1723075830;08/08/24;00:10:30;1.016;-0.017;0.082;0.04886921867728233;-0.012217304669320583;0.00855211354792118
01:00:0A:00:00:00:00;1723075831;08/08/24;00:10:31;1.015;-0.018;0.081;0.04886921867728233;-0.012217304669320583;0.004886921960860491
01:00:0A:00:00:00:00;1723075832;08/08/24;00:10:32;1.016;-0.016;0.083;0.04886921867728233;-0.010995574295520782;0.004886921960860491
01:00:0A:00:00:00:00;1723075833;08/08/24;00:10:33;1.016;-0.017;0.082;0.04642575979232788;-0.010995574295520782;0.00855211354792118
01:00:0A:00:00:00:00;1723075834;08/08/24;00:10:34;1.015;-0.017;0.081;0.04642575979232788;-0.010995574295520782;0.006108652334660292
01:00:0A:00:00:00:00;1723075835;08/08/24;00:10:35;1.014;-0.016;0.082;0.04642575979232788;-0.010995574295520782;0.006108652334660292
01:00:0A:00:00:00:00;1723075836;08/08/24;00:10:36;1.015;-0.017;0.082;0.045204028487205505;-0.010995574295520782;0.00855211354792118
01:00:0A:00:00:00:00;1723075837;08/08/24;00:10:37;1.016;-0.018;0.082;0.04398229718208313;-0.012217304669320583;0.006108652334660292
01:00:0A:00:00:00:00;1723075838;08/08/24;00:10:38;1.015;-0.016;0.082;0.04398229718208313;-0.010995574295520782;0.004886921960860491
01:00:0A:00:00:00:00;1723075839;08/08/24;00:10:39;1.015;-0.017;0.082;0.042760565876960754;-0.009773843921720982;0.00855211354792118
01:00:0A:00:00:00:00;1723075840;08/08/24;00:10:40;1.014;-0.018;0.082;0.04153883829712868;-0.012217304669320583;0.006108652334660292
01:00:0A:00:00:00:00;1723075841;08/08/24;00:10:41;1.015;-0.016;0.081;0.04153883829712868;-0.010995574295520782;0.004886921960860491
01:00:0A:00:00:00:00;1723075842;08/08/24;00:10:42;1.015;-0.017;0.081;0.040317103266716;-0.010995574295520782;0.0073303827084600925
01:00:0A:00:00:00:00;1723075843;08/08/24;00:10:43;1.015;-0.017;0.081;0.039095375686883926;-0.012217304669320583;0.004886921960860491
01:00:0A:00:00:00:00;1723075844;08/08/24;00:10:44;1.016;-0.016;0.081;0.039095375686883926;-0.010995574295520782;0.004886921960860491
01:00:0A:00:00:00:00;1723075845;08/08/24;00:10:45;1.015;-0.017;0.082;0.03787364438176155;-0.009773843921720982;0.0073303827084600925
01:00:0A:00:00:00:00;1723075846;08/08/24;00:10:46;1.013;-0.017;0.081;0.03787364438176155;-0.012217304669320583;0.006108652334660292
01:00:0A:00:00:00:00;1723075847;08/08/24;00:10:47;1.013;-0.016;0.081;0.036651913076639175;-0.010995574295520782;0.004886921960860491
01:00:0A:00:00:00:00;1723075848;08/08/24;00:10:48;1.014;-0.017;0.083;0.0354301817715168;-0.010995574295520782;0.006108652334660292
01:00:0A:00:00:00:00;1723075849;08/08/24;00:10:49;1.015;-0.018;0.081;0.03420845419168472;-0.013439035043120384;0.004886921960860491
01:00:0A:00:00:00:00;1723075850;08/08/24;00:10:50;1.016;-0.017;0.082;0.03420845419168472;-0.010995574295520782;0.004886921960860491
01:00:0A:00:00:00:00;1723075851;08/08/24;00:10:51;1.015;-0.018;0.082;0.03420845419168472;-0.010995574295520782;0.006108652334660292
01:00:0A:00:00:00:00;1723075852;08/08/24;00:10:52;1.015;-0.017;0.083;0.03298672288656235;-0.012217304669320583;0.006108652334660292
01:00:0A:00:00:00:00;1723075853;08/08/24;00:10:53;1.015;-0.017;0.081;0.03298672288656235;-0.009773843921720982;0.004886921960860491
01:00:0A:00:00:00:00;1723075854;08/08/24;00:10:54;1.015;-0.017;0.082;0.03176499158143997;-0.010995574295520782;0.006108652334660292
01:00:0A:00:00:00:00;1723075855;08/08/24;00:10:55;1.015;-0.017;0.082;0.03176499158143997;-0.013439035043120384;0.006108652334660292
01:00:0A:00:00:00:00;1723075856;08/08/24;00:10:56;1.015;-0.017;0.081;0.03176499158143997;-0.010995574295520782;0.0036651913542300463
01:00:0A:00:00:00:00;1723075857;08/08/24;00:10:57;1.015;-0.016;0.083;0.03176499158143997;-0.010995574295520782;0.006108652334660292
01:00:0A:00:00:00:00;1723075858;08/08/24;00:10:58;1.016;-0.017;0.082;0.030543262138962746;-0.012217304669320583;0.006108652334660292
01:00:0A:00:00:00:00;1723075859;08/08/24;00:10:59;1.013;-0.018;0.081;0.030543262138962746;-0.010995574295520782;0.004886921960860491
01:00:0A:00:00:00:00;1723075860;08/08/24;00:11:00;1.013;-0.016;0.082;0.02932153083384037;-0.010995574295520782;0.006108652334660292
01:00:0A:00:00:00:00;1723075861;08/08/24;00:11:01;1.013;-0.018;0.081;0.02932153083384037;-0.013439035043120384;0.006108652334660292
01:00:0A:00:00:00:00;1723075862;08/08/24;00:11:02;1.015;-0.017;0.082;0.02932153083384037;-0.010995574295520782;0.0036651913542300463
01:00:0A:00:00:00:00;1723075863;08/08/24;00:11:03;1.016;-0.017;0.082;0.028099799528717995;-0.010995574295520782;0.004886921960860491
01:00:0A:00:00:00:00;1723075864;08/08/24;00:11:04;1.015;-0.017;0.082;0.028099799528717995;-0.010995574295520782;0.0073303827084600925
01:00:0A:00:00:00:00;1723075865;08/08/24;00:11:05;1.016;-0.016;0.083;0.028099799528717995;-0.009773843921720982;0.004886921960860491
01:00:0A:00:00:00:00;1723075866;08/08/24;00:11:06;1.012;-0.017;0.082;0.028099799528717995;-0.010995574295520782;0.004886921960860491
01:00:0A:00:00:00:00;1723075867;08/08/24;00:11:07;1.013;-0.018;0.081;0.02687807008624077;-0.013439035043120384;0.004886921960860491
01:00:0A:00:00:00:00;1723075868;08/08/24;00:11:08;1.015;-0.017;0.083;0.02687807008624077;-0.012217304669320583;0.0036651913542300463
01:00:0A:00:00:00:00;1723075869;08/08/24;00:11:09;1.016;-0.018;0.085;0.03420845419168472;0.0012217304902151227;0.01710422709584236
01:00:0A:00:00:00:00;1723075870;08/08/24;00:11:10;1.015;-0.021;0.087;0.03298672288656235;-0.01710422709584236;0.0024434609804302454
01:00:0A:00:00:00:00;1723075871;08/08/24;00:11:11;1.015;-0.018;0.082;0.03298672288656235;-0.010995574295520782;0.0036651913542300463
01:00:0A:00:00:00:00;1723075872;08/08/24;00:11:12;1.013;-0.016;0.081;0.03176499158143997;-0.010995574295520782;0.004886921960860491
01:00:0A:00:00:00:00;1723075873;08/08/24;00:11:13;1.013;-0.018;0.082;0.030543262138962746;-0.012217304669320583;0.0073303827084600925
01:00:0A:00:00:00:00;1723075874;08/08/24;00:11:14;1.016;-0.018;0.083;0.030543262138962746;-0.012217304669320583;0.0036651913542300463
01:00:0A:00:00:00:00;1723075875;08/08/24;00:11:15;1.016;-0.016;0.082;0.02932153083384037;-0.010995574295520782;0.004886921960860491
01:00:0A:00:00:00:00;1723075876;08/08/24;00:11:16;1.016;-0.017;0.083;0.028099799528717995;-0.009773843921720982;0.00855211354792118
01:00:0A:00:00:00:00;1723075877;08/08/24;00:11:17;1.013;-0.018;0.082;0.028099799528717995;-0.009773843921720982;0.004886921960860491
01:00:0A:00:00:00:00;1723075878;08/08/24;00:11:18;1.013;-0.016;0.081;0.02687807008624077;-0.012217304669320583;0.004886921960860491
01:00:0A:00:00:00:00;1723075879;08/08/24;00:11:19;1.015;-0.017;0.081;0.025656338781118393;-0.012217304669320583;0.006108652334660292
01:00:0A:00:00:00:00;1723075880;08/08/24;00:11:20;1.015;-0.019;0.082;0.025656338781118393;-0.012217304669320583;0.004886921960860491
01:00:0A:00:00:00:00;1723075881;08/08/24;00:11:21;1.016;-0.018;0.083;0.025656338781118393;-0.012217304669320583;0.004886921960860491
01:00:0A:00:00:00:00;1723075882;08/08/24;00:11:22;1.016;-0.019;0.081;0.024434609338641167;-0.010995574295520782;0.006108652334660292
01:00:0A:00:00:00:00;1723075883;08/08/24;00:11:23;1.014;-0.017;0.083;0.024434609338641167;-0.009773843921720982;0.006108652334660292
01:00:0A:00:00:00:00;1723075884;08/08/24;00:11:24;1.013;-0.017;0.082;0.024434609338641167;-0.012217304669320583;0.004886921960860491
01:00:0A:00:00:00:00;1723075885;08/08/24;00:11:25;1.013;-0.017;0.081;0.02321287989616394;-0.012217304669320583;0.004886921960860491
01:00:0A:00:00:00:00;1723075886;08/08/24;00:11:26;1.015;-0.019;0.082;0.02321287989616394;-0.010995574295520782;0.004886921960860491
01:00:0A:00:00:00:00;1723075887;08/08/24;00:11:27;1.015;-0.018;0.083;0.02321287989616394;-0.012217304669320583;0.004886921960860491
01:00:0A:00:00:00:00;1723075888;08/08/24;00:11:28;1.016;-0.018;0.082;0.02321287989616394;-0.010995574295520782;0.004886921960860491
01:00:0A:00:00:00:00;1723075889;08/08/24;00:11:29;1.014;-0.019;0.082;0.02321287989616394;-0.009773843921720982;0.004886921960860491
01:00:0A:00:00:00:00;1723075890;08/08/24;00:11:30;1.015;-0.018;0.082;0.02321287989616394;-0.010995574295520782;0.004886921960860491
01:00:0A:00:00:00:00;1723075891;08/08/24;00:11:31;1.014;-0.019;0.081;0.021991148591041565;-0.012217304669320583;0.004886921960860491
01:00:0A:00:00:00:00;1723075892;08/08/24;00:11:32;1.015;-0.018;0.082;0.021991148591041565;-0.010995574295520782;0.004886921960860491
01:00:0A:00:00:00:00;1723075893;08/08/24;00:11:33;1.015;-0.02;0.082;0.021991148591041565;-0.010995574295520782;0.004886921960860491
01:00:0A:00:00:00:00;1723075894;08/08/24;00:11:34;1.015;-0.017;0.082;0.021991148591041565;-0.010995574295520782;0.004886921960860491
01:00:0A:00:00:00:00;1723075895;08/08/24;00:11:35;1.014;-0.017;0.081;0.021991148591041565;-0.010995574295520782;0.004886921960860491
01:00:0A:00:00:00:00;1723075896;08/08/24;00:11:36;1.013;-0.017;0.082;0.021991148591041565;-0.010995574295520782;0.004886921960860491
01:00:0A:00:00:00:00;1723075897;08/08/24;00:11:37;1.015;-0.017;0.082;0.021991148591041565;-0.012217304669320583;0.004886921960860491
01:00:0A:00:00:00:00;1723075898;08/08/24;00:11:38;1.015;-0.018;0.083;0.021991148591041565;-0.012217304669320583;0.006108652334660292
01:00:0A:00:00:00:00;1723075899;08/08/24;00:11:39;1.015;-0.016;0.083;0.021991148591041565;-0.010995574295520782;0.006108652334660292
01:00:0A:00:00:00:00;1723075900;08/08/24;00:11:40;1.013;-0.018;0.083;0.021991148591041565;-0.010995574295520782;0.004886921960860491
01:00:0A:00:00:00:00;1723075901;08/08/24;00:11:41;1.014;-0.017;0.081;0.02076941914856434;-0.010995574295520782;0.0036651913542300463
01:00:0A:00:00:00:00;1723075902;08/08/24;00:11:42;1.014;-0.019;0.081;0.02076941914856434;-0.012217304669320583;0.004886921960860491
01:00:0A:00:00:00:00;1723075903;08/08/24;00:11:43;1.015;-0.018;0.082;0.02076941914856434;-0.012217304669320583;0.004886921960860491
01:00:0A:00:00:00:00;1723075904;08/08/24;00:11:44;1.016;-0.016;0.081;0.02076941914856434;-0.012217304669320583;0.004886921960860491
01:00:0A:00:00:00:00;1723075905;08/08/24;00:11:45;1.015;-0.017;0.082;0.02076941914856434;-0.010995574295520782;0.006108652334660292
01:00:0A:00:00:00:00;1723075906;08/08/24;00:11:46;1.015;-0.017;0.081;0.02076941914856434;-0.010995574295520782;0.0036651913542300463
01:00:0A:00:00:00:00;1723075907;08/08/24;00:11:47;1.014;-0.018;0.081;0.02076941914856434;-0.010995574295520782;0.004886921960860491
01:00:0A:00:00:00:00;1723075908;08/08/24;00:11:48;1.013;-0.018;0.082;0.02076941914856434;-0.010995574295520782;0.004886921960860491
01:00:0A:00:00:00:00;1723075909;08/08/24;00:11:49;1.014;-0.018;0.082;0.02076941914856434;-0.012217304669320583;0.004886921960860491
01:00:0A:00:00:00:00;1723075910;08/08/24;00:11:50;1.014;-0.017;0.081;0.02076941914856434;-0.012217304669320583;0.004886921960860491
01:00:0A:00:00:00:00;1723075911;08/08/24;00:11:51;1.015;-0.017;0.081;0.02076941914856434;-0.010995574295520782;0.004886921960860491
01:00:0A:00:00:00:00;1723075912;08/08/24;00:11:52;1.015;-0.018;0.081;0.02076941914856434;-0.010995574295520782;0.004886921960860491
01:00:0A:00:00:00:00;1723075913;08/08/24;00:11:53;1.014;-0.018;0.082;0.02076941914856434;-0.010995574295520782;0.004886921960860491
01:00:0A:00:00:00:00;1723075914;08/08/24;00:11:54;1.015;-0.017;0.081;0.019547687843441963;-0.010995574295520782;0.004886921960860491
01:00:0A:00:00:00:00;1723075915;08/08/24;00:11:55;1.014;-0.017;0.083;0.02076941914856434;-0.012217304669320583;0.004886921960860491
01:00:0A:00:00:00:00;1723075916;08/08/24;00:11:56;1.014;-0.016;0.082;0.019547687843441963;-0.012217304669320583;0.004886921960860491
01:00:0A:00:00:00:00;1723075917;08/08/24;00:11:57;1.015;-0.018;0.082;0.019547687843441963;-0.012217304669320583;0.006108652334660292
01:00:0A:00:00:00:00;1723075918;08/08/24;00:11:58;1.014;-0.018;0.081;0.019547687843441963;-0.010995574295520782;0.0036651913542300463
01:00:0A:00:00:00:00;1723075919;08/08/24;00:11:59;1.015;-0.017;0.082;0.019547687843441963;-0.010995574295520782;0.004886921960860491
01:00:0A:00:00:00:00;1723075920;08/08/24;00:12:00;1.014;-0.019;0.081;0.019547687843441963;-0.010995574295520782;0.004886921960860491
01:00:0A:00:00:00:00;1723075921;08/08/24;00:12:01;1.013;-0.018;0.082;0.019547687843441963;-0.010995574295520782;0.004886921960860491
01:00:0A:00:00:00:00;1723075922;08/08/24;00:12:02;1.014;-0.018;0.082;0.019547687843441963;-0.012217304669320583;0.006108652334660292
01:00:0A:00:00:00:00;1723075923;08/08/24;00:12:03;1.014;-0.018;0.082;0.019547687843441963;-0.012217304669320583;0.004886921960860491
01:00:0A:00:00:00:00;1723075924;08/08/24;00:12:04;1.014;-0.018;0.082;0.019547687843441963;-0.010995574295520782;0.0036651913542300463
01:00:0A:00:00:00:00;1723075925;08/08/24;00:12:05;1.015;-0.016;0.083;0.019547687843441963;-0.010995574295520782;0.004886921960860491
01:00:0A:00:00:00:00;1723075926;08/08/24;00:12:06;1.013;-0.018;0.081;0.019547687843441963;-0.010995574295520782;0.004886921960860491
01:00:0A:00:00:00:00;1723075927;08/08/24;00:12:07;1.014;-0.018;0.082;0.019547687843441963;-0.010995574295520782;0.004886921960860491
01:00:0A:00:00:00:00;1723075928;08/08/24;00:12:08;1.013;-0.018;0.082;0.019547687843441963;-0.010995574295520782;0.006108652334660292
01:00:0A:00:00:00:00;1723075929;08/08/24;00:12:09;1.016;-0.017;0.082;0.019547687843441963;-0.012217304669320583;0.004886921960860491
01:00:0A:00:00:00:00;1723075930;08/08/24;00:12:10;1.015;-0.017;0.082;0.019547687843441963;-0.010995574295520782;0.004886921960860491
01:00:0A:00:00:00:00;1723075931;08/08/24;00:12:11;1.015;-0.017;0.082;0.019547687843441963;-0.010995574295520782;0.004886921960860491
01:00:0A:00:00:00:00;1723075932;08/08/24;00:12:12;1.014;-0.017;0.081;0.019547687843441963;-0.010995574295520782;0.0036651913542300463
01:00:0A:00:00:00:00;1723075933;08/08/24;00:12:13;1.014;-0.018;0.081;0.019547687843441963;-0.012217304669320583;0.004886921960860491
01:00:0A:00:00:00:00;1723075934;08/08/24;00:12:14;1.015;-0.017;0.082;0.019547687843441963;-0.012217304669320583;0.004886921960860491
01:00:0A:00:00:00:00;1723075935;08/08/24;00:12:15;1.015;-0.018;0.083;0.019547687843441963;-0.012217304669320583;0.004886921960860491
01:00:0A:00:00:00:00;1723075936;08/08/24;00:12:16;1.015;-0.018;0.081;0.019547687843441963;-0.010995574295520782;0.0036651913542300463
01:00:0A:00:00:00:00;1723075937;08/08/24;00:12:17;1.015;-0.019;0.082;0.019547687843441963;-0.010995574295520782;0.004886921960860491
01:00:0A:00:00:00:00;1723075938;08/08/24;00:12:18;1.014;-0.017;0.082;0.019547687843441963;-0.010995574295520782;0.004886921960860491
01:00:0A:00:00:00:00;1723075939;08/08/24;00:12:19;1.015;-0.017;0.083;0.019547687843441963;-0.012217304669320583;0.004886921960860491
01:00:0A:00:00:00:00;1723075940;08/08/24;00:12:20;1.014;-0.018;0.082;0.019547687843441963;-0.010995574295520782;0.006108652334660292
01:00:0A:00:00:00:00;1723075941;08/08/24;00:12:21;1.015;-0.018;0.082;0.019547687843441963;-0.012217304669320583;0.004886921960860491
01:00:0A:00:00:00:00;1723075942;08/08/24;00:12:22;1.016;-0.017;0.083;0.019547687843441963;-0.010995574295520782;0.004886921960860491
01:00:0A:00:00:00:00;1723075943;08/08/24;00:12:23;1.014;-0.017;0.083;0.019547687843441963;-0.010995574295520782;0.004886921960860491
01:00:0A:00:00:00:00;1723075944;08/08/24;00:12:24;1.014;-0.018;0.083;0.019547687843441963;-0.010995574295520782;0.004886921960860491
01:00:0A:00:00:00:00;1723075945;08/08/24;00:12:25;1.014;-0.018;0.082;0.018325956538319588;-0.012217304669320583;0.004886921960860491
01:00:0A:00:00:00:00;1723075946;08/08/24;00:12:26;1.013;-0.017;0.083;0.018325956538319588;-0.010995574295520782;0.006108652334660292
01:00:0A:00:00:00:00;1723075947;08/08/24;00:12:27;1.016;-0.017;0.083;0.018325956538319588;-0.010995574295520782;0.004886921960860491
01:00:0A:00:00:00:00;1723075948;08/08/24;00:12:28;1.016;-0.018;0.082;0.018325956538319588;-0.010995574295520782;0.004886921960860491
01:00:0A:00:00:00:00;1723075949;08/08/24;00:12:29;1.014;-0.018;0.082;0.018325956538319588;-0.010995574295520782;0.004886921960860491
01:00:0A:00:00:00:00;1723075950;08/08/24;00:12:30;1.013;-0.018;0.082;0.018325956538319588;-0.010995574295520782;0.004886921960860491
01:00:0A:00:00:00:00;1723075951;08/08/24;00:12:31;1.014;-0.019;0.082;0.018325956538319588;-0.010995574295520782;0.004886921960860491
01:00:0A:00:00:00:00;1723075952;08/08/24;00:12:32;1.014;-0.018;0.082;0.018325956538319588;-0.010995574295520782;0.006108652334660292
01:00:0A:00:00:00:00;1723075953;08/08/24;00:12:33;1.016;-0.018;0.083;0.018325956538319588;-0.010995574295520782;0.004886921960860491
01:00:0A:00:00:00:00;1723075954;08/08/24;00:12:34;1.015;-0.017;0.082;0.018325956538319588;-0.010995574295520782;0.004886921960860491
01:00:0A:00:00:00:00;1723075955;08/08/24;00:12:35;1.016;-0.017;0.082;0.018325956538319588;-0.010995574295520782;0.004886921960860491
01:00:0A:00:00:00:00;1723075956;08/08/24;00:12:36;1.015;-0.017;0.082;0.018325956538319588;-0.012217304669320583;0.0036651913542300463
01:00:0A:00:00:00:00;1723075957;08/08/24;00:12:37;1.014;-0.018;0.082;0.018325956538319588;-0.010995574295520782;0.004886921960860491
01:00:0A:00:00:00:00;1723075958;08/08/24;00:12:38;1.015;-0.018;0.082;0.018325956538319588;-0.010995574295520782;0.004886921960860491
01:00:0A:00:00:00:00;1723075959;08/08/24;00:12:39;1.015;-0.018;0.082;0.018325956538319588;-0.010995574295520782;0.004886921960860491
01:00:0A:00:00:00:00;1723075960;08/08/24;00:12:40;1.015;-0.019;0.082;0.018325956538319588;-0.010995574295520782;0.004886921960860491
01:00:0A:00:00:00:00;1723075961;08/08/24;00:12:41;1.014;-0.018;0.082;0.018325956538319588;-0.010995574295520782;0.004886921960860491
01:00:0A:00:00:00:00;1723075962;08/08/24;00:12:42;1.015;-0.017;0.082;0.018325956538319588;-0.012217304669320583;0.0036651913542300463
01:00:0A:00:00:00:00;1723075963;08/08/24;00:12:43;1.014;-0.018;0.082;0.01710422709584236;-0.012217304669320583;0.004886921960860491
01:00:0A:00:00:00:00;1723075964;08/08/24;00:12:44;1.014;-0.018;0.082;0.01710422709584236;-0.010995574295520782;0.004886921960860491
01:00:0A:00:00:00:00;1723075965;08/08/24;00:12:45;1.015;-0.017;0.082;0.01710422709584236;-0.012217304669320583;0.004886921960860491
01:00:0A:00:00:00:00;1723075966;08/08/24;00:12:46;1.015;-0.018;0.082;0.01710422709584236;-0.010995574295520782;0.004886921960860491
01:00:0A:00:00:00:00;1723075967;08/08/24;00:12:47;1.016;-0.018;0.083;0.01710422709584236;-0.010995574295520782;0.004886921960860491
01:00:0A:00:00:00:00;1723075968;08/08/24;00:12:48;1.014;-0.018;0.081;0.01710422709584236;-0.010995574295520782;0.0036651913542300463
01:00:0A:00:00:00:00;1723075969;08/08/24;00:12:49;1.015;-0.019;0.081;0.01710422709584236;-0.010995574295520782;0.004886921960860491
01:00:0A:00:00:00:00;1723075970;08/08/24;00:12:50;1.016;-0.018;0.083;0.01710422709584236;-0.010995574295520782;0.004886921960860491
01:00:0A:00:00:00:00;1723075971;08/08/24;00:12:51;1.014;-0.018;0.082;0.01710422709584236;-0.010995574295520782;0.004886921960860491
01:00:0A:00:00:00:00;1723075972;08/08/24;00:12:52;1.015;-0.017;0.082;0.01710422709584236;-0.010995574295520782;0.004886921960860491
01:00:0A:00:00:00:00;1723075973;08/08/24;00:12:53;1.014;-0.019;0.083;0.01710422709584236;-0.010995574295520782;0.004886921960860491
01:00:0A:00:00:00:00;1723075974;08/08/24;00:12:54;1.014;-0.018;0.083;0.01710422709584236;-0.012217304669320583;0.0036651913542300463
01:00:0A:00:00:00:00;1723075975;08/08/24;00:12:55;1.014;-0.018;0.082;0.015882495790719986;-0.010995574295520782;0.004886921960860491
01:00:0A:00:00:00:00;1723075976;08/08/24;00:12:56;1.014;-0.018;0.081;0.015882495790719986;-0.010995574295520782;0.004886921960860491
01:00:0A:00:00:00:00;1723075977;08/08/24;00:12:57;1.014;-0.019;0.084;0.015882495790719986;-0.010995574295520782;0.004886921960860491
01:00:0A:00:00:00:00;1723075978;08/08/24;00:12:58;1.015;-0.017;0.082;0.015882495790719986;-0.010995574295520782;0.004886921960860491
01:00:0A:00:00:00:00;1723075979;08/08/24;00:12:59;1.014;-0.017;0.082;0.015882495790719986;-0.010995574295520782;0.0036651913542300463
01:00:0A:00:00:00:00;1723075980;08/08/24;00:13:00;1.013;-0.016;0.081;0.015882495790719986;-0.012217304669320583;0.0036651913542300463
01:00:0A:00:00:00:00;1723075981;08/08/24;00:13:01;1.013;-0.018;0.081;0.015882495790719986;-0.010995574295520782;0.004886921960860491
01:00:0A:00:00:00:00;1723075982;08/08/24;00:13:02;1.015;-0.017;0.083;0.01710422709584236;-0.010995574295520782;0.004886921960860491
01:00:0A:00:00:00:00;1723075983;08/08/24;00:13:03;1.015;-0.017;0.082;0.019547687843441963;-0.012217304669320583;0.006108652334660292
01:00:0A:00:00:00:00;1723075984;08/08/24;00:13:04;1.014;-0.018;0.082;0.019547687843441963;-0.012217304669320583;0.006108652334660292
01:00:0A:00:00:00:00;1723075985;08/08/24;00:13:05;1.015;-0.018;0.082;0.019547687843441963;-0.010995574295520782;0.004886921960860491
01:00:0A:00:00:00:00;1723075986;08/08/24;00:13:06;1.015;-0.017;0.082;0.019547687843441963;-0.010995574295520782;0.0036651913542300463
01:00:0A:00:00:00:00;1723075987;08/08/24;00:13:07;1.014;-0.018;0.082;0.01710422709584236;-0.010995574295520782;0.004886921960860491
01:00:0A:00:00:00:00;1723075988;08/08/24;00:13:08;1.014;-0.017;0.082;0.01710422709584236;-0.012217304669320583;0.004886921960860491
01:00:0A:00:00:00:00;1723075989;08/08/24;00:13:09;1.015;-0.018;0.083;0.01710422709584236;-0.010995574295520782;0.004886921960860491
01:00:0A:00:00:00:00;1723075990;08/08/24;00:13:10;1.015;-0.017;0.081;0.015882495790719986;-0.010995574295520782;0.004886921960860491
01:00:0A:00:00:00:00;1723075991;08/08/24;00:13:11;1.016;-0.018;0.082;0.01710422709584236;-0.010995574295520782;0.0036651913542300463
01:00:0A:00:00:00:00;1723075992;08/08/24;00:13:12;1.015;-0.017;0.082;0.015882495790719986;-0.012217304669320583;0.0036651913542300463
01:00:0A:00:00:00:00;1723075993;08/08/24;00:13:13;1.015;-0.018;0.081;0.014660765416920185;-0.012217304669320583;0.004886921960860491
01:00:0A:00:00:00:00;1723075994;08/08/24;00:13:14;1.015;-0.018;0.083;0.015882495790719986;-0.012217304669320583;0.004886921960860491
01:00:0A:00:00:00:00;1723075995;08/08/24;00:13:15;1.014;-0.017;0.083;0.014660765416920185;-0.010995574295520782;0.004886921960860491
01:00:0A:00:00:00:00;1723075996;08/08/24;00:13:16;1.014;-0.017;0.083;0.014660765416920185;-0.010995574295520782;0.004886921960860491
01:00:0A:00:00:00:00;1723075997;08/08/24;00:13:17;1.015;-0.017;0.081;0.014660765416920185;-0.012217304669320583;0.004886921960860491
01:00:0A:00:00:00:00;1723075998;08/08/24;00:13:18;1.016;-0.018;0.082;0.014660765416920185;-0.012217304669320583;0.004886921960860491
01:00:0A:00:00:00:00;1723075999;08/08/24;00:13:19;1.013;-0.018;0.083;0.014660765416920185;-0.010995574295520782;0.004886921960860491
01:00:0A:00:00:00:00;1723076000;08/08/24;00:13:20;1.014;-0.018;0.081;0.014660765416920185;-0.010995574295520782;0.004886921960860491
01:00:0A:00:00:00:00;1723076001;08/08/24;00:13:21;1.015;-0.017;0.083;0.014660765416920185;-0.010995574295520782;0.004886921960860491
01:00:0A:00:00:00:00;1723076002;08/08/24;00:13:22;1.014;-0.017;0.081;0.015882495790719986;-0.010995574295520782;0.004886921960860491
01:00:0A:00:00:00:00;1723076003;08/08/24;00:13:23;1.015;-0.018;0.082;0.015882495790719986;-0.012217304669320583;0.0036651913542300463
01:00:0A:00:00:00:00;1723076004;08/08/24;00:13:24;1.015;-0.017;0.082;0.015882495790719986;-0.010995574295520782;0.004886921960860491
01:00:0A:00:00:00:00;1723076005;08/08/24;00:13:25;1.014;-0.016;0.083;0.015882495790719986;-0.010995574295520782;0.004886921960860491
01:00:0A:00:00:00:00;1723076006;08/08/24;00:13:26;1.013;-0.019;0.082;0.015882495790719986;-0.012217304669320583;0.0036651913542300463
01:00:0A:00:00:00:00;1723076007;08/08/24;00:13:27;1.014;-0.018;0.083;0.019547687843441963;-0.010995574295520782;0.0012217304902151227
01:00:0A:00:00:00:00;1723076008;08/08/24;00:13:28;1.019;-0.019;0.083;0.019547687843441963;-0.00855211354792118;0.004886921960860491
01:00:0A:00:00:00:00;1723076009;08/08/24;00:13:29;1.021;-0.016;0.084;0.02076941914856434;-0.004886921960860491;0.012217304669320583
01:00:0A:00:00:00:00;1723076010;08/08/24;00:13:30;1.012;-0.019;0.078;0.02076941914856434;-0.004886921960860491;0.015882495790719986
01:00:0A:00:00:00:00;1723076011;08/08/24;00:13:31;1.003;-0.016;0.077;0.024434609338641167;-0.006108652334660292;0.00855211354792118
01:00:0A:00:00:00:00;1723076012;08/08/24;00:13:32;0.998;-0.016;0.079;0.02321287989616394;-0.021991148591041565;0.004886921960860491
01:00:0A:00:00:00:00;1723076013;08/08/24;00:13:33;1.011;-0.018;0.082;0.02321287989616394;-0.03787364438176155;-0.00855211354792118
01:00:0A:00:00:00:00;1723076014;08/08/24;00:13:34;1.02;-0.022;0.087;0.02687807008624077;-0.02687807008624077;-0.01710422709584236
01:00:0A:00:00:00:00;1723076015;08/08/24;00:13:35;1.038;-0.022;0.094;0.024434609338641167;0.00855211354792118;0.015882495790719986
01:00:0A:00:00:00:00;1723076016;08/08/24;00:13:36;1.032;-0.021;0.09;0.021991148591041565;0.021991148591041565;0.018325956538319588
01:00:0A:00:00:00:00;1723076017;08/08/24;00:13:37;0.999;-0.003;0.081;0.014660765416920185;0.030543262138962746;0.006108652334660292
01:00:0A:00:00:00:00;1723076018;08/08/24;00:13:38;0.986;0.012;0.093;-0.014660765416920185;0.0;0.004886921960860491
01:00:0A:00:00:00:00;1723076019;08/08/24;00:13:39;1.008;0.012;0.073;-0.045204028487205505;-0.14294245839118958;-0.06108652427792549
01:00:0A:00:00:00:00;1723076020;08/08/24;00:13:40;1.038;0.021;-0.024;-0.02076941914856434;0.010995574295520782;0.09773843735456467
01:00:0A:00:00:00:00;1723076021;08/08/24;00:13:41;1.042;-0.128;0.076;0.03176499158143997;-0.05742133408784866;0.04398229718208313
01:00:0A:00:00:00:00;1723076022;08/08/24;00:13:42;1.004;0.001;-0.017;0.13805554807186127;-0.08796459436416626;-0.05375614017248154
01:00:0A:00:00:00:00;1723076023;08/08/24;00:13:43;0.967;-0.067;0.136;0.1661553531885147;0.26022857427597046;0.13439035415649414
01:00:0A:00:00:00:00;1723076024;08/08/24;00:13:44;0.971;-0.032;0.078;0.161268413066864;-0.32009339332580566;-0.18325956165790558
01:00:0A:00:00:00:00;1723076025;08/08/24;00:13:45;1.002;-0.001;0.006;0.18081611394882202;0.3701843321323395;0.11972958594560623
01:00:0A:00:00:00:00;1723076026;08/08/24;00:13:46;1.035;-0.089;0.257;0.12217304855585098;-0.32498031854629517;-0.09040805697441101
01:00:0A:00:00:00:00;1723076027;08/08/24;00:13:47;1.063;0.056;-0.191;0.17348572611808777;0.21013763546943665;0.014660765416920185
01:00:0A:00:00:00:00;1723076028;08/08/24;00:13:48;0.955;-0.024;0.579;0.08307767659425735;0.39584067463874817;-0.025656338781118393
01:00:0A:00:00:00:00;1723076029;08/08/24;00:13:49;0.963;0.004;-0.355;-0.12217304855585098;-0.6291911602020264;0.17470745742321014
01:00:0A:00:00:00:00;1723076030;08/08/24;00:13:50;0.978;-0.064;0.168;-0.051312677562236786;0.6365215182304382;0.15882496535778046
01:00:0A:00:00:00:00;1723076031;08/08/24;00:13:51;0.95;-0.078;0.228;0.23090705275535583;-0.39706242084503174;-0.02687807008624077
01:00:0A:00:00:00:00;1723076032;08/08/24;00:13:52;1.008;-0.114;-0.002;0.17959438264369965;0.18325956165790558;0.0
01:00:0A:00:00:00:00;1723076033;08/08/24;00:13:53;1.05;0.06;0.246;0.02932153083384037;-0.16982054710388184;-0.40194931626319885
01:00:0A:00:00:00:00;1723076034;08/08/24;00:13:54;1.035;0.072;-0.32;-0.1966986060142517;-0.0708603635430336;0.31031954288482666
01:00:0A:00:00:00:00;1723076035;08/08/24;00:13:55;0.923;0.222;0.362;0.5204571485519409;0.5277875661849976;-0.6206390857696533
01:00:0A:00:00:00:00;1723076036;08/08/24;00:13:56;0.982;-0.108;-0.085;-0.07819075137376785;-0.5436700582504272;0.6682865619659424
01:00:0A:00:00:00:00;1723076037;08/08/24;00:13:57;0.955;0.045;0.162;0.0659734457731247;0.34086278080940247;-0.6731734871864319
01:00:0A:00:00:00:00;1723076038;08/08/24;00:13:58;0.967;0.106;0.095;-0.36529743671417236;-0.10751228034496307;0.4948008358478546
01:00:0A:00:00:00:00;1723076039;08/08/24;00:13:59;1.024;-0.141;0.106;-0.4092797040939331;-0.040317103266716;-0.3933972120285034
01:00:0A:00:00:00:00;1723076040;08/08/24;00:14:00;1.045;0.146;0.163;0.3543018400669098;0.161268413066864;-0.28588491678237915
01:00:0A:00:00:00:00;1723076041;08/08/24;00:14:01;1.04;0.112;-0.027;-0.6914994716644287;0.036651913076639175;0.10995574295520782
01:00:0A:00:00:00:00;1723076042;08/08/24;00:14:02;0.938;-0.072;0.218;-1.1288789510726929;0.33964109420776367;-0.21502456068992615
01:00:0A:00:00:00:00;1723076043;08/08/24;00:14:03;0.918;0.111;0.146;-1.4208725690841675;-0.34574973583221436;-0.4789183437824249
01:00:0A:00:00:00:00;1723076044;08/08/24;00:14:04;0.972;-0.086;-0.033;-1.5259413719177246;-0.41294488310813904;0.3066543638706207
01:00:0A:00:00:00:00;1723076045;08/08/24;00:14:05;0.98;-0.019;-0.009;-1.226617455482483;1.0702358484268188;0.05009094998240471
01:00:0A:00:00:00:00;1723076046;08/08/24;00:14:06;0.874;-0.384;0.403;-1.1533136367797852;-0.23457224667072296;-0.8894197940826416
01:00:0A:00:00:00:00;1723076047;08/08/24;00:14:07;1.046;0.189;0.094;-1.1850786209106445;-0.15271630883216858;-0.17837265133857727
01:00:0A:00:00:00:00;1723076048;08/08/24;00:14:08;1.062;-0.115;-0.084;-1.1215485334396362;-0.2223549485206604;0.0354301817715168
01:00:0A:00:00:00:00;1723076049;08/08/24;00:14:09;0.935;0.068;0.292;-0.9712756872177124;0.6499606370925903;-0.08674286305904388
01:00:0A:00:00:00:00;1723076050;08/08/24;00:14:10;0.954;-0.009;0.034;-0.9859364628791809;-0.6255260109901428;-0.48747044801712036
01:00:0A:00:00:00:00;1723076051;08/08/24;00:14:11;0.935;0.048;0.199;-0.9175195693969727;0.21135938167572021;0.5314527750015259
01:00:0A:00:00:00:00;1723076052;08/08/24;00:14:12;0.968;-0.212;0.134;-0.7024949789047241;0.0708603635430336;-0.6218608021736145
01:00:0A:00:00:00:00;1723076053;08/08/24;00:14:13;1.024;0.076;0.287;-0.7281513810157776;-0.11484266817569733;0.0659734457731247
01:00:0A:00:00:00:00;1723076054;08/08/24;00:14:14;1.07;-0.087;-0.108;-0.6230825185775757;-0.08552113175392151;-0.14049901068210602
01:00:0A:00:00:00:00;1723076055;08/08/24;00:14:15;1.002;-0.036;0.216;-0.5827654600143433;0.27000245451927185;-0.04642575979232788
01:00:0A:00:00:00:00;1723076056;08/08/24;00:14:16;0.945;0.185;-0.07;-0.6255260109901428;-0.5302309989929199;-0.49724429845809937
01:00:0A:00:00:00:00;1723076057;08/08/24;00:14:17;0.923;0.073;0.152;-0.8197811245918274;0.322536826133728;0.5729915499687195
01:00:0A:00:00:00:00;1723076058;08/08/24;00:14:18;0.963;-0.138;0.079;-0.7073819637298584;-0.2541199326515198;-0.5057964324951172
01:00:0A:00:00:00:00;1723076059;08/08/24;00:14:19;1.016;0.117;-0.03;-0.7415903806686401;-0.1014036238193512;0.33108896017074585
01:00:0A:00:00:00:00;1723076060;08/08/24;00:14:20;1.057;-0.111;-0.188;-0.5607742667198181;0.09773843735456467;-0.0024434609804302454
01:00:0A:00:00:00:00;1723076061;08/08/24;00:14:21;1.015;0.064;0.406;-0.5290092825889587;0.21624629199504852;-0.14049901068210602
01:00:0A:00:00:00:00;1723076062;08/08/24;00:14:22;1.021;-0.079;-0.238;-0.5204571485519409;-0.5827654600143433;0.06230825558304787
01:00:0A:00:00:00:00;1723076063;08/08/24;00:14:23;0.993;-0.03;0.284;-0.34208452701568604;0.5644394755363464;-0.04886921867728233
01:00:0A:00:00:00:00;1723076064;08/08/24;00:14:24;0.962;-0.047;0.089;-0.41294488310813904;-0.48747044801712036;-0.1368338167667389
01:00:0A:00:00:00:00;1723076065;08/08/24;00:14:25;0.953;0.053;0.045;-0.34697145223617554;0.1722639948129654;0.05497787147760391
01:00:0A:00:00:00:00;1723076066;08/08/24;00:14:26;1.012;-0.015;0.166;-0.4031710624694824;-0.08307767659425735;0.10018189996480942
01:00:0A:00:00:00:00;1723076067;08/08/24;00:14:27;1.065;-0.162;0.079;-0.37140607833862305;-0.03298672288656235;-0.0073303827084600925
01:00:0A:00:00:00:00;1723076068;08/08/24;00:14:28;1.071;0.118;0.081;-0.36529743671417236;-0.12217304855585098;-0.18814648687839508
01:00:0A:00:00:00:00;1723076069;08/08/24;00:14:29;1.015;0.109;-0.081;-0.4349360466003418;-0.2919935882091522;0.06841690838336945
01:00:0A:00:00:00:00;1723076070;08/08/24;00:14:30;0.953;-0.222;0.11;-0.3836233615875244;0.46547931432724;0.48258352279663086
01:00:0A:00:00:00:00;1723076071;08/08/24;00:14:31;0.952;0.087;0.045;-0.2883284091949463;-0.17592918872833252;-0.7721336483955383
01:00:0A:00:00:00:00;1723076072;08/08/24;00:14:32;0.969;0.08;0.035;-0.47769662737846375;-0.0659734457731247;0.513126790523529
01:00:0A:00:00:00:00;1723076073;08/08/24;00:14:33;0.991;-0.133;0.085;-0.27000245451927185;0.43737950921058655;-0.598647952079773
01:00:0A:00:00:00:00;1723076074;08/08/24;00:14:34;0.864;0.253;0.503;-0.6401867866516113;-0.5937609672546387;-0.4642575681209564
01:00:0A:00:00:00:00;1723076075;08/08/24;00:14:35;0.903;0.433;0.251;-1.0690141916275024;-1.4013248682022095;-0.015882495790719986
01:00:0A:00:00:00:00;1723076076;08/08/24;00:14:36;0.976;0.159;-0.237;-1.215621829032898;-0.1062905490398407;0.39095374941825867
01:00:0A:00:00:00:00;1723076077;08/08/24;00:14:37;0.984;-0.048;0.162;-1.186300277709961;0.015882495790719986;0.18570303916931152
01:00:0A:00:00:00:00;1723076078;08/08/24;00:14:38;0.975;0.084;0.025;-1.1020008325576782;-0.14905111491680145;-0.20525071024894714
01:00:0A:00:00:00:00;1723076079;08/08/24;00:14:39;1.007;-0.024;0.048;-1.0995573997497559;-0.045204028487205505;0.2125810980796814
01:00:0A:00:00:00:00;1723076080;08/08/24;00:14:40;1.057;-0.056;-0.054;-0.9285151362419128;0.11728612333536148;-0.16371189057826996
01:00:0A:00:00:00:00;1723076081;08/08/24;00:14:41;1.079;0.06;0.217;-0.9040805697441101;0.0354301817715168;0.039095375686883926
01:00:0A:00:00:00:00;1723076082;08/08/24;00:14:42;1.096;0.002;-0.122;-0.929736852645874;0.07819075137376785;0.22846359014511108
01:00:0A:00:00:00:00;1723076083;08/08/24;00:14:43;0.813;-0.493;0.411;-0.8295549750328064;1.177748203277588;0.2785545289516449
01:00:0A:00:00:00:00;1723076084;08/08/24;00:14:44;0.937;0.365;0.249;-0.8356636166572571;-0.29565879702568054;-1.1557570695877075
01:00:0A:00:00:00:00;1723076085;08/08/24;00:14:45;0.942;0.007;0.23;-1.205847978591919;-0.1466076523065567;0.0659734457731247
01:00:0A:00:00:00:00;1723076086;08/08/24;00:14:46;0.953;0.102;0.162;-1.1887438297271729;-0.26633724570274353;-0.37262779474258423
01:00:0A:00:00:00:00;1723076087;08/08/24;00:14:47;1.028;0.102;0.182;-1.3072515726089478;-0.4813618063926697;0.1661553531885147
01:00:0A:00:00:00:00;1723076088;08/08/24;00:14:48;1.058;-0.147;-0.185;-1.0751228332519531;0.4789183437824249;0.21868975460529327
01:00:0A:00:00:00:00;1723076089;08/08/24;00:14:49;0.938;-0.356;0.548;-0.9993755221366882;0.19425514340400696;0.013439035043120384
01:00:0A:00:00:00:00;1723076090;08/08/24;00:14:50;1.064;0.083;-0.076;-0.9089674949645996;-0.3188716471195221;-0.16249015927314758
01:00:0A:00:00:00:00;1723076091;08/08/24;00:14:51;0.982;-0.01;0.0;-0.8637634515762329;-0.0012217304902151227;0.4105014204978943
01:00:0A:00:00:00:00;1723076092;08/08/24;00:14:52;0.924;0.014;0.1;-0.779464066028595;0.4715879559516907;0.019547687843441963
01:00:0A:00:00:00:00;1723076093;08/08/24;00:14:53;0.947;-0.151;0.128;-0.9187413454055786;0.0;0.13927726447582245
01:00:0A:00:00:00:00;1723076094;08/08/24;00:14:54;0.972;-0.244;0.127;-0.5949827432632446;0.42760565876960754;-1.310916781425476
01:00:0A:00:00:00:00;1723076095;08/08/24;00:14:55;0.852;0.305;0.483;-1.0641272068023682;-0.46792274713516235;0.1820378452539444
01:00:0A:00:00:00:00;1723076096;08/08/24;00:14:56;1.054;0.116;0.094;-1.2791517972946167;-0.8649851679801941;-0.40194931626319885
01:00:0A:00:00:00:00;1723076097;08/08/24;00:14:57;0.835;0.634;0.005;-1.4440854787826538;-0.9517280459403992;0.06841690838336945
01:00:0A:00:00:00:00;1723076098;08/08/24;00:14:58;0.966;-0.011;-0.343;-1.4929546117782593;-0.5510004162788391;1.0885618925094604
01:00:0A:00:00:00:00;1723076099;08/08/24;00:14:59;1.001;-0.075;0.009;-1.2376129627227783;0.49846604466438293;0.25534167885780334
01:00:0A:00:00:00:00;1723076100;08/08/24;00:15:00;0.992;-0.092;-0.056;-1.164309024810791;-0.06963863223791122;0.039095375686883926
01:00:0A:00:00:00:00;1723076101;08/08/24;00:15:01;1.024;-0.131;-0.026;-0.9676105380058289;0.8344419002532959;0.04398229718208313
01:00:0A:00:00:00:00;1723076102;08/08/24;00:15:02;0.933;-0.16;0.47;-1.0592403411865234;0.028099799528717995;-0.8881980776786804
01:00:0A:00:00:00:00;1723076103;08/08/24;00:15:03;1.009;0.12;0.37;-1.2950342893600464;-0.45326200127601624;-0.9126326441764832
01:00:0A:00:00:00:00;1723076104;08/08/24;00:15:04;0.891;0.616;0.137;-1.6163493394851685;-0.919963002204895;-0.4202752709388733
01:00:0A:00:00:00:00;1723076105;08/08/24;00:15:05;0.91;0.543;-0.159;-1.852143406867981;-0.9639453291893005;0.4740314185619354
01:00:0A:00:00:00:00;1723076106;08/08/24;00:15:06;0.947;-0.388;-0.196;-1.663996934890747;0.5314527750015259;0.911410927772522
01:00:0A:00:00:00:00;1723076107;08/08/24;00:15:07;0.957;-0.239;0.346;-1.3952162265777588;0.4801400899887085;-0.44348815083503723
01:00:0A:00:00:00:00;1723076108;08/08/24;00:15:08;0.995;0.118;0.216;-1.5760324001312256;-0.4813618063926697;-0.455705463886261
01:00:0A:00:00:00:00;1723076109;08/08/24;00:15:09;1.029;0.102;0.077;-1.8081611394882202;-0.3017674386501312;0.2638937830924988
01:00:0A:00:00:00:00;1723076110;08/08/24;00:15:10;0.988;-0.106;-0.333;-1.633453607559204;0.32009339332580566;0.3677408695220947
01:00:0A:00:00:00:00;1723076111;08/08/24;00:15:11;0.948;-0.264;0.308;-1.8949038982391357;0.7220427393913269;-1.4013248682022095
01:00:0A:00:00:00:00;1723076112;08/08/24;00:15:12;0.956;0.117;0.362;-2.0060813426971436;-0.24923302233219147;-0.6206390857696533
01:00:0A:00:00:00:00;1723076113;08/08/24;00:15:13;0.973;0.179;0.11;-2.1111502647399902;-0.3188716471195221;-0.3543018400669098
