Source;Epoch timestamp (UTC);Date;Time (UTC);Accel X (G);Accel Y (G);Accel Z (G);Gyro X (rad/s);Gyro Y (rad/s);Gyro Z (rad/s)
01:00:0A:00:00:00:00;1722902406;06/08/24;00:00:06;1.014;-0.027;0.11;0.0354301817715168;-0.013439035043120384;0.006108652334660292
01:00:0A:00:00:00:00;1722902407;06/08/24;00:00:07;1.014;-0.027;0.11;0.03420845419168472;-0.012217304669320583;0.009773843921720982
01:00:0A:00:00:00:00;1722902408;06/08/24;00:00:08;1.014;-0.028;0.109;0.036651913076639175;-0.00855211354792118;0.006108652334660292
01:00:0A:00:00:00:00;1722902409;06/08/24;00:00:09;1.011;-0.026;0.11;0.0354301817715168;-0.010995574295520782;0.006108652334660292
01:00:0A:00:00:00:00;1722902410;06/08/24;00:00:10;1.011;-0.028;0.108;0.03420845419168472;-0.013439035043120384;0.0073303827084600925
01:00:0A:00:00:00:00;1722902411;06/08/24;00:00:11;1.013;-0.029;0.109;0.036651913076639175;-0.012217304669320583;0.0036651913542300463
01:00:0A:00:00:00:00;1722902412;06/08/24;00:00:12;1.015;-0.026;0.111;0.0354301817715168;-0.013439035043120384;0.006108652334660292
01:00:0A:00:00:00:00;1722902413;06/08/24;00:00:13;1.016;-0.028;0.11;0.0354301817715168;-0.012217304669320583;0.00855211354792118
01:00:0A:00:00:00:00;1722902414;06/08/24;00:00:14;1.014;-0.027;0.111;0.036651913076639175;-0.00855211354792118;0.004886921960860491
01:00:0A:00:00:00:00;1722902415;06/08/24;00:00:15;1.013;-0.026;0.111;0.036651913076639175;-0.010995574295520782;0.0073303827084600925
01:00:0A:00:00:00:00;1722902416;06/08/24;00:00:16;1.011;-0.028;0.108;0.0354301817715168;-0.012217304669320583;0.00855211354792118
01:00:0A:00:00:00:00;1722902417;06/08/24;00:00:17;1.012;-0.028;0.108;0.03787364438176155;-0.010995574295520782;0.0036651913542300463
01:00:0A:00:00:00:00;1722902418;06/08/24;00:00:18;1.013;-0.025;0.108;0.036651913076639175;-0.014660765416920185;0.006108652334660292
01:00:0A:00:00:00:00;1722902419;06/08/24;00:00:19;1.015;-0.028;0.108;0.036651913076639175;-0.013439035043120384;0.0073303827084600925
01:00:0A:00:00:00:00;1722902420;06/08/24;00:00:20;1.014;-0.027;0.111;0.039095375686883926;-0.010995574295520782;0.004886921960860491
01:00:0A:00:00:00:00;1722902421;06/08/24;00:00:21;1.013;-0.026;0.11;0.036651913076639175;-0.010995574295520782;0.00855211354792118
01:00:0A:00:00:00:00;1722902422;06/08/24;00:00:22;1.012;-0.028;0.109;0.03787364438176155;-0.010995574295520782;0.0073303827084600925
01:00:0A:00:00:00:00;1722902423;06/08/24;00:00:23;1.011;-0.027;0.108;0.039095375686883926;-0.010995574295520782;0.0036651913542300463
01:00:0A:00:00:00:00;1722902424;06/08/24;00:00:24;1.012;-0.028;0.109;0.036651913076639175;-0.014660765416920185;0.00855211354792118
01:00:0A:00:00:00:00;1722902425;06/08/24;00:00:25;1.013;-0.028;0.109;0.03787364438176155;-0.012217304669320583;0.0073303827084600925
01:00:0A:00:00:00:00;1722902426;06/08/24;00:00:26;1.014;-0.026;0.11;0.040317103266716;-0.009773843921720982;0.004886921960860491
01:00:0A:00:00:00:00;1722902427;06/08/24;00:00:27;1.014;-0.027;0.109;0.03787364438176155;-0.010995574295520782;0.00855211354792118
01:00:0A:00:00:00:00;1722902428;06/08/24;00:00:28;1.013;-0.027;0.108;0.039095375686883926;-0.010995574295520782;0.0073303827084600925
01:00:0A:00:00:00:00;1722902429;06/08/24;00:00:29;1.011;-0.026;0.109;0.040317103266716;-0.010995574295520782;0.0036651913542300463
01:00:0A:00:00:00:00;1722902430;06/08/24;00:00:30;1.011;-0.027;0.108;0.03787364438176155;-0.014660765416920185;0.00855211354792118
01:00:0A:00:00:00:00;1722902431;06/08/24;00:00:31;1.014;-0.029;0.108;0.040317103266716;-0.012217304669320583;0.006108652334660292
01:00:0A:00:00:00:00;1722902432;06/08/24;00:00:32;1.015;-0.026;0.111;0.040317103266716;-0.010995574295520782;0.004886921960860491
01:00:0A:00:00:00:00;1722902433;06/08/24;00:00:33;1.015;-0.027;0.109;0.039095375686883926;-0.010995574295520782;0.010995574295520782
01:00:0A:00:00:00:00;1722902434;06/08/24;00:00:34;1.013;-0.029;0.109;0.040317103266716;-0.009773843921720982;0.006108652334660292
01:00:0A:00:00:00:00;1722902435;06/08/24;00:00:35;1.011;-0.026;0.109;0.04153883829712868;-0.010995574295520782;0.004886921960860491
01:00:0A:00:00:00:00;1722902436;06/08/24;00:00:36;1.011;-0.029;0.108;0.039095375686883926;-0.012217304669320583;0.010995574295520782
01:00:0A:00:00:00:00;1722902437;06/08/24;00:00:37;1.012;-0.029;0.109;0.04153883829712868;-0.013439035043120384;0.004886921960860491
01:00:0A:00:00:00:00;1722902438;06/08/24;00:00:38;1.014;-0.026;0.109;0.04153883829712868;-0.012217304669320583;0.004886921960860491
01:00:0A:00:00:00:00;1722902439;06/08/24;00:00:39;1.014;-0.027;0.109;0.040317103266716;-0.010995574295520782;0.009773843921720982
01:00:0A:00:00:00:00;1722902440;06/08/24;00:00:40;1.013;-0.028;0.109;0.04153883829712868;-0.010995574295520782;0.004886921960860491
01:00:0A:00:00:00:00;1722902441;06/08/24;00:00:41;1.012;-0.027;0.109;0.04153883829712868;-0.010995574295520782;0.0073303827084600925
01:00:0A:00:00:00:00;1722902442;06/08/24;00:00:42;1.011;-0.028;0.11;0.040317103266716;-0.012217304669320583;0.009773843921720982
01:00:0A:00:00:00:00;1722902443;06/08/24;00:00:43;1.014;-0.028;0.109;0.042760565876960754;-0.013439035043120384;0.0036651913542300463
01:00:0A:00:00:00:00;1722902444;06/08/24;00:00:44;1.015;-0.025;0.11;0.042760565876960754;-0.012217304669320583;0.0073303827084600925
01:00:0A:00:00:00:00;1722902445;06/08/24;00:00:45;1.014;-0.028;0.109;0.04153883829712868;-0.010995574295520782;0.010995574295520782
01:00:0A:00:00:00:00;1722902446;06/08/24;00:00:46;1.014;-0.028;0.108;0.04398229718208313;-0.010995574295520782;0.004886921960860491
01:00:0A:00:00:00:00;1722902447;06/08/24;00:00:47;1.013;-0.026;0.108;0.042760565876960754;-0.012217304669320583;0.0073303827084600925
01:00:0A:00:00:00:00;1722902448;06/08/24;00:00:48;1.011;-0.029;0.11;0.042760565876960754;-0.012217304669320583;0.009773843921720982
01:00:0A:00:00:00:00;1722902449;06/08/24;00:00:49;1.013;-0.028;0.109;0.04398229718208313;-0.013439035043120384;0.004886921960860491
01:00:0A:00:00:00:00;1722902450;06/08/24;00:00:50;1.015;-0.026;0.11;0.04398229718208313;-0.012217304669320583;0.0073303827084600925
01:00:0A:00:00:00:00;1722902451;06/08/24;00:00:51;1.014;-0.028;0.109;0.042760565876960754;-0.010995574295520782;0.009773843921720982
01:00:0A:00:00:00:00;1722902452;06/08/24;00:00:52;1.012;-0.028;0.109;0.04398229718208313;-0.012217304669320583;0.004886921960860491
01:00:0A:00:00:00:00;1722902453;06/08/24;00:00:53;1.011;-0.026;0.109;0.04398229718208313;-0.010995574295520782;0.00855211354792118
01:00:0A:00:00:00:00;1722902454;06/08/24;00:00:54;1.011;-0.029;0.11;0.04398229718208313;-0.012217304669320583;0.00855211354792118
01:00:0A:00:00:00:00;1722902455;06/08/24;00:00:55;1.013;-0.027;0.11;0.04398229718208313;-0.014660765416920185;0.0036651913542300463
01:00:0A:00:00:00:00;1722902456;06/08/24;00:00:56;1.015;-0.026;0.108;0.04398229718208313;-0.010995574295520782;0.00855211354792118
01:00:0A:00:00:00:00;1722902457;06/08/24;00:00:57;1.013;-0.029;0.11;0.04398229718208313;-0.009773843921720982;0.00855211354792118
01:00:0A:00:00:00:00;1722902458;06/08/24;00:00:58;1.012;-0.026;0.109;0.04398229718208313;-0.012217304669320583;0.004886921960860491
01:00:0A:00:00:00:00;1722902459;06/08/24;00:00:59;1.011;-0.026;0.109;0.04398229718208313;-0.010995574295520782;0.00855211354792118
01:00:0A:00:00:00:00;1722902460;06/08/24;00:01:00;1.011;-0.029;0.11;0.042760565876960754;-0.012217304669320583;0.0073303827084600925
01:00:0A:00:00:00:00;1722902461;06/08/24;00:01:01;1.014;-0.027;0.111;0.004886921960860491;-0.0024434609804302454;-0.0073303827084600925
01:00:0A:00:00:00:00;1722902462;06/08/24;00:01:02;1.014;-0.023;0.114;0.0;-0.014660765416920185;0.009773843921720982
01:00:0A:00:00:00:00;1722902463;06/08/24;00:01:03;1.014;-0.027;0.11;-0.004886921960860491;-0.014660765416920185;0.0073303827084600925
01:00:0A:00:00:00:00;1722902464;06/08/24;00:01:04;1.013;-0.028;0.107;0.0;-0.009773843921720982;0.0036651913542300463
01:00:0A:00:00:00:00;1722902465;06/08/24;00:01:05;1.011;-0.028;0.112;0.0024434609804302454;-0.00855211354792118;0.0012217304902151227
01:00:0A:00:00:00:00;1722902466;06/08/24;00:01:06;1.013;-0.027;0.11;0.0;-0.015882495790719986;0.004886921960860491
01:00:0A:00:00:00:00;1722902467;06/08/24;00:01:07;1.013;-0.028;0.108;0.0024434609804302454;-0.012217304669320583;0.004886921960860491
01:00:0A:00:00:00:00;1722902468;06/08/24;00:01:08;1.015;-0.027;0.111;0.004886921960860491;-0.0073303827084600925;0.0024434609804302454
01:00:0A:00:00:00:00;1722902469;06/08/24;00:01:09;1.015;-0.027;0.11;0.0036651913542300463;-0.013439035043120384;0.0036651913542300463
01:00:0A:00:00:00:00;1722902470;06/08/24;00:01:10;1.012;-0.026;0.107;0.0036651913542300463;-0.010995574295520782;0.006108652334660292
01:00:0A:00:00:00:00;1722902471;06/08/24;00:01:11;1.011;-0.029;0.11;0.006108652334660292;-0.00855211354792118;0.0024434609804302454
01:00:0A:00:00:00:00;1722902472;06/08/24;00:01:12;1.011;-0.027;0.11;0.004886921960860491;-0.014660765416920185;0.0024434609804302454
01:00:0A:00:00:00:00;1722902473;06/08/24;00:01:13;1.014;-0.027;0.109;0.0036651913542300463;-0.013439035043120384;0.006108652334660292
01:00:0A:00:00:00:00;1722902474;06/08/24;00:01:14;1.015;-0.03;0.11;0.006108652334660292;-0.00855211354792118;0.004886921960860491
01:00:0A:00:00:00:00;1722902475;06/08/24;00:01:15;1.014;-0.027;0.11;0.006108652334660292;-0.012217304669320583;0.0024434609804302454
01:00:0A:00:00:00:00;1722902476;06/08/24;00:01:16;1.013;-0.026;0.108;0.004886921960860491;-0.010995574295520782;0.006108652334660292
01:00:0A:00:00:00:00;1722902477;06/08/24;00:01:17;1.012;-0.029;0.109;0.006108652334660292;-0.00855211354792118;0.004886921960860491
01:00:0A:00:00:00:00;1722902478;06/08/24;00:01:18;1.011;-0.027;0.111;0.006108652334660292;-0.013439035043120384;0.0012217304902151227
01:00:0A:00:00:00:00;1722902479;06/08/24;00:01:19;1.012;-0.027;0.11;0.004886921960860491;-0.012217304669320583;0.006108652334660292
01:00:0A:00:00:00:00;1722902480;06/08/24;00:01:20;1.014;-0.031;0.11;0.004886921960860491;-0.009773843921720982;0.006108652334660292
01:00:0A:00:00:00:00;1722902481;06/08/24;00:01:21;1.015;-0.028;0.111;0.006108652334660292;-0.012217304669320583;0.0012217304902151227
01:00:0A:00:00:00:00;1722902482;06/08/24;00:01:22;1.014;-0.026;0.109;0.004886921960860491;-0.010995574295520782;0.006108652334660292
01:00:0A:00:00:00:00;1722902483;06/08/24;00:01:23;1.012;-0.029;0.111;0.004886921960860491;-0.009773843921720982;0.004886921960860491
01:00:0A:00:00:00:00;1722902484;06/08/24;00:01:24;1.012;-0.026;0.11;0.006108652334660292;-0.013439035043120384;0.0012217304902151227
01:00:0A:00:00:00:00;1722902485;06/08/24;00:01:25;1.011;-0.026;0.109;0.004886921960860491;-0.010995574295520782;0.006108652334660292
01:00:0A:00:00:00:00;1722902486;06/08/24;00:01:26;1.013;-0.03;0.11;0.004886921960860491;-0.010995574295520782;0.006108652334660292
01:00:0A:00:00:00:00;1722902487;06/08/24;00:01:27;1.014;-0.028;0.11;0.006108652334660292;-0.012217304669320583;0.0012217304902151227
01:00:0A:00:00:00:00;1722902488;06/08/24;00:01:28;1.015;-0.025;0.11;0.004886921960860491;-0.009773843921720982;0.006108652334660292
01:00:0A:00:00:00:00;1722902489;06/08/24;00:01:29;1.012;-0.03;0.111;0.004886921960860491;-0.009773843921720982;0.006108652334660292
01:00:0A:00:00:00:00;1722902490;06/08/24;00:01:30;1.012;-0.027;0.109;0.006108652334660292;-0.012217304669320583;0.0012217304902151227
01:00:0A:00:00:00:00;1722902491;06/08/24;00:01:31;1.012;-0.026;0.109;0.004886921960860491;-0.010995574295520782;0.006108652334660292
01:00:0A:00:00:00:00;1722902492;06/08/24;00:01:32;1.012;-0.029;0.11;0.004886921960860491;-0.010995574295520782;0.004886921960860491
01:00:0A:00:00:00:00;1722902493;06/08/24;00:01:33;1.014;-0.027;0.109;0.006108652334660292;-0.012217304669320583;0.0012217304902151227
01:00:0A:00:00:00:00;1722902494;06/08/24;00:01:34;1.014;-0.027;0.11;0.004886921960860491;-0.009773843921720982;0.006108652334660292
01:00:0A:00:00:00:00;1722902495;06/08/24;00:01:35;1.012;-0.029;0.109;0.004886921960860491;-0.010995574295520782;0.004886921960860491
01:00:0A:00:00:00:00;1722902496;06/08/24;00:01:36;1.012;-0.027;0.109;0.006108652334660292;-0.012217304669320583;0.0012217304902151227
01:00:0A:00:00:00:00;1722902497;06/08/24;00:01:37;1.012;-0.027;0.11;0.006108652334660292;-0.009773843921720982;0.006108652334660292
01:00:0A:00:00:00:00;1722902498;06/08/24;00:01:38;1.013;-0.029;0.109;0.006108652334660292;-0.012217304669320583;0.004886921960860491
01:00:0A:00:00:00:00;1722902499;06/08/24;00:01:39;1.013;-0.027;0.109;0.006108652334660292;-0.012217304669320583;0.0024434609804302454
01:00:0A:00:00:00:00;1722902500;06/08/24;00:01:40;1.013;-0.027;0.11;0.006108652334660292;-0.009773843921720982;0.006108652334660292
01:00:0A:00:00:00:00;1722902501;06/08/24;00:01:41;1.014;-0.027;0.11;0.006108652334660292;-0.012217304669320583;0.0036651913542300463
01:00:0A:00:00:00:00;1722902502;06/08/24;00:01:42;1.014;-0.027;0.109;0.0073303827084600925;-0.010995574295520782;0.0024434609804302454
01:00:0A:00:00:00:00;1722902503;06/08/24;00:01:43;1.011;-0.028;0.109;0.006108652334660292;-0.009773843921720982;0.006108652334660292
01:00:0A:00:00:00:00;1722902504;06/08/24;00:01:44;1.012;-0.028;0.11;0.0073303827084600925;-0.012217304669320583;0.0036651913542300463
01:00:0A:00:00:00:00;1722902505;06/08/24;00:01:45;1.013;-0.026;0.108;0.0073303827084600925;-0.012217304669320583;0.0036651913542300463
01:00:0A:00:00:00:00;1722902506;06/08/24;00:01:46;1.015;-0.027;0.109;0.0073303827084600925;-0.009773843921720982;0.006108652334660292
01:00:0A:00:00:00:00;1722902507;06/08/24;00:01:47;1.013;-0.028;0.109;0.0073303827084600925;-0.012217304669320583;0.0036651913542300463
01:00:0A:00:00:00:00;1722902508;06/08/24;00:01:48;1.012;-0.026;0.11;0.0073303827084600925;-0.010995574295520782;0.0036651913542300463
01:00:0A:00:00:00:00;1722902509;06/08/24;00:01:49;1.013;-0.029;0.109;0.0073303827084600925;-0.009773843921720982;0.006108652334660292
01:00:0A:00:00:00:00;1722902510;06/08/24;00:01:50;1.012;-0.028;0.109;0.00855211354792118;-0.013439035043120384;0.0024434609804302454
01:00:0A:00:00:00:00;1722902511;06/08/24;00:01:51;1.014;-0.027;0.109;0.00855211354792118;-0.012217304669320583;0.004886921960860491
01:00:0A:00:00:00:00;1722902512;06/08/24;00:01:52;1.014;-0.028;0.11;0.0073303827084600925;-0.010995574295520782;0.006108652334660292
01:00:0A:00:00:00:00;1722902513;06/08/24;00:01:53;1.014;-0.028;0.109;0.00855211354792118;-0.012217304669320583;0.0024434609804302454
01:00:0A:00:00:00:00;1722902514;06/08/24;00:01:54;1.013;-0.027;0.108;0.00855211354792118;-0.010995574295520782;0.004886921960860491
01:00:0A:00:00:00:00;1722902515;06/08/24;00:01:55;1.011;-0.029;0.11;0.00855211354792118;-0.010995574295520782;0.006108652334660292
01:00:0A:00:00:00:00;1722902516;06/08/24;00:01:56;1.012;-0.028;0.11;0.009773843921720982;-0.013439035043120384;0.0024434609804302454
01:00:0A:00:00:00:00;1722902517;06/08/24;00:01:57;1.013;-0.027;0.109;0.00855211354792118;-0.010995574295520782;0.004886921960860491
01:00:0A:00:00:00:00;1722902518;06/08/24;00:01:58;1.014;-0.028;0.111;0.00855211354792118;-0.010995574295520782;0.004886921960860491
01:00:0A:00:00:00:00;1722902519;06/08/24;00:01:59;1.013;-0.027;0.109;0.009773843921720982;-0.012217304669320583;0.0036651913542300463
01:00:0A:00:00:00:00;1722902520;06/08/24;00:02:00;1.012;-0.027;0.109;0.00855211354792118;-0.009773843921720982;0.006108652334660292
01:00:0A:00:00:00:00;1722902521;06/08/24;00:02:01;1.011;-0.029;0.11;0.00855211354792118;-0.010995574295520782;0.004886921960860491
01:00:0A:00:00:00:00;1722902522;06/08/24;00:02:02;1.013;-0.028;0.108;0.009773843921720982;-0.013439035043120384;0.0012217304902151227
01:00:0A:00:00:00:00;1722902523;06/08/24;00:02:03;1.013;-0.026;0.109;0.009773843921720982;-0.010995574295520782;0.006108652334660292
01:00:0A:00:00:00:00;1722902524;06/08/24;00:02:04;1.014;-0.028;0.11;0.009773843921720982;-0.010995574295520782;0.004886921960860491
01:00:0A:00:00:00:00;1722902525;06/08/24;00:02:05;1.014;-0.028;0.109;0.009773843921720982;-0.012217304669320583;0.0024434609804302454
01:00:0A:00:00:00:00;1722902526;06/08/24;00:02:06;1.013;-0.027;0.109;0.009773843921720982;-0.009773843921720982;0.0073303827084600925
01:00:0A:00:00:00:00;1722902527;06/08/24;00:02:07;1.012;-0.028;0.109;0.009773843921720982;-0.012217304669320583;0.0036651913542300463
01:00:0A:00:00:00:00;1722902528;06/08/24;00:02:08;1.012;-0.027;0.109;0.009773843921720982;-0.013439035043120384;0.0024434609804302454
01:00:0A:00:00:00:00;1722902529;06/08/24;00:02:09;1.013;-0.027;0.109;0.009773843921720982;-0.010995574295520782;0.006108652334660292
01:00:0A:00:00:00:00;1722902530;06/08/24;00:02:10;1.015;-0.029;0.11;0.009773843921720982;-0.012217304669320583;0.0036651913542300463
01:00:0A:00:00:00:00;1722902531;06/08/24;00:02:11;1.013;-0.026;0.109;0.009773843921720982;-0.012217304669320583;0.0036651913542300463
01:00:0A:00:00:00:00;1722902532;06/08/24;00:02:12;1.012;-0.026;0.109;0.00855211354792118;-0.009773843921720982;0.0073303827084600925
01:00:0A:00:00:00:00;1722902533;06/08/24;00:02:13;1.012;-0.03;0.11;0.010995574295520782;-0.012217304669320583;0.0024434609804302454
01:00:0A:00:00:00:00;1722902534;06/08/24;00:02:14;1.013;-0.026;0.109;0.009773843921720982;-0.012217304669320583;0.0024434609804302454
01:00:0A:00:00:00:00;1722902535;06/08/24;00:02:15;1.015;-0.028;0.109;0.009773843921720982;-0.009773843921720982;0.0073303827084600925
01:00:0A:00:00:00:00;1722902536;06/08/24;00:02:16;1.014;-0.029;0.11;0.009773843921720982;-0.012217304669320583;0.0036651913542300463
01:00:0A:00:00:00:00;1722902537;06/08/24;00:02:17;1.014;-0.026;0.109;0.009773843921720982;-0.010995574295520782;0.004886921960860491
01:00:0A:00:00:00:00;1722902538;06/08/24;00:02:18;1.013;-0.028;0.109;0.009773843921720982;-0.009773843921720982;0.0073303827084600925
01:00:0A:00:00:00:00;1722902539;06/08/24;00:02:19;1.012;-0.028;0.109;0.010995574295520782;-0.012217304669320583;0.0024434609804302454
01:00:0A:00:00:00:00;1722902540;06/08/24;00:02:20;1.012;-0.025;0.109;0.009773843921720982;-0.012217304669320583;0.0036651913542300463
01:00:0A:00:00:00:00;1722902541;06/08/24;00:02:21;1.013;-0.028;0.11;0.009773843921720982;-0.010995574295520782;0.0073303827084600925
01:00:0A:00:00:00:00;1722902542;06/08/24;00:02:22;1.014;-0.028;0.11;0.010995574295520782;-0.013439035043120384;0.0024434609804302454
01:00:0A:00:00:00:00;1722902543;06/08/24;00:02:23;1.014;-0.026;0.109;0.009773843921720982;-0.010995574295520782;0.004886921960860491
01:00:0A:00:00:00:00;1722902544;06/08/24;00:02:24;1.013;-0.028;0.11;0.009773843921720982;-0.009773843921720982;0.0073303827084600925
01:00:0A:00:00:00:00;1722902545;06/08/24;00:02:25;1.012;-0.027;0.109;0.010995574295520782;-0.013439035043120384;0.0012217304902151227
01:00:0A:00:00:00:00;1722902546;06/08/24;00:02:26;1.012;-0.027;0.107;0.010995574295520782;-0.010995574295520782;0.004886921960860491
01:00:0A:00:00:00:00;1722902547;06/08/24;00:02:27;1.013;-0.028;0.111;0.010995574295520782;-0.010995574295520782;0.006108652334660292
01:00:0A:00:00:00:00;1722902548;06/08/24;00:02:28;1.013;-0.028;0.109;0.010995574295520782;-0.013439035043120384;0.0012217304902151227
01:00:0A:00:00:00:00;1722902549;06/08/24;00:02:29;1.013;-0.026;0.109;0.010995574295520782;-0.009773843921720982;0.0073303827084600925
01:00:0A:00:00:00:00;1722902550;06/08/24;00:02:30;1.013;-0.029;0.11;0.010995574295520782;-0.009773843921720982;0.006108652334660292
01:00:0A:00:00:00:00;1722902551;06/08/24;00:02:31;1.013;-0.027;0.11;0.012217304669320583;-0.013439035043120384;0.0024434609804302454
01:00:0A:00:00:00:00;1722902552;06/08/24;00:02:32;1.013;-0.027;0.109;0.010995574295520782;-0.010995574295520782;0.006108652334660292
01:00:0A:00:00:00:00;1722902553;06/08/24;00:02:33;1.013;-0.029;0.111;0.012217304669320583;-0.010995574295520782;0.004886921960860491
01:00:0A:00:00:00:00;1722902554;06/08/24;00:02:34;1.015;-0.027;0.109;0.012217304669320583;-0.013439035043120384;0.0012217304902151227
01:00:0A:00:00:00:00;1722902555;06/08/24;00:02:35;1.013;-0.028;0.109;0.012217304669320583;-0.009773843921720982;0.0073303827084600925
01:00:0A:00:00:00:00;1722902556;06/08/24;00:02:36;1.014;-0.029;0.11;0.012217304669320583;-0.009773843921720982;0.006108652334660292
01:00:0A:00:00:00:00;1722902557;06/08/24;00:02:37;1.012;-0.026;0.108;0.013439035043120384;-0.012217304669320583;0.0024434609804302454
01:00:0A:00:00:00:00;1722902558;06/08/24;00:02:38;1.011;-0.027;0.108;0.012217304669320583;-0.009773843921720982;0.0073303827084600925
01:00:0A:00:00:00:00;1722902559;06/08/24;00:02:39;1.013;-0.03;0.111;0.013439035043120384;-0.012217304669320583;0.0036651913542300463
01:00:0A:00:00:00:00;1722902560;06/08/24;00:02:40;1.015;-0.027;0.109;0.013439035043120384;-0.013439035043120384;0.0024434609804302454
01:00:0A:00:00:00:00;1722902561;06/08/24;00:02:41;1.013;-0.026;0.109;0.013439035043120384;-0.009773843921720982;0.0073303827084600925
01:00:0A:00:00:00:00;1722902562;06/08/24;00:02:42;1.013;-0.029;0.11;0.014660765416920185;-0.012217304669320583;0.0036651913542300463
01:00:0A:00:00:00:00;1722902563;06/08/24;00:02:43;1.013;-0.026;0.109;0.013439035043120384;-0.012217304669320583;0.0036651913542300463
01:00:0A:00:00:00:00;1722902564;06/08/24;00:02:44;1.012;-0.028;0.11;0.013439035043120384;-0.00855211354792118;0.00855211354792118
01:00:0A:00:00:00:00;1722902565;06/08/24;00:02:45;1.011;-0.029;0.109;0.014660765416920185;-0.012217304669320583;0.0036651913542300463
01:00:0A:00:00:00:00;1722902566;06/08/24;00:02:46;1.012;-0.026;0.109;0.014660765416920185;-0.013439035043120384;0.0024434609804302454
01:00:0A:00:00:00:00;1722902567;06/08/24;00:02:47;1.015;-0.028;0.11;0.013439035043120384;-0.009773843921720982;0.0073303827084600925
01:00:0A:00:00:00:00;1722902568;06/08/24;00:02:48;1.014;-0.029;0.11;0.014660765416920185;-0.010995574295520782;0.0036651913542300463
01:00:0A:00:00:00:00;1722902569;06/08/24;00:02:49;1.014;-0.025;0.109;0.014660765416920185;-0.012217304669320583;0.004886921960860491
01:00:0A:00:00:00:00;1722902570;06/08/24;00:02:50;1.013;-0.028;0.109;0.014660765416920185;-0.009773843921720982;0.0073303827084600925
01:00:0A:00:00:00:00;1722902571;06/08/24;00:02:51;1.012;-0.029;0.109;0.015882495790719986;-0.013439035043120384;0.0024434609804302454
01:00:0A:00:00:00:00;1722902572;06/08/24;00:02:52;1.014;-0.027;0.109;0.015882495790719986;-0.013439035043120384;0.0036651913542300463
01:00:0A:00:00:00:00;1722902573;06/08/24;00:02:53;1.014;-0.029;0.11;0.014660765416920185;-0.009773843921720982;0.0073303827084600925
01:00:0A:00:00:00:00;1722902574;06/08/24;00:02:54;1.014;-0.028;0.112;0.015882495790719986;-0.012217304669320583;0.0024434609804302454
01:00:0A:00:00:00:00;1722902575;06/08/24;00:02:55;1.013;-0.025;0.109;0.015882495790719986;-0.010995574295520782;0.004886921960860491
01:00:0A:00:00:00:00;1722902576;06/08/24;00:02:56;1.013;-0.026;0.107;0.004886921960860491;-0.012217304669320583;0.004886921960860491
01:00:0A:00:00:00:00;1722902577;06/08/24;00:02:57;1.014;-0.023;0.106;-0.012217304669320583;-0.013439035043120384;0.0
01:00:0A:00:00:00:00;1722902578;06/08/24;00:02:58;1.014;-0.026;0.107;-0.02076941914856434;-0.010995574295520782;0.004886921960860491
01:00:0A:00:00:00:00;1722902579;06/08/24;00:02:59;1.013;-0.029;0.11;-0.019547687843441963;-0.0073303827084600925;0.004886921960860491
01:00:0A:00:00:00:00;1722902580;06/08/24;00:03:00;1.013;-0.028;0.111;-0.015882495790719986;-0.012217304669320583;0.0
01:00:0A:00:00:00:00;1722902581;06/08/24;00:03:01;1.013;-0.026;0.107;-0.015882495790719986;-0.010995574295520782;0.0036651913542300463
01:00:0A:00:00:00:00;1722902582;06/08/24;00:03:02;1.012;-0.029;0.109;-0.013439035043120384;-0.00855211354792118;0.004886921960860491
01:00:0A:00:00:00:00;1722902583;06/08/24;00:03:03;1.012;-0.029;0.11;-0.012217304669320583;-0.013439035043120384;-0.0012217304902151227
01:00:0A:00:00:00:00;1722902584;06/08/24;00:03:04;1.013;-0.026;0.109;-0.012217304669320583;-0.012217304669320583;0.0024434609804302454
01:00:0A:00:00:00:00;1722902585;06/08/24;00:03:05;1.015;-0.03;0.11;-0.010995574295520782;-0.009773843921720982;0.004886921960860491
01:00:0A:00:00:00:00;1722902586;06/08/24;00:03:06;1.014;-0.028;0.112;-0.009773843921720982;-0.010995574295520782;0.0012217304902151227
01:00:0A:00:00:00:00;1722902587;06/08/24;00:03:07;1.013;-0.028;0.109;-0.009773843921720982;-0.010995574295520782;0.004886921960860491
01:00:0A:00:00:00:00;1722902588;06/08/24;00:03:08;1.012;-0.029;0.11;-0.00855211354792118;-0.009773843921720982;0.004886921960860491
01:00:0A:00:00:00:00;1722902589;06/08/24;00:03:09;1.011;-0.027;0.109;-0.0073303827084600925;-0.012217304669320583;0.0012217304902151227
01:00:0A:00:00:00:00;1722902590;06/08/24;00:03:10;1.013;-0.028;0.108;-0.00855211354792118;-0.012217304669320583;0.004886921960860491
01:00:0A:00:00:00:00;1722902591;06/08/24;00:03:11;1.014;-0.029;0.11;-0.006108652334660292;-0.010995574295520782;0.0024434609804302454
01:00:0A:00:00:00:00;1722902592;06/08/24;00:03:12;1.014;-0.027;0.11;-0.006108652334660292;-0.010995574295520782;0.0012217304902151227
01:00:0A:00:00:00:00;1722902593;06/08/24;00:03:13;1.014;-0.027;0.108;-0.006108652334660292;-0.009773843921720982;0.006108652334660292
01:00:0A:00:00:00:00;1722902594;06/08/24;00:03:14;1.013;-0.028;0.109;-0.004886921960860491;-0.010995574295520782;0.0036651913542300463
01:00:0A:00:00:00:00;1722902595;06/08/24;00:03:15;1.011;-0.027;0.109;-0.0036651913542300463;-0.012217304669320583;0.0012217304902151227
01:00:0A:00:00:00:00;1722902596;06/08/24;00:03:16;1.013;-0.028;0.109;-0.0036651913542300463;-0.013439035043120384;0.0012217304902151227
01:00:0A:00:00:00:00;1722902597;06/08/24;00:03:17;1.014;-0.027;0.109;-0.0036651913542300463;-0.009773843921720982;0.004886921960860491
01:00:0A:00:00:00:00;1722902598;06/08/24;00:03:18;1.013;-0.026;0.109;-0.0012217304902151227;-0.009773843921720982;0.0036651913542300463
01:00:0A:00:00:00:00;1722902599;06/08/24;00:03:19;1.013;-0.028;0.111;-0.0012217304902151227;-0.009773843921720982;0.006108652334660292
01:00:0A:00:00:00:00;1722902600;06/08/24;00:03:20;1.012;-0.027;0.11;0.0;-0.013439035043120384;0.0012217304902151227
01:00:0A:00:00:00:00;1722902601;06/08/24;00:03:21;1.012;-0.026;0.108;0.0;-0.010995574295520782;0.0036651913542300463
01:00:0A:00:00:00:00;1722902602;06/08/24;00:03:22;1.013;-0.028;0.11;0.0;-0.010995574295520782;0.006108652334660292
01:00:0A:00:00:00:00;1722902603;06/08/24;00:03:23;1.014;-0.029;0.111;0.0012217304902151227;-0.013439035043120384;0.0
01:00:0A:00:00:00:00;1722902604;06/08/24;00:03:24;1.014;-0.025;0.11;0.0;-0.010995574295520782;0.0036651913542300463
01:00:0A:00:00:00:00;1722902605;06/08/24;00:03:25;1.012;-0.028;0.111;0.0012217304902151227;-0.00855211354792118;0.0036651913542300463
01:00:0A:00:00:00:00;1722902606;06/08/24;00:03:26;1.016;-0.03;0.109;0.0036651913542300463;-0.009773843921720982;-0.0073303827084600925
01:00:0A:00:00:00:00;1722902607;06/08/24;00:03:27;1.023;-0.03;0.108;0.0024434609804302454;-0.0073303827084600925;0.0012217304902151227
01:00:0A:00:00:00:00;1722902608;06/08/24;00:03:28;1.015;-0.032;0.107;-0.0012217304902151227;-0.00855211354792118;0.028099799528717995
01:00:0A:00:00:00:00;1722902609;06/08/24;00:03:29;1.006;-0.033;0.107;0.0024434609804302454;-0.013439035043120384;0.02932153083384037
01:00:0A:00:00:00:00;1722902610;06/08/24;00:03:30;0.998;-0.033;0.109;0.014660765416920185;-0.02076941914856434;0.014660765416920185
01:00:0A:00:00:00:00;1722902611;06/08/24;00:03:31;1.003;-0.019;0.114;0.02932153083384037;0.00855211354792118;-0.06963863223791122
01:00:0A:00:00:00:00;1722902612;06/08/24;00:03:32;0.998;0.045;0.179;-0.08307767659425735;0.015882495790719986;-0.042760565876960754
01:00:0A:00:00:00:00;1722902613;06/08/24;00:03:33;1.024;0.003;0.162;-0.22968533635139465;-0.1417207270860672;0.04642575979232788
01:00:0A:00:00:00:00;1722902614;06/08/24;00:03:34;1.039;-0.088;-0.031;-0.13561207056045532;-0.0036651913542300463;0.02321287989616394
01:00:0A:00:00:00:00;1722902615;06/08/24;00:03:35;1.026;-0.033;0.135;-0.03787364438176155;0.1270599663257599;-0.014660765416920185
01:00:0A:00:00:00:00;1722902616;06/08/24;00:03:36;1.011;-0.028;0.172;-0.10751228034496307;-0.04642575979232788;0.021991148591041565
01:00:0A:00:00:00:00;1722902617;06/08/24;00:03:37;0.999;0.003;0.039;-0.10018189996480942;-0.17592918872833252;-0.08185594528913498
01:00:0A:00:00:00:00;1722902618;06/08/24;00:03:38;0.988;-0.018;0.059;-0.03787364438176155;0.17592918872833252;0.07696902006864548
01:00:0A:00:00:00:00;1722902619;06/08/24;00:03:39;0.981;-0.054;0.127;-0.02321287989616394;-0.07941248267889023;-0.06841690838336945
01:00:0A:00:00:00:00;1722902620;06/08/24;00:03:40;1.028;-0.014;0.064;-0.03176499158143997;-0.05619959905743599;0.014660765416920185
01:00:0A:00:00:00:00;1722902621;06/08/24;00:03:41;1.05;-0.04;0.073;-0.009773843921720982;0.02076941914856434;0.09407324343919754
01:00:0A:00:00:00:00;1722902622;06/08/24;00:03:42;1.044;-0.012;0.083;0.025656338781118393;-0.06230825558304787;-0.006108652334660292
01:00:0A:00:00:00:00;1722902623;06/08/24;00:03:43;1.019;0.033;-0.032;0.07452555745840073;-0.12461651116609573;-0.009773843921720982
01:00:0A:00:00:00:00;1722902624;06/08/24;00:03:44;1.004;0.024;0.061;0.12339477241039276;0.14416420459747314;-0.13439035415649414
01:00:0A:00:00:00:00;1722902625;06/08/24;00:03:45;1.016;0.0;0.046;0.04764748737215996;-0.09407324343919754;0.059864792972803116
01:00:0A:00:00:00:00;1722902626;06/08/24;00:03:46;1.011;0.005;0.045;0.07208210229873657;0.004886921960860491;-0.12828169763088226
01:00:0A:00:00:00:00;1722902627;06/08/24;00:03:47;0.975;0.075;0.064;0.03176499158143997;-0.014660765416920185;-0.013439035043120384
01:00:0A:00:00:00:00;1722902628;06/08/24;00:03:48;0.97;-0.006;0.05;0.021991148591041565;0.02321287989616394;0.11362093687057495
01:00:0A:00:00:00:00;1722902629;06/08/24;00:03:49;1.004;-0.058;0.129;0.05742133408784866;0.014660765416920185;-0.14294245839118958
01:00:0A:00:00:00:00;1722902630;06/08/24;00:03:50;1.045;0.022;0.132;-0.04153883829712868;-0.1417207270860672;0.13927726447582245
01:00:0A:00:00:00:00;1722902631;06/08/24;00:03:51;1.084;-0.119;0.067;0.0659734457731247;0.12339477241039276;0.045204028487205505
01:00:0A:00:00:00:00;1722902632;06/08/24;00:03:52;1.05;0.012;0.267;0.03176499158143997;0.12828169763088226;0.040317103266716
01:00:0A:00:00:00:00;1722902633;06/08/24;00:03:53;0.982;-0.12;-0.004;-0.04764748737215996;-0.24678954482078552;0.21380282938480377
01:00:0A:00:00:00:00;1722902634;06/08/24;00:03:54;0.909;0.101;0.226;0.08674286305904388;0.4691444933414459;-0.27122414112091064
01:00:0A:00:00:00:00;1722902635;06/08/24;00:03:55;0.941;-0.004;0.049;-0.24434609711170197;-0.8979718685150146;0.3494149148464203
01:00:0A:00:00:00:00;1722902636;06/08/24;00:03:56;0.968;-0.141;-0.032;0.21624629199504852;0.9810495376586914;-0.21991148591041565
01:00:0A:00:00:00:00;1722902637;06/08/24;00:03:57;0.907;-0.045;0.438;-0.21380282938480377;-0.5717698335647583;0.27000245451927185
01:00:0A:00:00:00:00;1722902638;06/08/24;00:03:58;1.041;-0.124;-0.172;-0.10751228034496307;-0.2895500957965851;-0.028099799528717995
01:00:0A:00:00:00:00;1722902639;06/08/24;00:03:59;1.027;-0.243;0.129;0.17592918872833252;0.6426302194595337;0.0757472887635231
01:00:0A:00:00:00:00;1722902640;06/08/24;00:04:00;0.852;0.207;0.497;-0.09773843735456467;0.2370157092809677;-0.7513642311096191
01:00:0A:00:00:00:00;1722902641;06/08/24;00:04:01;0.962;0.187;-0.141;-1.0824532508850098;-0.949284553527832;0.2724458873271942
01:00:0A:00:00:00:00;1722902642;06/08/24;00:04:02;0.971;-0.193;-0.061;-0.8820894360542297;0.5473352670669556;0.5473352670669556
01:00:0A:00:00:00:00;1722902643;06/08/24;00:04:03;0.937;-0.266;0.23;-0.5253441333770752;0.19303341209888458;-0.6120869517326355
01:00:0A:00:00:00:00;1722902644;06/08/24;00:04:04;1.021;0.136;0.218;-2.6816985607147217;-0.2932153046131134;-0.5119050741195679
01:00:0A:00:00:00:00;1722902645;06/08/24;00:04:05;1.041;0.094;0.01;-2.4825563430786133;-0.2932153046131134;-0.1771509200334549
01:00:0A:00:00:00:00;1722902646;06/08/24;00:04:06;0.976;-0.23;-0.157;-2.172236919403076;-0.31642818450927734;0.35674530267715454
01:00:0A:00:00:00:00;1722902647;06/08/24;00:04:07;0.969;-0.063;0.046;-1.6701055765151978;0.4691444933414459;0.05253440886735916
01:00:0A:00:00:00:00;1722902648;06/08/24;00:04:08;0.939;-0.054;0.15;-1.604132056236267;-0.3237585723400116;-0.5595525503158569
01:00:0A:00:00:00:00;1722902649;06/08/24;00:04:09;0.992;0.136;0.078;-1.8081611394882202;-0.5925393104553223;-0.24434609711170197
01:00:0A:00:00:00:00;1722902650;06/08/24;00:04:10;1.051;0.016;0.097;-2.900388240814209;-0.7476990222930908;0.10506881773471832
01:00:0A:00:00:00:00;1722902651;06/08/24;00:04:11;1.021;0.141;0.288;-2.37626576423645;-0.2370157092809677;-0.1869247555732727
01:00:0A:00:00:00:00;1722902652;06/08/24;00:04:12;0.985;0.306;0.17;-2.129476308822632;0.0;-0.5766568183898926
01:00:0A:00:00:00:00;1722902653;06/08/24;00:04:13;0.962;-0.154;0.172;-2.1038198471069336;-0.27611109614372253;-0.3176499307155609
01:00:0A:00:00:00:00;1722902654;06/08/24;00:04:14;0.914;0.093;0.25;-1.7311919927597046;0.33719760179519653;-0.3090977966785431
01:00:0A:00:00:00:00;1722902655;06/08/24;00:04:15;0.955;-0.162;0.065;-1.4477505683898926;-0.2370157092809677;-0.7110471129417419
01:00:0A:00:00:00:00;1722902656;06/08/24;00:04:16;1.004;-0.106;0.218;-1.2034045457839966;0.009773843921720982;0.3481931686401367
01:00:0A:00:00:00:00;1722902657;06/08/24;00:04:17;1.016;-0.051;-0.211;-0.4141666293144226;0.485027015209198;-0.485027015209198
01:00:0A:00:00:00:00;1722902658;06/08/24;00:04:18;0.945;-0.087;0.458;-0.39706242084503174;-0.059864792972803116;0.3335324227809906
01:00:0A:00:00:00:00;1722902659;06/08/24;00:04:19;0.979;-0.316;-0.094;0.010995574295520782;-0.014660765416920185;-0.2883284091949463
01:00:0A:00:00:00:00;1722902660;06/08/24;00:04:20;0.99;0.118;0.282;0.06108652427792549;0.21135938167572021;-0.21380282938480377
01:00:0A:00:00:00:00;1722902661;06/08/24;00:04:21;1.013;-0.052;0.204;-0.3152064383029938;-0.3335324227809906;0.19425514340400696
01:00:0A:00:00:00:00;1722902662;06/08/24;00:04:22;1.012;-0.067;-0.062;-0.1722639948129654;-0.030543262138962746;-0.025656338781118393
01:00:0A:00:00:00:00;1722902663;06/08/24;00:04:23;1.004;0.019;0.178;-0.11362093687057495;0.27488934993743896;-0.05742133408784866
01:00:0A:00:00:00:00;1722902664;06/08/24;00:04:24;1.009;0.0;0.14;-0.2675589621067047;-0.23335053026676178;-0.01710422709584236
01:00:0A:00:00:00:00;1722902665;06/08/24;00:04:25;1.013;0.036;0.011;-0.27488934993743896;0.009773843921720982;-0.039095375686883926
01:00:0A:00:00:00:00;1722902666;06/08/24;00:04:26;1.003;-0.074;0.204;-0.36163222789764404;0.17592918872833252;0.15882496535778046
01:00:0A:00:00:00:00;1722902667;06/08/24;00:04:27;1.015;-0.074;0.084;-0.4092797040939331;-0.26633724570274353;-0.08674286305904388
01:00:0A:00:00:00:00;1722902668;06/08/24;00:04:28;1.01;0.005;0.091;-0.3579670488834381;0.3481931686401367;-0.1661553531885147
01:00:0A:00:00:00:00;1722902669;06/08/24;00:04:29;0.955;-0.063;0.29;-0.5693264007568359;-0.0024434609804302454;-0.018325956538319588
01:00:0A:00:00:00:00;1722902670;06/08/24;00:04:30;0.989;-0.036;0.146;-0.6059783101081848;-0.37751471996307373;-0.35063666105270386
01:00:0A:00:00:00:00;1722902671;06/08/24;00:04:31;1.008;0.056;0.04;-0.6524040699005127;0.021991148591041565;0.20036379992961884
01:00:0A:00:00:00:00;1722902672;06/08/24;00:04:32;1.021;-0.211;0.085;-0.5424482822418213;-0.09407324343919754;-0.06352998316287994
01:00:0A:00:00:00:00;1722902673;06/08/24;00:04:33;1.05;-0.008;0.112;-0.38240164518356323;0.09040805697441101;-0.2480112910270691
01:00:0A:00:00:00:00;1722902674;06/08/24;00:04:34;1.023;0.139;0.169;-0.533896267414093;-0.08674286305904388;0.021991148591041565
01:00:0A:00:00:00:00;1722902675;06/08/24;00:04:35;1.013;-0.121;-0.056;-0.5265658497810364;-0.19425514340400696;0.2125810980796814
01:00:0A:00:00:00:00;1722902676;06/08/24;00:04:36;0.973;0.067;0.153;-0.3335324227809906;0.3701843321323395;-0.21380282938480377
01:00:0A:00:00:00:00;1722902677;06/08/24;00:04:37;0.955;0.048;0.174;-0.616973876953125;-0.3604104816913605;0.18448130786418915
01:00:0A:00:00:00:00;1722902678;06/08/24;00:04:38;0.995;-0.142;-0.01;-0.44715335965156555;0.1820378452539444;0.1673770695924759
01:00:0A:00:00:00:00;1722902679;06/08/24;00:04:39;1.028;-0.263;0.119;-0.12828169763088226;0.051312677562236786;-0.27977627515792847
01:00:0A:00:00:00:00;1722902680;06/08/24;00:04:40;1.06;0.106;0.15;-0.16249015927314758;0.07330382615327835;0.11239919811487198
01:00:0A:00:00:00:00;1722902681;06/08/24;00:04:41;1.001;-0.312;0.244;-0.18448130786418915;0.18570303916931152;0.24190263450145721
01:00:0A:00:00:00:00;1722902682;06/08/24;00:04:42;0.987;0.243;0.137;-0.19914205372333527;-0.1417207270860672;-0.5302309989929199
01:00:0A:00:00:00:00;1722902683;06/08/24;00:04:43;0.955;-0.121;0.173;-0.5192354917526245;-0.1160643920302391;0.5717698335647583
01:00:0A:00:00:00:00;1722902684;06/08/24;00:04:44;0.953;-0.058;0.068;-0.21624629199504852;-0.1014036238193512;-0.5534439086914062
01:00:0A:00:00:00:00;1722902685;06/08/24;00:04:45;0.994;0.081;0.018;-0.45204028487205505;-0.1722639948129654;0.5070181488990784
01:00:0A:00:00:00:00;1722902686;06/08/24;00:04:46;1.017;-0.225;-0.054;-0.12461651116609573;0.22968533635139465;-0.4141666293144226
01:00:0A:00:00:00:00;1722902687;06/08/24;00:04:47;1.016;0.282;0.248;-0.29565879702568054;-0.006108652334660292;0.0354301817715168
01:00:0A:00:00:00:00;1722902688;06/08/24;00:04:48;1.038;-0.199;0.071;-0.42638394236564636;-0.08552113175392151;0.3017674386501312
01:00:0A:00:00:00:00;1722902689;06/08/24;00:04:49;0.98;0.093;0.167;-0.21624629199504852;0.2638937830924988;-0.3848450779914856
01:00:0A:00:00:00:00;1722902690;06/08/24;00:04:50;0.937;-0.047;0.007;-0.4337143301963806;-0.5143485069274902;0.1576032191514969
01:00:0A:00:00:00:00;1722902691;06/08/24;00:04:51;0.945;0.048;0.104;-0.14782939851284027;0.7892378568649292;-0.3848450779914856
01:00:0A:00:00:00:00;1722902692;06/08/24;00:04:52;0.88;0.028;0.465;-0.5546656250953674;-0.8894197940826416;-0.3995058536529541
01:00:0A:00:00:00:00;1722902693;06/08/24;00:04:53;1.003;0.267;0.108;-0.960280179977417;-0.5448917746543884;0.22113320231437683
01:00:0A:00:00:00:00;1722902694;06/08/24;00:04:54;1.057;0.249;-0.125;-1.0323623418807983;-0.18325956165790558;0.15515977144241333
01:00:0A:00:00:00:00;1722902695;06/08/24;00:04:55;1.079;-0.164;0.011;-0.9737191796302795;-0.09162978082895279;0.2541199326515198
01:00:0A:00:00:00:00;1722902696;06/08/24;00:04:56;0.96;0.202;-0.155;-0.7293730974197388;-0.21013763546943665;-0.25045475363731384
01:00:0A:00:00:00:00;1722902697;06/08/24;00:04:57;0.9;-0.199;0.253;-0.7965682148933411;0.5791001915931702;0.7367035150527954
01:00:0A:00:00:00:00;1722902698;06/08/24;00:04:58;0.926;-0.265;0.098;-0.24068090319633484;-0.22113320231437683;-0.7171557545661926
01:00:0A:00:00:00:00;1722902699;06/08/24;00:04:59;0.98;0.098;0.125;-0.19547687470912933;0.251676470041275;0.04764748737215996
01:00:0A:00:00:00:00;1722902700;06/08/24;00:05:00;1.006;-0.189;0.235;-0.3042108714580536;-0.22968533635139465;0.1466076523065567
01:00:0A:00:00:00:00;1722902701;06/08/24;00:05:01;1.068;-0.073;-0.021;-0.06108652427792549;-0.00855211354792118;-0.28588491678237915
01:00:0A:00:00:00:00;1722902702;06/08/24;00:05:02;1.013;0.159;0.232;-0.1368338167667389;0.1771509200334549;-0.13316862285137177
01:00:0A:00:00:00:00;1722902703;06/08/24;00:05:03;0.983;-0.126;0.039;-0.2993239760398865;-0.251676470041275;0.42760565876960754
01:00:0A:00:00:00:00;1722902704;06/08/24;00:05:04;0.956;0.013;0.212;-0.05009094998240471;0.2822197377681732;-0.3078760802745819
01:00:0A:00:00:00:00;1722902705;06/08/24;00:05:05;0.974;0.039;0.071;-0.3640756905078888;-0.5143485069274902;0.36163222789764404
01:00:0A:00:00:00:00;1722902706;06/08/24;00:05:06;0.922;-0.311;-0.221;-0.018325956538319588;0.7941248416900635;0.38240164518356323
01:00:0A:00:00:00:00;1722902707;06/08/24;00:05:07;0.82;-0.07;0.552;0.14049901068210602;-0.06352998316287994;-1.3487904071807861
01:00:0A:00:00:00:00;1722902708;06/08/24;00:05:08;0.912;0.309;0.273;-0.8014551997184753;-0.9749408960342407;-0.021991148591041565
01:00:0A:00:00:00:00;1722902709;06/08/24;00:05:09;1.015;-0.007;-0.035;-1.0348056554794312;-0.10018189996480942;0.2736676335334778
01:00:0A:00:00:00:00;1722902710;06/08/24;00:05:10;1.014;-0.104;0.12;-0.959058403968811;-0.012217304669320583;-0.0024434609804302454
01:00:0A:00:00:00:00;1722902711;06/08/24;00:05:11;0.998;0.138;-0.135;-0.9346237778663635;0.0012217304902151227;0.1771509200334549
01:00:0A:00:00:00:00;1722902712;06/08/24;00:05:12;1.006;-0.136;0.137;-0.9187413454055786;0.5057964324951172;0.12461651116609573
01:00:0A:00:00:00:00;1722902713;06/08/24;00:05:13;0.863;-0.388;0.305;-0.656069278717041;0.7293730974197388;-0.6963863372802734
01:00:0A:00:00:00:00;1722902714;06/08/24;00:05:14;0.837;0.106;0.533;-0.9028588533401489;-0.4080579876899719;-1.1740829944610596
01:00:0A:00:00:00:00;1722902715;06/08/24;00:05:15;0.923;0.114;0.406;-1.5332716703414917;-0.807563841342926;-0.5974262356758118
01:00:0A:00:00:00:00;1722902716;06/08/24;00:05:16;1.007;0.18;0.122;-1.7177530527114868;-0.2981022298336029;-0.1820378452539444
01:00:0A:00:00:00:00;1722902717;06/08/24;00:05:17;1.02;0.0;0.232;-1.822821855545044;-0.12339477241039276;-0.2626720666885376
01:00:0A:00:00:00:00;1722902718;06/08/24;00:05:18;1.027;-0.134;0.104;-1.7458528280258179;-0.3127630054950714;-0.24068090319633484
01:00:0A:00:00:00:00;1722902719;06/08/24;00:05:19;0.945;0.074;0.299;-1.6212363243103027;0.4080579876899719;-0.18081611394882202
01:00:0A:00:00:00:00;1722902720;06/08/24;00:05:20;0.943;-0.073;0.209;-1.6664402484893799;-0.1966986060142517;-0.7672467231750488
01:00:0A:00:00:00:00;1722902721;06/08/24;00:05:21;0.963;-0.067;0.219;-1.6126842498779297;-0.2834414541721344;-0.2382374405860901
01:00:0A:00:00:00:00;1722902722;06/08/24;00:05:22;1.049;-0.035;0.119;-1.3732250928878784;0.2480112910270691;-0.18448130786418915
01:00:0A:00:00:00:00;1722902723;06/08/24;00:05:23;0.93;-0.429;0.332;-1.0128145217895508;0.38240164518356323;-0.6682865619659424
01:00:0A:00:00:00:00;1722902724;06/08/24;00:05:24;0.914;-0.069;0.569;-1.0323623418807983;0.010995574295520782;-0.7831292152404785
01:00:0A:00:00:00:00;1722902725;06/08/24;00:05:25;0.995;0.075;0.333;-1.3072515726089478;-0.1966986060142517;-0.47769662737846375
01:00:0A:00:00:00:00;1722902726;06/08/24;00:05:26;0.976;0.06;0.088;-1.3280210494995117;-0.30543261766433716;-0.22602014243602753
01:00:0A:00:00:00:00;1722902727;06/08/24;00:05:27;0.947;-0.144;0.067;-1.224173903465271;-0.06108652427792549;0.3701843321323395
01:00:0A:00:00:00:00;1722902728;06/08/24;00:05:28;0.974;-0.188;0.081;-0.616973876953125;0.48747044801712036;-0.5314527750015259
01:00:0A:00:00:00:00;1722902729;06/08/24;00:05:29;1.004;-0.027;0.237;-0.6805038452148438;-0.5241223573684692;-0.18081611394882202
01:00:0A:00:00:00:00;1722902730;06/08/24;00:05:30;1.028;0.125;-0.183;-0.5106833577156067;0.27977627515792847;0.015882495790719986
01:00:0A:00:00:00:00;1722902731;06/08/24;00:05:31;0.988;-0.219;0.331;-0.5070181488990784;0.2577851116657257;0.17837265133857727
01:00:0A:00:00:00:00;1722902732;06/08/24;00:05:32;1.024;-0.115;0.151;-0.3946189284324646;-0.13072516024112701;-0.38117989897727966
01:00:0A:00:00:00:00;1722902733;06/08/24;00:05:33;0.977;0.11;0.155;-0.4398229718208313;-0.013439035043120384;-0.22846359014511108
01:00:0A:00:00:00:00;1722902734;06/08/24;00:05:34;0.972;-0.175;0.11;-0.5644394755363464;-0.14782939851284027;0.21624629199504852
01:00:0A:00:00:00:00;1722902735;06/08/24;00:05:35;1.004;-0.081;0.127;-0.26511549949645996;0.2541199326515198;-0.48869219422340393
01:00:0A:00:00:00:00;1722902736;06/08/24;00:05:36;0.974;0.115;0.344;-0.5656611919403076;-0.35185837745666504;0.1319468915462494
01:00:0A:00:00:00:00;1722902737;06/08/24;00:05:37;1.053;-0.085;-0.096;-0.4789183437824249;0.0659734457731247;-0.019547687843441963
01:00:0A:00:00:00:00;1722902738;06/08/24;00:05:38;1.0;-0.103;0.35;-0.37629297375679016;0.2577851116657257;0.08918632566928864
01:00:0A:00:00:00:00;1722902739;06/08/24;00:05:39;1.029;-0.122;0.065;-0.3188716471195221;-0.3017674386501312;-0.1160643920302391
01:00:0A:00:00:00:00;1722902740;06/08/24;00:05:40;0.981;0.0;0.181;-0.17592918872833252;0.22968533635139465;-0.02321287989616394
01:00:0A:00:00:00:00;1722902741;06/08/24;00:05:41;0.968;-0.166;0.122;-0.15271630883216858;-0.2590068578720093;0.13072516024112701
01:00:0A:00:00:00:00;1722902742;06/08/24;00:05:42;0.994;-0.051;0.036;0.12217304855585098;0.1160643920302391;-0.2321287840604782
01:00:0A:00:00:00:00;1722902743;06/08/24;00:05:43;1.002;0.047;0.163;0.030543262138962746;0.021991148591041565;0.21135938167572021
01:00:0A:00:00:00:00;1722902744;06/08/24;00:05:44;1.021;-0.149;0.138;0.06719517707824707;-0.13805554807186127;0.0036651913542300463
01:00:0A:00:00:00:00;1722902745;06/08/24;00:05:45;1.027;0.027;0.06;0.15271630883216858;-0.025656338781118393;-0.13561207056045532
01:00:0A:00:00:00:00;1722902746;06/08/24;00:05:46;1.006;0.024;0.151;0.07696902006864548;0.1258382350206375;0.10018189996480942
01:00:0A:00:00:00:00;1722902747;06/08/24;00:05:47;1.011;-0.059;0.144;0.00855211354792118;-0.08552113175392151;0.08185594528913498
01:00:0A:00:00:00:00;1722902748;06/08/24;00:05:48;1.03;-0.021;0.062;0.05009094998240471;-0.0012217304902151227;-0.036651913076639175
01:00:0A:00:00:00:00;1722902749;06/08/24;00:05:49;1.018;0.051;0.13;0.01710422709584236;0.03176499158143997;0.009773843921720982
01:00:0A:00:00:00:00;1722902750;06/08/24;00:05:50;1.009;-0.039;0.093;-0.036651913076639175;-0.08307767659425735;0.1270599663257599
01:00:0A:00:00:00:00;1722902751;06/08/24;00:05:51;0.996;0.002;-0.007;0.48380526900291443;-0.17592918872833252;-0.09529497474431992
01:00:0A:00:00:00:00;1722902752;06/08/24;00:05:52;1.01;0.013;0.041;0.6548475623130798;0.0073303827084600925;0.012217304669320583
01:00:0A:00:00:00:00;1722902753;06/08/24;00:05:53;1.028;0.007;0.113;0.5693264007568359;0.03176499158143997;-0.019547687843441963
01:00:0A:00:00:00:00;1722902754;06/08/24;00:05:54;1.047;-0.001;0.134;0.4288274049758911;-0.09529497474431992;0.07941248267889023
01:00:0A:00:00:00:00;1722902755;06/08/24;00:05:55;1.036;-0.109;0.101;0.40683624148368835;-0.015882495790719986;0.11972958594560623
01:00:0A:00:00:00:00;1722902756;06/08/24;00:05:56;0.98;0.027;0.123;0.41172316670417786;0.05619959905743599;-0.1258382350206375
01:00:0A:00:00:00:00;1722902757;06/08/24;00:05:57;0.945;-0.041;0.102;0.26633724570274353;0.03787364438176155;0.24068090319633484
01:00:0A:00:00:00:00;1722902758;06/08/24;00:05:58;0.949;-0.032;0.095;0.29688048362731934;-0.1160643920302391;-0.20525071024894714
01:00:0A:00:00:00:00;1722902759;06/08/24;00:05:59;0.987;0.003;0.05;0.19792033731937408;0.12339477241039276;0.22602014243602753
01:00:0A:00:00:00:00;1722902760;06/08/24;00:06:00;1.044;-0.122;0.173;0.20647244155406952;-0.2724458873271942;-0.22846359014511108
01:00:0A:00:00:00:00;1722902761;06/08/24;00:06:01;1.079;0.02;-0.08;-0.07330382615327835;0.10018189996480942;0.2076941877603531
01:00:0A:00:00:00:00;1722902762;06/08/24;00:06:02;1.007;-0.252;0.398;-0.02076941914856434;0.010995574295520782;0.040317103266716
01:00:0A:00:00:00:00;1722902763;06/08/24;00:06:03;1.044;0.213;-0.086;-0.02687807008624077;-0.30543261766433716;-0.20647244155406952
01:00:0A:00:00:00:00;1722902764;06/08/24;00:06:04;0.99;-0.24;0.286;-0.045204028487205505;0.45204028487205505;0.4813618063926697
01:00:0A:00:00:00:00;1722902765;06/08/24;00:06:05;1.004;0.017;0.08;0.042760565876960754;-0.1661553531885147;-0.3017674386501312
01:00:0A:00:00:00:00;1722902766;06/08/24;00:06:06;1.001;0.013;0.034;-0.00855211354792118;0.21380282938480377;0.22602014243602753
01:00:0A:00:00:00:00;1722902767;06/08/24;00:06:07;0.982;-0.084;0.15;-0.0024434609804302454;0.10995574295520782;0.05864306166768074
01:00:0A:00:00:00:00;1722902768;06/08/24;00:06:08;0.984;0.011;0.025;-0.019547687843441963;-0.23090705275535583;-0.13316862285137177
01:00:0A:00:00:00:00;1722902769;06/08/24;00:06:09;0.945;-0.025;0.084;-0.02076941914856434;0.27488934993743896;0.1466076523065567
01:00:0A:00:00:00:00;1722902770;06/08/24;00:06:10;0.941;-0.021;0.106;-0.07208210229873657;-0.3029891550540924;-0.16371189057826996
01:00:0A:00:00:00:00;1722902771;06/08/24;00:06:11;1.013;-0.01;0.036;-0.04886921867728233;0.2883284091949463;0.07941248267889023
01:00:0A:00:00:00:00;1722902772;06/08/24;00:06:12;1.016;-0.074;0.251;-0.14416420459747314;-0.4764748811721802;-0.2626720666885376
01:00:0A:00:00:00:00;1722902773;06/08/24;00:06:13;1.062;0.051;-0.178;-0.10873401165008545;0.12828169763088226;0.07208210229873657
01:00:0A:00:00:00:00;1722902774;06/08/24;00:06:14;0.974;-0.142;0.486;-0.16249015927314758;0.2370157092809677;-0.040317103266716
01:00:0A:00:00:00:00;1722902775;06/08/24;00:06:15;1.046;0.055;-0.084;-0.3042108714580536;-0.41172316670417786;-0.080634206533432
01:00:0A:00:00:00:00;1722902776;06/08/24;00:06:16;1.012;-0.05;0.098;-0.2590068578720093;0.313984751701355;0.24068090319633484
01:00:0A:00:00:00:00;1722902777;06/08/24;00:06:17;0.978;-0.021;0.204;-0.32498031854629517;-0.0757472887635231;-0.11484266817569733
01:00:0A:00:00:00:00;1722902778;06/08/24;00:06:18;0.986;0.043;0.081;-0.4056144952774048;-0.2565633952617645;-0.12828169763088226
01:00:0A:00:00:00:00;1722902779;06/08/24;00:06:19;0.992;-0.052;0.107;-0.3848450779914856;0.19425514340400696;0.1062905490398407
01:00:0A:00:00:00:00;1722902780;06/08/24;00:06:20;1.002;-0.155;0.16;-0.32131510972976685;-0.05009094998240471;-0.20402899384498596
01:00:0A:00:00:00:00;1722902781;06/08/24;00:06:21;1.037;0.039;0.077;-0.34574973583221436;-0.06841690838336945;-0.025656338781118393
01:00:0A:00:00:00:00;1722902782;06/08/24;00:06:22;1.039;-0.061;0.096;-0.3591887652873993;-0.05009094998240471;0.09407324343919754
01:00:0A:00:00:00:00;1722902783;06/08/24;00:06:23;1.003;-0.084;0.112;-0.2724458873271942;0.01710422709584236;-0.06352998316287994
01:00:0A:00:00:00:00;1722902784;06/08/24;00:06:24;0.99;0.015;0.121;-0.27000245451927185;-0.02076941914856434;-0.10751228034496307
01:00:0A:00:00:00:00;1722902785;06/08/24;00:06:25;1.002;-0.019;0.1;-0.33108896017074585;-0.051312677562236786;0.09285151958465576
01:00:0A:00:00:00:00;1722902786;06/08/24;00:06:26;1.02;-0.077;0.073;-0.23090705275535583;0.045204028487205505;-0.08552113175392151
01:00:0A:00:00:00:00;1722902787;06/08/24;00:06:27;1.03;0.022;0.128;-0.2382374405860901;0.03787364438176155;-0.05619959905743599
01:00:0A:00:00:00:00;1722902788;06/08/24;00:06:28;1.022;-0.047;0.089;-0.29565879702568054;-0.05864306166768074;0.0708603635430336
01:00:0A:00:00:00:00;1722902789;06/08/24;00:06:29;0.987;-0.033;0.081;-0.23945917189121246;-0.00855211354792118;-0.06719517707824707
01:00:0A:00:00:00:00;1722902790;06/08/24;00:06:30;0.97;-0.01;0.122;-0.26145032048225403;-0.018325956538319588;-0.02687807008624077
01:00:0A:00:00:00:00;1722902791;06/08/24;00:06:31;0.999;-0.04;0.121;-0.29077184200286865;-0.09285151958465576;-0.036651913076639175
01:00:0A:00:00:00:00;1722902792;06/08/24;00:06:32;1.047;-0.048;0.087;-0.2565633952617645;0.04642575979232788;-0.02932153083384037
01:00:0A:00:00:00:00;1722902793;06/08/24;00:06:33;1.057;-0.03;0.153;-0.2822197377681732;-0.01710422709584236;0.009773843921720982
01:00:0A:00:00:00:00;1722902794;06/08/24;00:06:34;1.049;-0.033;0.069;-0.2834414541721344;-0.0708603635430336;0.04764748737215996
01:00:0A:00:00:00:00;1722902795;06/08/24;00:06:35;1.012;-0.075;0.093;-0.42638394236564636;-0.08674286305904388;0.2015855312347412
01:00:0A:00:00:00:00;1722902796;06/08/24;00:06:36;0.964;-0.042;0.11;-0.3530800938606262;-0.021991148591041565;0.0012217304902151227
01:00:0A:00:00:00:00;1722902797;06/08/24;00:06:37;0.96;-0.019;0.125;-0.2773328125476837;0.09162978082895279;-0.10873401165008545
01:00:0A:00:00:00:00;1722902798;06/08/24;00:06:38;0.996;-0.014;0.144;-0.34697145223617554;-0.15393804013729095;0.0073303827084600925
01:00:0A:00:00:00:00;1722902799;06/08/24;00:06:39;1.027;-0.031;0.059;-0.27611109614372253;0.0708603635430336;-0.036651913076639175
01:00:0A:00:00:00:00;1722902800;06/08/24;00:06:40;1.043;-0.031;0.179;-0.26633724570274353;-0.0012217304902151227;-0.03787364438176155
01:00:0A:00:00:00:00;1722902801;06/08/24;00:06:41;1.049;-0.03;0.086;-0.26145032048225403;-0.06841690838336945;-0.021991148591041565
01:00:0A:00:00:00:00;1722902802;06/08/24;00:06:42;1.031;-0.028;0.111;-0.22113320231437683;0.051312677562236786;0.010995574295520782
01:00:0A:00:00:00:00;1722902803;06/08/24;00:06:43;0.992;-0.056;0.119;-0.21013763546943665;-0.0024434609804302454;0.03298672288656235
01:00:0A:00:00:00:00;1722902804;06/08/24;00:06:44;0.983;-0.03;0.089;-0.17592918872833252;-0.036651913076639175;-0.04886921867728233
01:00:0A:00:00:00:00;1722902805;06/08/24;00:06:45;0.982;-0.027;0.106;-0.17348572611808777;0.019547687843441963;0.045204028487205505
01:00:0A:00:00:00:00;1722902806;06/08/24;00:06:46;0.993;-0.045;0.116;-0.1576032191514969;-0.051312677562236786;-0.03787364438176155
01:00:0A:00:00:00:00;1722902807;06/08/24;00:06:47;1.024;-0.011;0.102;-0.14782939851284027;-0.01710422709584236;-0.02687807008624077
01:00:0A:00:00:00:00;1722902808;06/08/24;00:06:48;1.045;-0.022;0.124;-0.16004669666290283;-0.00855211354792118;0.013439035043120384
01:00:0A:00:00:00:00;1722902809;06/08/24;00:06:49;1.054;-0.051;0.115;-0.14782939851284027;-0.009773843921720982;-0.010995574295520782
01:00:0A:00:00:00:00;1722902810;06/08/24;00:06:50;1.028;-0.017;0.106;-0.1368338167667389;0.014660765416920185;-0.015882495790719986
01:00:0A:00:00:00:00;1722902811;06/08/24;00:06:51;0.996;-0.048;0.109;-0.1563815027475357;0.014660765416920185;0.07696902006864548
01:00:0A:00:00:00:00;1722902812;06/08/24;00:06:52;0.953;-0.023;0.09;-0.1368338167667389;-0.02076941914856434;-0.004886921960860491
01:00:0A:00:00:00:00;1722902813;06/08/24;00:06:53;0.963;-0.006;0.098;-0.14294245839118958;-0.0036651913542300463;0.05253440886735916
01:00:0A:00:00:00:00;1722902814;06/08/24;00:06:54;1.013;-0.013;0.12;-0.1258382350206375;-0.05864306166768074;-0.07208210229873657
01:00:0A:00:00:00:00;1722902815;06/08/24;00:06:55;1.037;0.001;0.107;-0.12217304855585098;0.0;-0.04642575979232788
01:00:0A:00:00:00:00;1722902816;06/08/24;00:06:56;1.049;-0.046;0.125;-0.1258382350206375;0.012217304669320583;-0.03787364438176155
01:00:0A:00:00:00:00;1722902817;06/08/24;00:06:57;1.031;-0.042;0.101;-0.1368338167667389;0.0012217304902151227;0.0073303827084600925
01:00:0A:00:00:00:00;1722902818;06/08/24;00:06:58;1.012;-0.029;0.096;-0.15027284622192383;-0.0024434609804302454;0.04764748737215996
01:00:0A:00:00:00:00;1722902819;06/08/24;00:06:59;0.99;-0.021;0.113;-0.16004669666290283;-0.024434609338641167;0.04153883829712868
01:00:0A:00:00:00:00;1722902820;06/08/24;00:07:00;0.99;-0.006;0.124;-0.1563815027475357;-0.03176499158143997;-0.03420845419168472
01:00:0A:00:00:00:00;1722902821;06/08/24;00:07:01;1.002;-0.004;0.123;-0.16371189057826996;0.024434609338641167;-0.01710422709584236
01:00:0A:00:00:00:00;1722902822;06/08/24;00:07:02;1.009;-0.03;0.122;-0.16859880089759827;0.02321287989616394;-0.03176499158143997
01:00:0A:00:00:00:00;1722902823;06/08/24;00:07:03;1.018;-0.029;0.088;-0.16004669666290283;-0.013439035043120384;-0.05742133408784866
01:00:0A:00:00:00:00;1722902824;06/08/24;00:07:04;1.018;-0.016;0.086;-0.16982054710388184;-0.040317103266716;-0.0073303827084600925
01:00:0A:00:00:00:00;1722902825;06/08/24;00:07:05;1.018;-0.04;0.108;-0.1661553531885147;-0.06963863223791122;-0.010995574295520782
01:00:0A:00:00:00:00;1722902826;06/08/24;00:07:06;1.017;-0.044;0.126;-0.1466076523065567;-0.03176499158143997;-0.03787364438176155
01:00:0A:00:00:00:00;1722902827;06/08/24;00:07:07;1.014;-0.036;0.141;-0.15515977144241333;0.006108652334660292;0.00855211354792118
01:00:0A:00:00:00:00;1722902828;06/08/24;00:07:08;1.006;-0.047;0.121;-0.15882496535778046;0.030543262138962746;0.036651913076639175
01:00:0A:00:00:00:00;1722902829;06/08/24;00:07:09;1.007;-0.028;0.098;-0.14538592100143433;0.019547687843441963;0.006108652334660292
01:00:0A:00:00:00:00;1722902830;06/08/24;00:07:10;1.003;-0.005;0.094;-0.15271630883216858;-0.015882495790719986;0.0036651913542300463
01:00:0A:00:00:00:00;1722902831;06/08/24;00:07:11;1.004;-0.025;0.092;-0.14538592100143433;-0.04642575979232788;-0.02321287989616394
01:00:0A:00:00:00:00;1722902832;06/08/24;00:07:12;1.003;-0.033;0.114;-0.12950342893600464;-0.03298672288656235;-0.06230825558304787
01:00:0A:00:00:00:00;1722902833;06/08/24;00:07:13;1.003;-0.036;0.121;-0.1417207270860672;-0.045204028487205505;-0.013439035043120384
01:00:0A:00:00:00:00;1722902834;06/08/24;00:07:14;1.017;-0.051;0.113;-0.13805554807186127;-0.0354301817715168;0.0073303827084600925
01:00:0A:00:00:00:00;1722902835;06/08/24;00:07:15;1.034;-0.032;0.113;-0.12339477241039276;0.014660765416920185;0.009773843921720982
01:00:0A:00:00:00:00;1722902836;06/08/24;00:07:16;1.035;-0.023;0.121;-0.1258382350206375;0.0036651913542300463;0.01710422709584236
01:00:0A:00:00:00:00;1722902837;06/08/24;00:07:17;1.01;-0.023;0.096;-0.12095131725072861;-0.0036651913542300463;0.00855211354792118
01:00:0A:00:00:00:00;1722902838;06/08/24;00:07:18;0.986;-0.011;0.092;-0.1014036238193512;0.03176499158143997;-0.009773843921720982
01:00:0A:00:00:00:00;1722902839;06/08/24;00:07:19;0.981;-0.008;0.095;-0.10873401165008545;-0.0354301817715168;-0.009773843921720982
01:00:0A:00:00:00:00;1722902840;06/08/24;00:07:20;0.999;-0.011;0.1;-0.09529497474431992;-0.02932153083384037;-0.036651913076639175
01:00:0A:00:00:00:00;1722902841;06/08/24;00:07:21;1.036;-0.013;0.117;-0.08429940044879913;-0.015882495790719986;-0.04764748737215996
01:00:0A:00:00:00:00;1722902842;06/08/24;00:07:22;1.048;-0.032;0.115;-0.07819075137376785;0.0;-0.03176499158143997
01:00:0A:00:00:00:00;1722902843;06/08/24;00:07:23;1.035;-0.034;0.1;-0.06963863223791122;0.021991148591041565;-0.009773843921720982
01:00:0A:00:00:00:00;1722902844;06/08/24;00:07:24;1.002;-0.037;0.097;-0.06719517707824707;0.006108652334660292;0.01710422709584236
01:00:0A:00:00:00:00;1722902845;06/08/24;00:07:25;0.993;-0.031;0.091;-0.06108652427792549;-0.024434609338641167;-0.0012217304902151227
01:00:0A:00:00:00:00;1722902846;06/08/24;00:07:26;0.994;-0.018;0.094;-0.05619959905743599;-0.028099799528717995;0.0024434609804302454
01:00:0A:00:00:00:00;1722902847;06/08/24;00:07:27;1.007;-0.028;0.107;-0.05375614017248154;-0.028099799528717995;-0.0024434609804302454
01:00:0A:00:00:00:00;1722902848;06/08/24;00:07:28;1.018;-0.026;0.116;-0.04764748737215996;-0.02321287989616394;-0.018325956538319588
01:00:0A:00:00:00:00;1722902849;06/08/24;00:07:29;1.016;-0.025;0.114;-0.05009094998240471;-0.0036651913542300463;0.0012217304902151227
01:00:0A:00:00:00:00;1722902850;06/08/24;00:07:30;1.007;-0.035;0.117;-0.05009094998240471;0.009773843921720982;0.01710422709584236
01:00:0A:00:00:00:00;1722902851;06/08/24;00:07:31;1.0;-0.028;0.116;-0.042760565876960754;0.0012217304902151227;-0.012217304669320583
01:00:0A:00:00:00:00;1722902852;06/08/24;00:07:32;1.002;-0.019;0.11;-0.051312677562236786;0.0012217304902151227;0.015882495790719986
01:00:0A:00:00:00:00;1722902853;06/08/24;00:07:33;1.016;-0.031;0.114;-0.04642575979232788;-0.015882495790719986;-0.012217304669320583
01:00:0A:00:00:00:00;1722902854;06/08/24;00:07:34;1.026;-0.027;0.114;-0.039095375686883926;-0.018325956538319588;-0.030543262138962746
01:00:0A:00:00:00:00;1722902855;06/08/24;00:07:35;1.03;-0.026;0.116;-0.04764748737215996;-0.0073303827084600925;0.004886921960860491
01:00:0A:00:00:00:00;1722902856;06/08/24;00:07:36;1.02;-0.044;0.118;-0.042760565876960754;0.010995574295520782;0.009773843921720982
01:00:0A:00:00:00:00;1722902857;06/08/24;00:07:37;1.002;-0.028;0.111;-0.0354301817715168;0.02076941914856434;-0.018325956538319588
01:00:0A:00:00:00:00;1722902858;06/08/24;00:07:38;0.995;-0.022;0.105;-0.04886921867728233;0.019547687843441963;0.02076941914856434
01:00:0A:00:00:00:00;1722902858;06/08/24;00:07:38;1.006;-0.035;0.098;-0.045204028487205505;-0.00855211354792118;-0.010995574295520782
01:00:0A:00:00:00:00;1722902859;06/08/24;00:07:39;1.024;-0.023;0.104;-0.04642575979232788;-0.04642575979232788;-0.024434609338641167
01:00:0A:00:00:00:00;1722902860;06/08/24;00:07:40;1.028;-0.021;0.106;-0.059864792972803116;-0.05742133408784866;-0.004886921960860491
01:00:0A:00:00:00:00;1722902861;06/08/24;00:07:41;1.024;-0.043;0.122;-0.05742133408784866;-0.02932153083384037;-0.0036651913542300463
01:00:0A:00:00:00:00;1722902862;06/08/24;00:07:42;1.018;-0.038;0.135;-0.05375614017248154;-0.004886921960860491;-0.015882495790719986
01:00:0A:00:00:00:00;1722902863;06/08/24;00:07:43;1.004;-0.031;0.12;-0.0708603635430336;0.01710422709584236;0.021991148591041565
01:00:0A:00:00:00:00;1722902864;06/08/24;00:07:44;1.0;-0.022;0.106;-0.07819075137376785;0.025656338781118393;0.02321287989616394
01:00:0A:00:00:00:00;1722902865;06/08/24;00:07:45;1.002;-0.01;0.1;-0.08674286305904388;-0.0073303827084600925;0.013439035043120384
01:00:0A:00:00:00:00;1722902866;06/08/24;00:07:46;1.01;-0.012;0.099;-0.08918632566928864;-0.036651913076639175;-0.0073303827084600925
01:00:0A:00:00:00:00;1722902867;06/08/24;00:07:47;1.016;-0.02;0.106;-0.07941248267889023;-0.02687807008624077;-0.04153883829712868
01:00:0A:00:00:00:00;1722902868;06/08/24;00:07:48;1.016;-0.032;0.122;-0.08307767659425735;-0.019547687843441963;-0.028099799528717995
01:00:0A:00:00:00:00;1722902869;06/08/24;00:07:49;1.017;-0.04;0.119;-0.08307767659425735;-0.006108652334660292;-0.0024434609804302454
01:00:0A:00:00:00:00;1722902870;06/08/24;00:07:50;1.014;-0.032;0.112;-0.07696902006864548;0.025656338781118393;0.01710422709584236
01:00:0A:00:00:00:00;1722902871;06/08/24;00:07:51;1.014;-0.026;0.115;-0.07819075137376785;0.0036651913542300463;0.010995574295520782
01:00:0A:00:00:00:00;1722902872;06/08/24;00:07:52;1.007;-0.022;0.099;-0.07330382615327835;-0.014660765416920185;-0.010995574295520782
01:00:0A:00:00:00:00;1722902873;06/08/24;00:07:53;1.0;-0.023;0.105;-0.06230825558304787;0.0036651913542300463;-0.021991148591041565
01:00:0A:00:00:00:00;1722902874;06/08/24;00:07:54;1.002;-0.034;0.111;-0.06841690838336945;-0.030543262138962746;-0.015882495790719986
01:00:0A:00:00:00:00;1722902875;06/08/24;00:07:55;1.016;-0.04;0.107;-0.0659734457731247;-0.028099799528717995;-0.021991148591041565
01:00:0A:00:00:00:00;1722902876;06/08/24;00:07:56;1.043;-0.035;0.121;-0.0659734457731247;-0.012217304669320583;0.0073303827084600925
01:00:0A:00:00:00:00;1722902877;06/08/24;00:07:57;1.041;-0.029;0.121;-0.06963863223791122;0.012217304669320583;0.028099799528717995
01:00:0A:00:00:00:00;1722902878;06/08/24;00:07:58;1.022;-0.028;0.105;-0.06719517707824707;0.01710422709584236;0.03176499158143997
01:00:0A:00:00:00:00;1722902879;06/08/24;00:07:59;0.973;-0.023;0.101;-0.06230825558304787;0.02076941914856434;0.019547687843441963
01:00:0A:00:00:00:00;1722902880;06/08/24;00:08:00;0.955;-0.017;0.093;-0.0659734457731247;-0.05009094998240471;-0.0073303827084600925
01:00:0A:00:00:00:00;1722902881;06/08/24;00:08:01;0.987;-0.015;0.101;-0.05619959905743599;-0.014660765416920185;-0.00855211354792118
01:00:0A:00:00:00:00;1722902882;06/08/24;00:08:02;1.018;-0.026;0.124;-0.051312677562236786;-0.039095375686883926;-0.024434609338641167
01:00:0A:00:00:00:00;1722902883;06/08/24;00:08:03;1.057;-0.029;0.112;-0.040317103266716;0.0073303827084600925;-0.01710422709584236
01:00:0A:00:00:00:00;1722902884;06/08/24;00:08:04;1.057;-0.032;0.117;-0.0354301817715168;0.028099799528717995;0.006108652334660292
01:00:0A:00:00:00:00;1722902885;06/08/24;00:08:05;1.026;-0.041;0.1;-0.03298672288656235;0.0024434609804302454;0.024434609338641167
01:00:0A:00:00:00:00;1722902886;06/08/24;00:08:06;0.986;-0.028;0.097;-0.02076941914856434;-0.019547687843441963;0.004886921960860491
01:00:0A:00:00:00:00;1722902887;06/08/24;00:08:07;0.98;-0.031;0.104;-0.018325956538319588;-0.028099799528717995;0.018325956538319588
01:00:0A:00:00:00:00;1722902888;06/08/24;00:08:08;0.999;-0.04;0.115;-0.004886921960860491;-0.03176499158143997;-0.006108652334660292
01:00:0A:00:00:00:00;1722902889;06/08/24;00:08:09;1.015;-0.036;0.113;0.006108652334660292;-0.019547687843441963;-0.00855211354792118
01:00:0A:00:00:00:00;1722902890;06/08/24;00:08:10;1.027;-0.034;0.109;0.006108652334660292;-0.009773843921720982;0.021991148591041565
01:00:0A:00:00:00:00;1722902891;06/08/24;00:08:11;1.026;-0.04;0.111;0.012217304669320583;-0.013439035043120384;0.02687807008624077
01:00:0A:00:00:00:00;1722902892;06/08/24;00:08:12;1.014;-0.026;0.107;0.018325956538319588;-0.013439035043120384;0.0073303827084600925
01:00:0A:00:00:00:00;1722902893;06/08/24;00:08:13;1.007;-0.026;0.109;0.01710422709584236;-0.0073303827084600925;0.024434609338641167
01:00:0A:00:00:00:00;1722902894;06/08/24;00:08:14;1.004;-0.03;0.109;0.024434609338641167;-0.006108652334660292;0.006108652334660292
01:00:0A:00:00:00:00;1722902895;06/08/24;00:08:15;1.009;-0.024;0.101;0.030543262138962746;-0.010995574295520782;-0.014660765416920185
01:00:0A:00:00:00:00;1722902896;06/08/24;00:08:16;1.012;-0.027;0.097;0.02932153083384037;0.0036651913542300463;0.0036651913542300463
01:00:0A:00:00:00:00;1722902897;06/08/24;00:08:17;1.013;-0.038;0.102;0.03176499158143997;-0.02321287989616394;-0.0012217304902151227
01:00:0A:00:00:00:00;1722902898;06/08/24;00:08:18;1.017;-0.029;0.101;0.0354301817715168;-0.03176499158143997;-0.0012217304902151227
01:00:0A:00:00:00:00;1722902899;06/08/24;00:08:19;1.02;-0.025;0.106;0.0354301817715168;-0.0036651913542300463;0.024434609338641167
01:00:0A:00:00:00:00;1722902900;06/08/24;00:08:20;1.02;-0.033;0.117;0.039095375686883926;-0.00855211354792118;0.013439035043120384
01:00:0A:00:00:00:00;1722902901;06/08/24;00:08:21;1.013;-0.022;0.104;0.04398229718208313;-0.014660765416920185;-0.004886921960860491
01:00:0A:00:00:00:00;1722902902;06/08/24;00:08:22;1.007;-0.025;0.105;0.04153883829712868;0.004886921960860491;0.018325956538319588
01:00:0A:00:00:00:00;1722902903;06/08/24;00:08:23;1.0;-0.029;0.113;0.040317103266716;-0.019547687843441963;0.0024434609804302454
01:00:0A:00:00:00:00;1722902904;06/08/24;00:08:24;1.007;-0.021;0.107;0.039095375686883926;-0.039095375686883926;-0.013439035043120384
01:00:0A:00:00:00:00;1722902905;06/08/24;00:08:25;1.012;-0.023;0.11;0.036651913076639175;0.0012217304902151227;0.0
01:00:0A:00:00:00:00;1722902906;06/08/24;00:08:26;1.013;-0.032;0.121;0.0354301817715168;0.012217304669320583;-0.00855211354792118
01:00:0A:00:00:00:00;1722902907;06/08/24;00:08:27;1.01;-0.025;0.104;0.02932153083384037;-0.006108652334660292;-0.015882495790719986
01:00:0A:00:00:00:00;1722902908;06/08/24;00:08:28;1.013;-0.029;0.1;0.02321287989616394;0.010995574295520782;0.014660765416920185
01:00:0A:00:00:00:00;1722902909;06/08/24;00:08:29;1.016;-0.039;0.115;0.013439035043120384;-0.02321287989616394;0.012217304669320583
01:00:0A:00:00:00:00;1722902910;06/08/24;00:08:30;1.031;-0.024;0.109;0.004886921960860491;-0.03420845419168472;0.01710422709584236
01:00:0A:00:00:00:00;1722902911;06/08/24;00:08:31;1.029;-0.022;0.117;0.0036651913542300463;0.0012217304902151227;0.019547687843441963
01:00:0A:00:00:00:00;1722902912;06/08/24;00:08:32;1.013;-0.029;0.127;-0.0012217304902151227;0.00855211354792118;0.0073303827084600925
01:00:0A:00:00:00:00;1722902913;06/08/24;00:08:33;0.983;-0.025;0.104;-0.006108652334660292;-0.018325956538319588;-0.006108652334660292
01:00:0A:00:00:00:00;1722902914;06/08/24;00:08:34;0.977;-0.03;0.102;-0.0073303827084600925;0.004886921960860491;0.0012217304902151227
01:00:0A:00:00:00:00;1722902915;06/08/24;00:08:35;1.01;-0.038;0.111;-0.012217304669320583;-0.04886921867728233;-0.013439035043120384
01:00:0A:00:00:00:00;1722902916;06/08/24;00:08:36;1.039;-0.023;0.102;-0.01710422709584236;-0.028099799528717995;0.009773843921720982
01:00:0A:00:00:00:00;1722902917;06/08/24;00:08:37;1.05;-0.031;0.124;-0.019547687843441963;-0.0012217304902151227;0.015882495790719986
01:00:0A:00:00:00:00;1722902918;06/08/24;00:08:38;1.034;-0.024;0.117;-0.02076941914856434;-0.004886921960860491;0.0036651913542300463
01:00:0A:00:00:00:00;1722902919;06/08/24;00:08:39;0.988;-0.022;0.103;-0.019547687843441963;0.004886921960860491;0.0012217304902151227
01:00:0A:00:00:00:00;1722902920;06/08/24;00:08:40;0.974;-0.031;0.101;-0.019547687843441963;-0.013439035043120384;-0.012217304669320583
01:00:0A:00:00:00:00;1722902921;06/08/24;00:08:41;0.994;-0.031;0.095;-0.02321287989616394;-0.04764748737215996;-0.024434609338641167
01:00:0A:00:00:00:00;1722902922;06/08/24;00:08:42;1.04;-0.032;0.102;-0.025656338781118393;-0.03420845419168472;0.006108652334660292
01:00:0A:00:00:00:00;1722902923;06/08/24;00:08:43;1.051;-0.031;0.123;-0.030543262138962746;-0.03298672288656235;0.010995574295520782
01:00:0A:00:00:00:00;1722902924;06/08/24;00:08:44;1.041;-0.022;0.114;-0.02932153083384037;-0.009773843921720982;0.014660765416920185
01:00:0A:00:00:00:00;1722902925;06/08/24;00:08:45;1.012;-0.024;0.119;-0.02321287989616394;0.03176499158143997;0.014660765416920185
01:00:0A:00:00:00:00;1722902926;06/08/24;00:08:46;0.976;-0.023;0.105;-0.021991148591041565;0.00855211354792118;-0.0024434609804302454
01:00:0A:00:00:00:00;1722902927;06/08/24;00:08:47;0.978;-0.029;0.099;-0.018325956538319588;-0.012217304669320583;-0.014660765416920185
01:00:0A:00:00:00:00;1722902928;06/08/24;00:08:48;1.008;-0.032;0.102;-0.019547687843441963;-0.021991148591041565;-0.0073303827084600925
01:00:0A:00:00:00:00;1722902929;06/08/24;00:08:49;1.035;-0.039;0.117;-0.02076941914856434;-0.030543262138962746;0.0073303827084600925
01:00:0A:00:00:00:00;1722902930;06/08/24;00:08:50;1.039;-0.03;0.114;-0.018325956538319588;-0.012217304669320583;0.02321287989616394
01:00:0A:00:00:00:00;1722902931;06/08/24;00:08:51;1.023;-0.024;0.115;-0.014660765416920185;0.01710422709584236;0.025656338781118393
01:00:0A:00:00:00:00;1722902932;06/08/24;00:08:52;1.004;-0.026;0.11;-0.009773843921720982;0.015882495790719986;0.00855211354792118
01:00:0A:00:00:00:00;1722902933;06/08/24;00:08:53;0.993;-0.027;0.095;-0.006108652334660292;-0.012217304669320583;-0.0024434609804302454
01:00:0A:00:00:00:00;1722902934;06/08/24;00:08:54;0.996;-0.029;0.096;-0.0073303827084600925;-0.02321287989616394;0.0073303827084600925
01:00:0A:00:00:00:00;1722902935;06/08/24;00:08:55;1.011;-0.036;0.104;-0.0036651913542300463;-0.05253440886735916;-0.0036651913542300463
01:00:0A:00:00:00:00;1722902936;06/08/24;00:08:56;1.017;-0.029;0.107;0.0024434609804302454;-0.05009094998240471;-0.004886921960860491
01:00:0A:00:00:00:00;1722902937;06/08/24;00:08:57;1.024;-0.025;0.122;0.006108652334660292;-0.010995574295520782;0.00855211354792118
01:00:0A:00:00:00:00;1722902938;06/08/24;00:08:58;1.025;-0.031;0.119;0.013439035043120384;0.013439035043120384;0.0036651913542300463
01:00:0A:00:00:00:00;1722902939;06/08/24;00:08:59;1.021;-0.027;0.111;0.019547687843441963;0.021991148591041565;-0.0036651913542300463
01:00:0A:00:00:00:00;1722902940;06/08/24;00:09:00;1.011;-0.03;0.099;0.019547687843441963;0.02076941914856434;0.0073303827084600925
01:00:0A:00:00:00:00;1722902941;06/08/24;00:09:01;1.007;-0.035;0.098;0.021991148591041565;0.004886921960860491;0.014660765416920185
01:00:0A:00:00:00:00;1722902942;06/08/24;00:09:02;1.003;-0.029;0.099;0.021991148591041565;-0.025656338781118393;0.00855211354792118
01:00:0A:00:00:00:00;1722902943;06/08/24;00:09:03;1.001;-0.026;0.102;0.021991148591041565;-0.025656338781118393;0.006108652334660292
01:00:0A:00:00:00:00;1722902944;06/08/24;00:09:04;1.002;-0.028;0.111;0.02321287989616394;-0.025656338781118393;0.0024434609804302454
01:00:0A:00:00:00:00;1722902945;06/08/24;00:09:05;1.007;-0.027;0.11;0.024434609338641167;-0.028099799528717995;-0.0036651913542300463
01:00:0A:00:00:00:00;1722902946;06/08/24;00:09:06;1.021;-0.032;0.111;0.024434609338641167;-0.01710422709584236;-0.0012217304902151227
01:00:0A:00:00:00:00;1722902947;06/08/24;00:09:07;1.029;-0.035;0.114;0.024434609338641167;-0.0036651913542300463;0.018325956538319588
01:00:0A:00:00:00:00;1722902948;06/08/24;00:09:08;1.029;-0.028;0.113;0.024434609338641167;-0.0036651913542300463;0.015882495790719986
01:00:0A:00:00:00:00;1722902949;06/08/24;00:09:09;1.016;-0.027;0.109;0.025656338781118393;0.0012217304902151227;0.013439035043120384
01:00:0A:00:00:00:00;1722902950;06/08/24;00:09:10;1.01;-0.029;0.111;0.02932153083384037;0.0073303827084600925;0.014660765416920185
01:00:0A:00:00:00:00;1722902951;06/08/24;00:09:11;1.001;-0.024;0.108;0.030543262138962746;-0.0012217304902151227;0.0036651913542300463
01:00:0A:00:00:00:00;1722902952;06/08/24;00:09:12;0.997;-0.027;0.106;0.03176499158143997;-0.006108652334660292;0.0024434609804302454
01:00:0A:00:00:00:00;1722902953;06/08/24;00:09:13;0.998;-0.031;0.106;0.03420845419168472;-0.01710422709584236;-0.004886921960860491
01:00:0A:00:00:00:00;1722902954;06/08/24;00:09:14;1.003;-0.029;0.106;0.0354301817715168;-0.02076941914856434;-0.010995574295520782
01:00:0A:00:00:00:00;1722902955;06/08/24;00:09:15;1.019;-0.032;0.11;0.03420845419168472;-0.025656338781118393;-0.0073303827084600925
01:00:0A:00:00:00:00;1722902956;06/08/24;00:09:16;1.024;-0.035;0.114;0.03420845419168472;-0.00855211354792118;0.00855211354792118
01:00:0A:00:00:00:00;1722902957;06/08/24;00:09:17;1.025;-0.027;0.112;0.0354301817715168;-0.0036651913542300463;0.009773843921720982
01:00:0A:00:00:00:00;1722902958;06/08/24;00:09:18;1.012;-0.028;0.107;0.0354301817715168;-0.0036651913542300463;0.012217304669320583
01:00:0A:00:00:00:00;1722902959;06/08/24;00:09:19;1.008;-0.028;0.104;0.036651913076639175;-0.00855211354792118;0.006108652334660292
01:00:0A:00:00:00:00;1722902960;06/08/24;00:09:20;1.004;-0.03;0.101;0.036651913076639175;-0.02076941914856434;0.004886921960860491
01:00:0A:00:00:00:00;1722902961;06/08/24;00:09:21;1.005;-0.028;0.103;0.0354301817715168;-0.02321287989616394;0.015882495790719986
01:00:0A:00:00:00:00;1722902962;06/08/24;00:09:22;1.013;-0.023;0.114;0.036651913076639175;-0.02076941914856434;0.009773843921720982
01:00:0A:00:00:00:00;1722902963;06/08/24;00:09:23;1.018;-0.021;0.113;0.03787364438176155;-0.015882495790719986;-0.0012217304902151227
01:00:0A:00:00:00:00;1722902964;06/08/24;00:09:24;1.018;-0.023;0.112;0.04153883829712868;0.0012217304902151227;-0.00855211354792118
01:00:0A:00:00:00:00;1722902965;06/08/24;00:09:25;1.011;-0.033;0.11;0.04153883829712868;0.006108652334660292;-0.013439035043120384
01:00:0A:00:00:00:00;1722902966;06/08/24;00:09:26;1.008;-0.036;0.104;0.04153883829712868;-0.0012217304902151227;-0.012217304669320583
01:00:0A:00:00:00:00;1722902967;06/08/24;00:09:27;1.012;-0.039;0.099;0.036651913076639175;-0.014660765416920185;0.015882495790719986
01:00:0A:00:00:00:00;1722902968;06/08/24;00:09:28;1.015;-0.039;0.102;0.03298672288656235;-0.021991148591041565;0.02932153083384037
01:00:0A:00:00:00:00;1722902969;06/08/24;00:09:29;1.015;-0.026;0.108;0.03176499158143997;-0.024434609338641167;0.03298672288656235
01:00:0A:00:00:00:00;1722902970;06/08/24;00:09:30;1.013;-0.018;0.107;0.03176499158143997;-0.019547687843441963;0.02076941914856434
01:00:0A:00:00:00:00;1722902971;06/08/24;00:09:31;1.01;-0.018;0.11;0.03420845419168472;-0.013439035043120384;-0.0036651913542300463
01:00:0A:00:00:00:00;1722902972;06/08/24;00:09:32;1.011;-0.023;0.109;0.0354301817715168;-0.0073303827084600925;-0.014660765416920185
01:00:0A:00:00:00:00;1722902973;06/08/24;00:09:33;1.012;-0.033;0.109;0.03298672288656235;-0.012217304669320583;-0.004886921960860491
01:00:0A:00:00:00:00;1722902974;06/08/24;00:09:34;1.015;-0.035;0.108;0.028099799528717995;-0.013439035043120384;0.015882495790719986
01:00:0A:00:00:00:00;1722902975;06/08/24;00:09:35;1.015;-0.03;0.108;0.02687807008624077;-0.013439035043120384;0.021991148591041565
01:00:0A:00:00:00:00;1722902976;06/08/24;00:09:36;1.01;-0.022;0.11;0.025656338781118393;-0.015882495790719986;0.01710422709584236
01:00:0A:00:00:00:00;1722902977;06/08/24;00:09:37;1.01;-0.02;0.107;0.025656338781118393;-0.01710422709584236;0.0012217304902151227
01:00:0A:00:00:00:00;1722902978;06/08/24;00:09:38;1.014;-0.026;0.11;0.02687807008624077;-0.012217304669320583;-0.009773843921720982
01:00:0A:00:00:00:00;1722902979;06/08/24;00:09:39;1.016;-0.032;0.111;0.024434609338641167;-0.009773843921720982;-0.0024434609804302454
01:00:0A:00:00:00:00;1722902980;06/08/24;00:09:40;1.018;-0.037;0.109;0.019547687843441963;-0.00855211354792118;0.01710422709584236
01:00:0A:00:00:00:00;1722902981;06/08/24;00:09:41;1.011;-0.029;0.109;0.015882495790719986;-0.0073303827084600925;0.02687807008624077
01:00:0A:00:00:00:00;1722902982;06/08/24;00:09:42;1.005;-0.022;0.109;0.013439035043120384;-0.009773843921720982;0.019547687843441963
01:00:0A:00:00:00:00;1722902983;06/08/24;00:09:43;1.006;-0.018;0.106;0.015882495790719986;-0.00855211354792118;-0.0036651913542300463
01:00:0A:00:00:00:00;1722902984;06/08/24;00:09:44;1.013;-0.02;0.108;0.014660765416920185;-0.006108652334660292;-0.014660765416920185
01:00:0A:00:00:00:00;1722902985;06/08/24;00:09:45;1.025;-0.031;0.111;0.010995574295520782;-0.010995574295520782;-0.010995574295520782
01:00:0A:00:00:00:00;1722902986;06/08/24;00:09:46;1.027;-0.038;0.108;0.009773843921720982;-0.004886921960860491;0.0
01:00:0A:00:00:00:00;1722902987;06/08/24;00:09:47;1.017;-0.035;0.109;0.006108652334660292;-0.0024434609804302454;0.018325956538319588
01:00:0A:00:00:00:00;1722902988;06/08/24;00:09:48;1.007;-0.031;0.109;0.0024434609804302454;-0.010995574295520782;0.024434609338641167
01:00:0A:00:00:00:00;1722902989;06/08/24;00:09:49;0.997;-0.025;0.108;0.0036651913542300463;-0.021991148591041565;0.009773843921720982
01:00:0A:00:00:00:00;1722902990;06/08/24;00:09:50;1.001;-0.025;0.114;0.006108652334660292;-0.028099799528717995;-0.009773843921720982
01:00:0A:00:00:00:00;1722902991;06/08/24;00:09:51;1.013;-0.029;0.115;0.0073303827084600925;-0.024434609338641167;-0.014660765416920185
01:00:0A:00:00:00:00;1722902992;06/08/24;00:09:52;1.025;-0.033;0.115;0.0073303827084600925;-0.006108652334660292;-0.0036651913542300463
01:00:0A:00:00:00:00;1722902993;06/08/24;00:09:53;1.026;-0.034;0.118;0.0073303827084600925;0.0024434609804302454;0.00855211354792118
01:00:0A:00:00:00:00;1722902994;06/08/24;00:09:54;1.017;-0.031;0.106;0.0073303827084600925;0.0;0.015882495790719986
01:00:0A:00:00:00:00;1722902995;06/08/24;00:09:55;1.011;-0.027;0.104;0.009773843921720982;0.0;0.013439035043120384
01:00:0A:00:00:00:00;1722902996;06/08/24;00:09:56;1.004;-0.027;0.103;0.010995574295520782;-0.00855211354792118;0.0036651913542300463
01:00:0A:00:00:00:00;1722902997;06/08/24;00:09:57;1.008;-0.028;0.101;0.012217304669320583;-0.02932153083384037;-0.006108652334660292
01:00:0A:00:00:00:00;1722902998;06/08/24;00:09:58;1.013;-0.028;0.104;0.014660765416920185;-0.02076941914856434;0.0024434609804302454
01:00:0A:00:00:00:00;1722902999;06/08/24;00:09:59;1.017;-0.031;0.113;0.013439035043120384;-0.01710422709584236;0.0073303827084600925
01:00:0A:00:00:00:00;1722903000;06/08/24;00:10:00;1.017;-0.03;0.109;0.013439035043120384;-0.015882495790719986;0.0073303827084600925
01:00:0A:00:00:00:00;1722903001;06/08/24;00:10:01;1.015;-0.027;0.108;0.01710422709584236;-0.0024434609804302454;0.006108652334660292
01:00:0A:00:00:00:00;1722903002;06/08/24;00:10:02;1.013;-0.027;0.111;0.014660765416920185;-0.014660765416920185;0.004886921960860491
01:00:0A:00:00:00:00;1722903003;06/08/24;00:10:03;1.012;-0.028;0.108;0.015882495790719986;-0.014660765416920185;0.0024434609804302454
01:00:0A:00:00:00:00;1722903004;06/08/24;00:10:04;1.015;-0.029;0.109;0.01710422709584236;-0.004886921960860491;0.0073303827084600925
01:00:0A:00:00:00:00;1722903005;06/08/24;00:10:05;1.014;-0.028;0.113;0.013439035043120384;-0.015882495790719986;0.006108652334660292
01:00:0A:00:00:00:00;1722903006;06/08/24;00:10:06;1.016;-0.029;0.105;0.013439035043120384;-0.013439035043120384;0.006108652334660292
01:00:0A:00:00:00:00;1722903007;06/08/24;00:10:07;1.014;-0.027;0.109;0.015882495790719986;0.0012217304902151227;0.004886921960860491
01:00:0A:00:00:00:00;1722903008;06/08/24;00:10:08;1.012;-0.028;0.11;0.013439035043120384;-0.010995574295520782;0.004886921960860491
01:00:0A:00:00:00:00;1722903009;06/08/24;00:10:09;1.013;-0.03;0.102;0.013439035043120384;-0.018325956538319588;0.004886921960860491
01:00:0A:00:00:00:00;1722903010;06/08/24;00:10:10;1.007;-0.028;0.111;0.014660765416920185;-0.004886921960860491;0.0073303827084600925
01:00:0A:00:00:00:00;1722903011;06/08/24;00:10:11;1.004;-0.027;0.113;0.010995574295520782;-0.01710422709584236;0.009773843921720982
01:00:0A:00:00:00:00;1722903012;06/08/24;00:10:12;1.003;-0.025;0.107;0.012217304669320583;-0.015882495790719986;0.0036651913542300463
01:00:0A:00:00:00:00;1722903013;06/08/24;00:10:13;1.002;-0.024;0.114;0.015882495790719986;-0.006108652334660292;-0.0024434609804302454
01:00:0A:00:00:00:00;1722903014;06/08/24;00:10:14;1.018;-0.032;0.118;0.010995574295520782;-0.02687807008624077;-0.00855211354792118
01:00:0A:00:00:00:00;1722903015;06/08/24;00:10:15;1.028;-0.035;0.109;0.012217304669320583;-0.0073303827084600925;-0.0036651913542300463
01:00:0A:00:00:00:00;1722903016;06/08/24;00:10:16;1.029;-0.034;0.116;0.013439035043120384;0.009773843921720982;0.014660765416920185
01:00:0A:00:00:00:00;1722903017;06/08/24;00:10:17;1.012;-0.03;0.111;0.006108652334660292;-0.006108652334660292;0.021991148591041565
01:00:0A:00:00:00:00;1722903018;06/08/24;00:10:18;1.004;-0.025;0.1;0.00855211354792118;-0.006108652334660292;0.014660765416920185
01:00:0A:00:00:00:00;1722903019;06/08/24;00:10:19;0.997;-0.02;0.104;0.010995574295520782;-0.0073303827084600925;0.0024434609804302454
01:00:0A:00:00:00:00;1722903020;06/08/24;00:10:20;1.002;-0.023;0.109;0.0073303827084600925;-0.028099799528717995;-0.009773843921720982
01:00:0A:00:00:00:00;1722903021;06/08/24;00:10:21;1.016;-0.028;0.103;0.010995574295520782;-0.015882495790719986;-0.015882495790719986
01:00:0A:00:00:00:00;1722903022;06/08/24;00:10:22;1.021;-0.031;0.113;0.00855211354792118;-0.012217304669320583;0.0
01:00:0A:00:00:00:00;1722903023;06/08/24;00:10:23;1.023;-0.034;0.111;0.0036651913542300463;-0.012217304669320583;0.019547687843441963
01:00:0A:00:00:00:00;1722903024;06/08/24;00:10:24;1.017;-0.029;0.105;0.006108652334660292;-0.0012217304902151227;0.018325956538319588
01:00:0A:00:00:00:00;1722903025;06/08/24;00:10:25;1.005;-0.02;0.109;0.0073303827084600925;0.0024434609804302454;0.013439035043120384
01:00:0A:00:00:00:00;1722903026;06/08/24;00:10:26;1.005;-0.021;0.103;0.0073303827084600925;-0.025656338781118393;-0.00855211354792118
01:00:0A:00:00:00:00;1722903027;06/08/24;00:10:27;1.012;-0.024;0.102;0.014660765416920185;-0.00855211354792118;-0.02076941914856434
01:00:0A:00:00:00:00;1722903028;06/08/24;00:10:28;1.018;-0.031;0.113;0.012217304669320583;-0.00855211354792118;-0.006108652334660292
01:00:0A:00:00:00:00;1722903029;06/08/24;00:10:29;1.019;-0.035;0.107;0.00855211354792118;-0.02076941914856434;0.0073303827084600925
01:00:0A:00:00:00:00;1722903030;06/08/24;00:10:30;1.016;-0.031;0.106;0.014660765416920185;0.0;0.012217304669320583
01:00:0A:00:00:00:00;1722903031;06/08/24;00:10:31;1.012;-0.026;0.113;0.012217304669320583;-0.006108652334660292;0.015882495790719986
01:00:0A:00:00:00:00;1722903032;06/08/24;00:10:32;1.01;-0.025;0.106;0.013439035043120384;-0.01710422709584236;0.0036651913542300463
01:00:0A:00:00:00:00;1722903033;06/08/24;00:10:33;1.011;-0.026;0.104;0.02321287989616394;0.0;-0.010995574295520782
01:00:0A:00:00:00:00;1722903034;06/08/24;00:10:34;1.012;-0.029;0.113;0.02076941914856434;-0.012217304669320583;-0.0036651913542300463
01:00:0A:00:00:00:00;1722903035;06/08/24;00:10:35;1.013;-0.037;0.104;0.019547687843441963;-0.014660765416920185;0.00855211354792118
01:00:0A:00:00:00:00;1722903036;06/08/24;00:10:36;1.015;-0.032;0.105;0.025656338781118393;0.0;0.012217304669320583
01:00:0A:00:00:00:00;1722903037;06/08/24;00:10:37;1.011;-0.024;0.113;0.02076941914856434;-0.012217304669320583;0.019547687843441963
01:00:0A:00:00:00:00;1722903038;06/08/24;00:10:38;1.011;-0.024;0.101;0.02321287989616394;-0.015882495790719986;0.010995574295520782
01:00:0A:00:00:00:00;1722903039;06/08/24;00:10:39;1.012;-0.022;0.106;0.030543262138962746;-0.004886921960860491;-0.006108652334660292
01:00:0A:00:00:00:00;1722903040;06/08/24;00:10:40;1.01;-0.025;0.112;0.025656338781118393;-0.019547687843441963;-0.0012217304902151227
01:00:0A:00:00:00:00;1722903041;06/08/24;00:10:41;1.012;-0.035;0.103;0.025656338781118393;-0.019547687843441963;0.0024434609804302454
01:00:0A:00:00:00:00;1722903042;06/08/24;00:10:42;1.013;-0.031;0.109;0.03176499158143997;0.0024434609804302454;0.00855211354792118
01:00:0A:00:00:00:00;1722903043;06/08/24;00:10:43;1.016;-0.029;0.113;0.024434609338641167;-0.01710422709584236;0.019547687843441963
01:00:0A:00:00:00:00;1722903044;06/08/24;00:10:44;1.019;-0.028;0.103;0.028099799528717995;-0.012217304669320583;0.014660765416920185
01:00:0A:00:00:00:00;1722903045;06/08/24;00:10:45;1.018;-0.024;0.11;0.0354301817715168;0.004886921960860491;0.0073303827084600925
01:00:0A:00:00:00:00;1722903046;06/08/24;00:10:46;1.011;-0.024;0.11;0.030543262138962746;-0.015882495790719986;0.009773843921720982
01:00:0A:00:00:00:00;1722903047;06/08/24;00:10:47;1.008;-0.029;0.102;0.036651913076639175;-0.010995574295520782;0.004886921960860491
01:00:0A:00:00:00:00;1722903048;06/08/24;00:10:48;1.004;-0.026;0.109;0.040317103266716;-0.0036651913542300463;0.0
01:00:0A:00:00:00:00;1722903049;06/08/24;00:10:49;1.007;-0.026;0.11;0.03298672288656235;-0.02076941914856434;0.009773843921720982
01:00:0A:00:00:00:00;1722903050;06/08/24;00:10:50;1.014;-0.031;0.103;0.040317103266716;-0.006108652334660292;0.0
01:00:0A:00:00:00:00;1722903051;06/08/24;00:10:51;1.016;-0.024;0.112;0.04153883829712868;-0.004886921960860491;-0.0024434609804302454
01:00:0A:00:00:00:00;1722903052;06/08/24;00:10:52;1.016;-0.027;0.107;0.03420845419168472;-0.015882495790719986;0.009773843921720982
01:00:0A:00:00:00:00;1722903053;06/08/24;00:10:53;1.015;-0.032;0.1;0.040317103266716;-0.010995574295520782;0.006108652334660292
01:00:0A:00:00:00:00;1722903054;06/08/24;00:10:54;1.011;-0.025;0.111;0.040317103266716;-0.00855211354792118;0.004886921960860491
01:00:0A:00:00:00:00;1722903055;06/08/24;00:10:55;1.013;-0.027;0.108;0.03176499158143997;-0.021991148591041565;0.018325956538319588
01:00:0A:00:00:00:00;1722903056;06/08/24;00:10:56;1.015;-0.029;0.105;0.040317103266716;-0.0073303827084600925;0.0073303827084600925
01:00:0A:00:00:00:00;1722903057;06/08/24;00:10:57;1.011;-0.02;0.113;0.039095375686883926;-0.0024434609804302454;0.0024434609804302454
01:00:0A:00:00:00:00;1722903058;06/08/24;00:10:58;1.008;-0.027;0.107;0.03176499158143997;-0.01710422709584236;0.015882495790719986
01:00:0A:00:00:00:00;1722903059;06/08/24;00:10:59;1.007;-0.028;0.105;0.04153883829712868;-0.0036651913542300463;-0.0073303827084600925
01:00:0A:00:00:00:00;1722903060;06/08/24;00:11:00;1.013;-0.024;0.112;0.03787364438176155;-0.014660765416920185;-0.0024434609804302454
01:00:0A:00:00:00:00;1722903061;06/08/24;00:11:01;1.018;-0.032;0.105;0.03176499158143997;-0.021991148591041565;0.0073303827084600925
01:00:0A:00:00:00:00;1722903062;06/08/24;00:11:02;1.019;-0.034;0.106;0.039095375686883926;-0.004886921960860491;0.0
01:00:0A:00:00:00:00;1722903063;06/08/24;00:11:03;1.017;-0.023;0.112;0.03420845419168472;-0.010995574295520782;0.012217304669320583
01:00:0A:00:00:00:00;1722903064;06/08/24;00:11:04;1.012;-0.03;0.104;0.02932153083384037;-0.01710422709584236;0.019547687843441963
01:00:0A:00:00:00:00;1722903065;06/08/24;00:11:05;1.01;-0.028;0.104;0.039095375686883926;-0.004886921960860491;-0.0036651913542300463
01:00:0A:00:00:00:00;1722903066;06/08/24;00:11:06;1.01;-0.02;0.112;0.03298672288656235;-0.018325956538319588;0.004886921960860491
01:00:0A:00:00:00:00;1722903067;06/08/24;00:11:07;1.015;-0.031;0.105;0.03176499158143997;-0.021991148591041565;0.0073303827084600925
01:00:0A:00:00:00:00;1722903068;06/08/24;00:11:08;1.019;-0.03;0.111;0.039095375686883926;-0.006108652334660292;-0.0036651913542300463
01:00:0A:00:00:00:00;1722903069;06/08/24;00:11:09;1.016;-0.022;0.114;0.03298672288656235;-0.0024434609804302454;0.010995574295520782
01:00:0A:00:00:00:00;1722903070;06/08/24;00:11:10;1.012;-0.032;0.103;0.030543262138962746;-0.004886921960860491;0.02076941914856434
01:00:0A:00:00:00:00;1722903071;06/08/24;00:11:11;1.006;-0.025;0.102;0.040317103266716;-0.0024434609804302454;-0.006108652334660292
01:00:0A:00:00:00:00;1722903072;06/08/24;00:11:12;1.007;-0.021;0.104;0.03176499158143997;-0.019547687843441963;0.00855211354792118
01:00:0A:00:00:00:00;1722903073;06/08/24;00:11:13;1.013;-0.032;0.104;0.03298672288656235;-0.025656338781118393;0.004886921960860491
01:00:0A:00:00:00:00;1722903074;06/08/24;00:11:14;1.017;-0.027;0.111;0.040317103266716;-0.013439035043120384;-0.010995574295520782
01:00:0A:00:00:00:00;1722903075;06/08/24;00:11:15;1.016;-0.025;0.113;0.030543262138962746;-0.010995574295520782;0.01710422709584236
01:00:0A:00:00:00:00;1722903076;06/08/24;00:11:16;1.014;-0.034;0.108;0.03298672288656235;-0.0036651913542300463;0.01710422709584236
01:00:0A:00:00:00:00;1722903077;06/08/24;00:11:17;1.009;-0.023;0.106;0.040317103266716;0.0;-0.0036651913542300463
01:00:0A:00:00:00:00;1722903078;06/08/24;00:11:18;1.009;-0.018;0.104;0.03176499158143997;-0.02076941914856434;0.009773843921720982
01:00:0A:00:00:00:00;1722903079;06/08/24;00:11:19;1.013;-0.033;0.103;0.036651913076639175;-0.02321287989616394;-0.0012217304902151227
01:00:0A:00:00:00:00;1722903080;06/08/24;00:11:20;1.017;-0.026;0.112;0.039095375686883926;-0.018325956538319588;-0.004886921960860491
01:00:0A:00:00:00:00;1722903081;06/08/24;00:11:21;1.019;-0.027;0.114;0.03298672288656235;-0.013439035043120384;0.015882495790719986
01:00:0A:00:00:00:00;1722903082;06/08/24;00:11:22;1.014;-0.036;0.111;0.03787364438176155;0.0036651913542300463;0.012217304669320583
01:00:0A:00:00:00:00;1722903083;06/08/24;00:11:23;1.01;-0.023;0.107;0.04153883829712868;0.004886921960860491;0.0012217304902151227
01:00:0A:00:00:00:00;1722903084;06/08/24;00:11:24;1.006;-0.025;0.102;0.03420845419168472;-0.010995574295520782;0.02076941914856434
01:00:0A:00:00:00:00;1722903085;06/08/24;00:11:25;1.008;-0.03;0.1;0.039095375686883926;-0.014660765416920185;0.0024434609804302454
01:00:0A:00:00:00:00;1722903086;06/08/24;00:11:26;1.015;-0.022;0.107;0.040317103266716;-0.02321287989616394;-0.006108652334660292
01:00:0A:00:00:00:00;1722903087;06/08/24;00:11:27;1.019;-0.027;0.113;0.03420845419168472;-0.01710422709584236;0.018325956538319588
01:00:0A:00:00:00:00;1722903088;06/08/24;00:11:28;1.019;-0.032;0.112;0.039095375686883926;-0.006108652334660292;0.006108652334660292
01:00:0A:00:00:00:00;1722903089;06/08/24;00:11:29;1.014;-0.022;0.108;0.040317103266716;-0.0012217304902151227;-0.0012217304902151227
01:00:0A:00:00:00:00;1722903090;06/08/24;00:11:30;1.009;-0.027;0.104;0.03420845419168472;-0.004886921960860491;0.01710422709584236
01:00:0A:00:00:00:00;1722903091;06/08/24;00:11:31;1.007;-0.032;0.103;0.040317103266716;-0.015882495790719986;-0.0036651913542300463
01:00:0A:00:00:00:00;1722903092;06/08/24;00:11:32;1.009;-0.025;0.107;0.03787364438176155;-0.02076941914856434;0.0024434609804302454
01:00:0A:00:00:00:00;1722903093;06/08/24;00:11:33;1.013;-0.028;0.11;0.03420845419168472;-0.018325956538319588;0.015882495790719986
01:00:0A:00:00:00:00;1722903094;06/08/24;00:11:34;1.016;-0.033;0.113;0.039095375686883926;-0.00855211354792118;0.0036651913542300463
01:00:0A:00:00:00:00;1722903095;06/08/24;00:11:35;1.015;-0.023;0.111;0.03787364438176155;-0.0024434609804302454;0.0073303827084600925
01:00:0A:00:00:00:00;1722903096;06/08/24;00:11:36;1.01;-0.029;0.107;0.03420845419168472;-0.0012217304902151227;0.019547687843441963
01:00:0A:00:00:00:00;1722903097;06/08/24;00:11:37;1.01;-0.03;0.106;0.03787364438176155;-0.010995574295520782;0.0024434609804302454
01:00:0A:00:00:00:00;1722903098;06/08/24;00:11:38;1.012;-0.021;0.103;0.0354301817715168;-0.019547687843441963;0.0012217304902151227
01:00:0A:00:00:00:00;1722903099;06/08/24;00:11:39;1.016;-0.03;0.107;0.03298672288656235;-0.01710422709584236;0.009773843921720982
01:00:0A:00:00:00:00;1722903100;06/08/24;00:11:40;1.019;-0.029;0.112;0.0354301817715168;-0.015882495790719986;0.0
01:00:0A:00:00:00:00;1722903101;06/08/24;00:11:41;1.019;-0.023;0.109;0.03176499158143997;-0.009773843921720982;0.00855211354792118
01:00:0A:00:00:00:00;1722903102;06/08/24;00:11:42;1.013;-0.029;0.11;0.030543262138962746;-0.0024434609804302454;0.018325956538319588
01:00:0A:00:00:00:00;1722903103;06/08/24;00:11:43;1.007;-0.026;0.107;0.03176499158143997;-0.010995574295520782;0.0024434609804302454
01:00:0A:00:00:00:00;1722903104;06/08/24;00:11:44;1.006;-0.023;0.106;0.028099799528717995;-0.009773843921720982;0.012217304669320583
01:00:0A:00:00:00:00;1722903105;06/08/24;00:11:45;1.007;-0.026;0.107;0.028099799528717995;-0.010995574295520782;0.009773843921720982
01:00:0A:00:00:00:00;1722903106;06/08/24;00:11:46;1.011;-0.025;0.108;0.02932153083384037;-0.018325956538319588;-0.004886921960860491
01:00:0A:00:00:00:00;1722903107;06/08/24;00:11:47;1.016;-0.024;0.106;0.025656338781118393;-0.015882495790719986;0.004886921960860491
01:00:0A:00:00:00:00;1722903108;06/08/24;00:11:48;1.017;-0.03;0.109;0.025656338781118393;-0.013439035043120384;0.0036651913542300463
01:00:0A:00:00:00:00;1722903109;06/08/24;00:11:49;1.02;-0.028;0.109;0.025656338781118393;-0.013439035043120384;0.0
01:00:0A:00:00:00:00;1722903110;06/08/24;00:11:50;1.02;-0.026;0.109;0.021991148591041565;-0.00855211354792118;0.00855211354792118
01:00:0A:00:00:00:00;1722903111;06/08/24;00:11:51;1.017;-0.031;0.11;0.021991148591041565;-0.006108652334660292;0.009773843921720982
01:00:0A:00:00:00:00;1722903112;06/08/24;00:11:52;1.011;-0.026;0.107;0.021991148591041565;-0.010995574295520782;0.0036651913542300463
01:00:0A:00:00:00:00;1722903113;06/08/24;00:11:53;1.007;-0.026;0.106;0.019547687843441963;-0.006108652334660292;0.012217304669320583
01:00:0A:00:00:00:00;1722903114;06/08/24;00:11:54;1.005;-0.027;0.107;0.018325956538319588;-0.013439035043120384;0.006108652334660292
01:00:0A:00:00:00:00;1722903115;06/08/24;00:11:55;1.007;-0.024;0.107;0.019547687843441963;-0.019547687843441963;-0.004886921960860491
01:00:0A:00:00:00:00;1722903116;06/08/24;00:11:56;1.014;-0.026;0.108;0.01710422709584236;-0.010995574295520782;0.0036651913542300463
01:00:0A:00:00:00:00;1722903117;06/08/24;00:11:57;1.015;-0.03;0.11;0.015882495790719986;-0.012217304669320583;0.0024434609804302454
01:00:0A:00:00:00:00;1722903118;06/08/24;00:11:58;1.016;-0.027;0.108;0.015882495790719986;-0.01710422709584236;0.0012217304902151227
01:00:0A:00:00:00:00;1722903119;06/08/24;00:11:59;1.016;-0.026;0.108;0.013439035043120384;-0.009773843921720982;0.010995574295520782
01:00:0A:00:00:00:00;1722903120;06/08/24;00:12:00;1.013;-0.028;0.112;0.013439035043120384;-0.009773843921720982;0.004886921960860491
01:00:0A:00:00:00:00;1722903121;06/08/24;00:12:01;1.012;-0.025;0.109;0.014660765416920185;-0.00855211354792118;0.0
01:00:0A:00:00:00:00;1722903122;06/08/24;00:12:02;1.012;-0.025;0.107;0.013439035043120384;0.0;0.006108652334660292
01:00:0A:00:00:00:00;1722903123;06/08/24;00:12:03;1.012;-0.031;0.106;0.013439035043120384;-0.009773843921720982;0.0024434609804302454
01:00:0A:00:00:00:00;1722903124;06/08/24;00:12:04;1.012;-0.029;0.102;0.012217304669320583;-0.015882495790719986;0.006108652334660292
01:00:0A:00:00:00:00;1722903125;06/08/24;00:12:05;1.012;-0.027;0.106;0.009773843921720982;-0.01710422709584236;0.013439035043120384
01:00:0A:00:00:00:00;1722903126;06/08/24;00:12:06;1.01;-0.027;0.11;0.010995574295520782;-0.019547687843441963;0.0073303827084600925
01:00:0A:00:00:00:00;1722903127;06/08/24;00:12:07;1.011;-0.022;0.108;0.012217304669320583;-0.015882495790719986;-0.0012217304902151227
01:00:0A:00:00:00:00;1722903128;06/08/24;00:12:08;1.013;-0.026;0.112;0.012217304669320583;-0.004886921960860491;0.0012217304902151227
01:00:0A:00:00:00:00;1722903129;06/08/24;00:12:09;1.015;-0.03;0.111;0.012217304669320583;-0.004886921960860491;-0.0012217304902151227
01:00:0A:00:00:00:00;1722903130;06/08/24;00:12:10;1.015;-0.029;0.104;0.010995574295520782;-0.010995574295520782;0.004886921960860491
01:00:0A:00:00:00:00;1722903131;06/08/24;00:12:11;1.013;-0.03;0.107;0.010995574295520782;-0.010995574295520782;0.012217304669320583
01:00:0A:00:00:00:00;1722903132;06/08/24;00:12:12;1.013;-0.028;0.11;0.010995574295520782;-0.018325956538319588;0.0073303827084600925
01:00:0A:00:00:00:00;1722903133;06/08/24;00:12:13;1.013;-0.024;0.11;0.010995574295520782;-0.012217304669320583;0.00855211354792118
01:00:0A:00:00:00:00;1722903134;06/08/24;00:12:14;1.01;-0.026;0.11;0.012217304669320583;-0.0036651913542300463;0.0073303827084600925
01:00:0A:00:00:00:00;1722903135;06/08/24;00:12:15;1.009;-0.025;0.109;0.013439035043120384;-0.009773843921720982;-0.004886921960860491
01:00:0A:00:00:00:00;1722903136;06/08/24;00:12:16;1.012;-0.026;0.105;0.012217304669320583;-0.00855211354792118;0.0036651913542300463
01:00:0A:00:00:00:00;1722903137;06/08/24;00:12:17;1.013;-0.031;0.106;0.012217304669320583;-0.013439035043120384;0.0073303827084600925
01:00:0A:00:00:00:00;1722903138;06/08/24;00:12:18;1.016;-0.029;0.109;0.012217304669320583;-0.02076941914856434;0.006108652334660292
01:00:0A:00:00:00:00;1722903139;06/08/24;00:12:19;1.016;-0.024;0.108;0.012217304669320583;-0.012217304669320583;0.010995574295520782
01:00:0A:00:00:00:00;1722903140;06/08/24;00:12:20;1.015;-0.027;0.113;0.013439035043120384;-0.0073303827084600925;0.0073303827084600925
01:00:0A:00:00:00:00;1722903141;06/08/24;00:12:21;1.011;-0.024;0.108;0.01710422709584236;-0.006108652334660292;-0.0024434609804302454
01:00:0A:00:00:00:00;1722903142;06/08/24;00:12:22;1.009;-0.025;0.106;0.01710422709584236;-0.0036651913542300463;0.0036651913542300463
01:00:0A:00:00:00:00;1722903143;06/08/24;00:12:23;1.007;-0.031;0.106;0.018325956538319588;-0.013439035043120384;0.0036651913542300463
01:00:0A:00:00:00:00;1722903144;06/08/24;00:12:24;1.009;-0.026;0.104;0.02076941914856434;-0.021991148591041565;0.0
01:00:0A:00:00:00:00;1722903145;06/08/24;00:12:25;1.016;-0.026;0.108;0.02076941914856434;-0.01710422709584236;0.010995574295520782
01:00:0A:00:00:00:00;1722903146;06/08/24;00:12:26;1.019;-0.029;0.113;0.021991148591041565;-0.009773843921720982;0.0073303827084600925
01:00:0A:00:00:00:00;1722903147;06/08/24;00:12:27;1.018;-0.023;0.109;0.024434609338641167;-0.009773843921720982;0.0012217304902151227
01:00:0A:00:00:00:00;1722903148;06/08/24;00:12:28;1.013;-0.027;0.108;0.02321287989616394;-0.0012217304902151227;0.009773843921720982
01:00:0A:00:00:00:00;1722903149;06/08/24;00:12:29;1.011;-0.03;0.109;0.024434609338641167;-0.00855211354792118;0.0036651913542300463
01:00:0A:00:00:00:00;1722903150;06/08/24;00:12:30;1.01;-0.026;0.106;0.024434609338641167;-0.013439035043120384;0.004886921960860491
01:00:0A:00:00:00:00;1722903151;06/08/24;00:12:31;1.011;-0.025;0.106;0.02321287989616394;-0.0073303827084600925;0.015882495790719986
01:00:0A:00:00:00:00;1722903152;06/08/24;00:12:32;1.013;-0.028;0.11;0.024434609338641167;-0.015882495790719986;0.0036651913542300463
01:00:0A:00:00:00:00;1722903153;06/08/24;00:12:33;1.013;-0.023;0.108;0.025656338781118393;-0.010995574295520782;0.0024434609804302454
01:00:0A:00:00:00:00;1722903154;06/08/24;00:12:34;1.01;-0.027;0.109;0.025656338781118393;-0.004886921960860491;0.00855211354792118
01:00:0A:00:00:00:00;1722903155;06/08/24;00:12:35;1.01;-0.03;0.109;0.024434609338641167;-0.015882495790719986;0.0012217304902151227
01:00:0A:00:00:00:00;1722903156;06/08/24;00:12:36;1.011;-0.026;0.106;0.024434609338641167;-0.014660765416920185;0.0024434609804302454
01:00:0A:00:00:00:00;1722903157;06/08/24;00:12:37;1.013;-0.028;0.11;0.02321287989616394;-0.012217304669320583;0.009773843921720982
01:00:0A:00:00:00:00;1722903158;06/08/24;00:12:38;1.015;-0.028;0.112;0.02321287989616394;-0.01710422709584236;0.0012217304902151227
01:00:0A:00:00:00:00;1722903159;06/08/24;00:12:39;1.017;-0.024;0.107;0.02321287989616394;-0.010995574295520782;0.0024434609804302454
01:00:0A:00:00:00:00;1722903160;06/08/24;00:12:40;1.015;-0.029;0.113;0.02076941914856434;-0.004886921960860491;0.009773843921720982
01:00:0A:00:00:00:00;1722903161;06/08/24;00:12:41;1.012;-0.029;0.11;0.02076941914856434;-0.015882495790719986;0.0024434609804302454
01:00:0A:00:00:00:00;1722903162;06/08/24;00:12:42;1.012;-0.024;0.106;0.019547687843441963;-0.009773843921720982;0.0073303827084600925
01:00:0A:00:00:00:00;1722903163;06/08/24;00:12:43;1.012;-0.028;0.111;0.018325956538319588;-0.0073303827084600925;0.012217304669320583
01:00:0A:00:00:00:00;1722903164;06/08/24;00:12:44;1.013;-0.028;0.111;0.01710422709584236;-0.019547687843441963;0.0
01:00:0A:00:00:00:00;1722903165;06/08/24;00:12:45;1.013;-0.025;0.107;0.015882495790719986;-0.00855211354792118;0.004886921960860491
01:00:0A:00:00:00:00;1722903166;06/08/24;00:12:46;1.013;-0.03;0.112;0.014660765416920185;-0.00855211354792118;0.0073303827084600925
01:00:0A:00:00:00:00;1722903167;06/08/24;00:12:47;1.014;-0.03;0.109;0.012217304669320583;-0.019547687843441963;0.0
01:00:0A:00:00:00:00;1722903168;06/08/24;00:12:48;1.013;-0.026;0.107;0.010995574295520782;-0.006108652334660292;0.009773843921720982
01:00:0A:00:00:00:00;1722903169;06/08/24;00:12:49;1.014;-0.029;0.115;0.009773843921720982;-0.009773843921720982;0.010995574295520782
01:00:0A:00:00:00:00;1722903170;06/08/24;00:12:50;1.012;-0.026;0.11;0.00855211354792118;-0.014660765416920185;0.0012217304902151227
01:00:0A:00:00:00:00;1722903171;06/08/24;00:12:51;1.011;-0.025;0.107;0.009773843921720982;-0.0012217304902151227;0.0073303827084600925
01:00:0A:00:00:00:00;1722903172;06/08/24;00:12:52;1.01;-0.029;0.112;0.0073303827084600925;-0.0073303827084600925;0.0036651913542300463
01:00:0A:00:00:00:00;1722903173;06/08/24;00:12:53;1.009;-0.028;0.106;0.006108652334660292;-0.02076941914856434;-0.0012217304902151227
01:00:0A:00:00:00:00;1722903174;06/08/24;00:12:54;1.01;-0.027;0.107;0.0073303827084600925;-0.00855211354792118;0.00855211354792118
01:00:0A:00:00:00:00;1722903175;06/08/24;00:12:55;1.016;-0.028;0.114;0.004886921960860491;-0.012217304669320583;0.0073303827084600925
01:00:0A:00:00:00:00;1722903176;06/08/24;00:12:56;1.016;-0.025;0.108;0.004886921960860491;-0.018325956538319588;0.0
01:00:0A:00:00:00:00;1722903177;06/08/24;00:12:57;1.015;-0.025;0.108;0.0073303827084600925;0.0;0.004886921960860491
01:00:0A:00:00:00:00;1722903178;06/08/24;00:12:58;1.014;-0.029;0.112;0.006108652334660292;-0.00855211354792118;0.0012217304902151227
01:00:0A:00:00:00:00;1722903179;06/08/24;00:12:59;1.012;-0.027;0.105;0.006108652334660292;-0.01710422709584236;0.0
01:00:0A:00:00:00:00;1722903180;06/08/24;00:13:00;1.012;-0.029;0.108;0.006108652334660292;-0.004886921960860491;0.012217304669320583
01:00:0A:00:00:00:00;1722903181;06/08/24;00:13:01;1.012;-0.029;0.112;0.004886921960860491;-0.01710422709584236;0.00855211354792118
01:00:0A:00:00:00:00;1722903182;06/08/24;00:13:02;1.013;-0.024;0.107;0.006108652334660292;-0.015882495790719986;0.0024434609804302454
01:00:0A:00:00:00:00;1722903183;06/08/24;00:13:03;1.013;-0.024;0.11;0.0073303827084600925;-0.0012217304902151227;0.006108652334660292
01:00:0A:00:00:00:00;1722903184;06/08/24;00:13:04;1.013;-0.028;0.113;0.0073303827084600925;-0.010995574295520782;-0.0024434609804302454
01:00:0A:00:00:00:00;1722903185;06/08/24;00:13:05;1.012;-0.027;0.104;0.0073303827084600925;-0.010995574295520782;-0.0012217304902151227
01:00:0A:00:00:00:00;1722903186;06/08/24;00:13:06;1.012;-0.03;0.108;0.0073303827084600925;-0.0036651913542300463;0.00855211354792118
01:00:0A:00:00:00:00;1722903187;06/08/24;00:13:07;1.012;-0.031;0.111;0.006108652334660292;-0.019547687843441963;0.004886921960860491
01:00:0A:00:00:00:00;1722903188;06/08/24;00:13:08;1.015;-0.025;0.104;0.006108652334660292;-0.014660765416920185;0.006108652334660292
01:00:0A:00:00:00:00;1722903189;06/08/24;00:13:09;1.014;-0.026;0.113;0.0073303827084600925;-0.0024434609804302454;0.00855211354792118
01:00:0A:00:00:00:00;1722903190;06/08/24;00:13:10;1.012;-0.028;0.111;0.006108652334660292;-0.014660765416920185;-0.0024434609804302454
01:00:0A:00:00:00:00;1722903191;06/08/24;00:13:11;1.013;-0.027;0.104;0.0073303827084600925;-0.010995574295520782;0.0012217304902151227
01:00:0A:00:00:00:00;1722903192;06/08/24;00:13:12;1.012;-0.031;0.111;0.0073303827084600925;-0.0036651913542300463;0.00855211354792118
01:00:0A:00:00:00:00;1722903193;06/08/24;00:13:13;1.012;-0.031;0.11;0.004886921960860491;-0.021991148591041565;0.006108652334660292
01:00:0A:00:00:00:00;1722903194;06/08/24;00:13:14;1.012;-0.024;0.106;0.006108652334660292;-0.012217304669320583;0.009773843921720982
01:00:0A:00:00:00:00;1722903195;06/08/24;00:13:15;1.012;-0.027;0.114;0.0073303827084600925;-0.004886921960860491;0.0073303827084600925
01:00:0A:00:00:00:00;1722903196;06/08/24;00:13:16;1.014;-0.026;0.112;0.0073303827084600925;-0.019547687843441963;-0.004886921960860491
01:00:0A:00:00:00:00;1722903197;06/08/24;00:13:17;1.014;-0.027;0.105;0.00855211354792118;-0.004886921960860491;0.0
01:00:0A:00:00:00:00;1722903198;06/08/24;00:13:18;1.013;-0.031;0.112;0.0073303827084600925;-0.004886921960860491;0.0073303827084600925
01:00:0A:00:00:00:00;1722903199;06/08/24;00:13:19;1.011;-0.03;0.107;0.006108652334660292;-0.02076941914856434;0.004886921960860491
01:00:0A:00:00:00:00;1722903200;06/08/24;00:13:20;1.013;-0.025;0.105;0.0073303827084600925;-0.009773843921720982;0.010995574295520782
01:00:0A:00:00:00:00;1722903201;06/08/24;00:13:21;1.012;-0.028;0.114;0.0073303827084600925;-0.009773843921720982;0.009773843921720982
01:00:0A:00:00:00:00;1722903202;06/08/24;00:13:22;1.013;-0.026;0.109;0.0073303827084600925;-0.018325956538319588;-0.0012217304902151227
01:00:0A:00:00:00:00;1722903203;06/08/24;00:13:23;1.014;-0.025;0.106;0.009773843921720982;-0.004886921960860491;0.0036651913542300463
01:00:0A:00:00:00:00;1722903204;06/08/24;00:13:24;1.013;-0.032;0.114;0.009773843921720982;-0.0073303827084600925;0.0036651913542300463
01:00:0A:00:00:00:00;1722903205;06/08/24;00:13:25;1.015;-0.029;0.106;0.00855211354792118;-0.018325956538319588;0.0024434609804302454
01:00:0A:00:00:00:00;1722903206;06/08/24;00:13:26;1.013;-0.026;0.106;0.009773843921720982;-0.004886921960860491;0.010995574295520782
01:00:0A:00:00:00:00;1722903207;06/08/24;00:13:27;1.01;-0.028;0.113;0.009773843921720982;-0.009773843921720982;0.006108652334660292
01:00:0A:00:00:00:00;1722903208;06/08/24;00:13:28;1.011;-0.025;0.107;0.009773843921720982;-0.019547687843441963;-0.0012217304902151227
01:00:0A:00:00:00:00;1722903209;06/08/24;00:13:29;1.013;-0.027;0.107;0.012217304669320583;-0.0024434609804302454;0.004886921960860491
01:00:0A:00:00:00:00;1722903210;06/08/24;00:13:30;1.014;-0.029;0.112;0.010995574295520782;-0.012217304669320583;0.0024434609804302454
01:00:0A:00:00:00:00;1722903211;06/08/24;00:13:31;1.014;-0.028;0.104;0.009773843921720982;-0.019547687843441963;0.0024434609804302454
01:00:0A:00:00:00:00;1722903212;06/08/24;00:13:32;1.012;-0.028;0.106;0.012217304669320583;-0.004886921960860491;0.012217304669320583
01:00:0A:00:00:00:00;1722903213;06/08/24;00:13:33;1.01;-0.029;0.113;0.010995574295520782;-0.014660765416920185;0.004886921960860491
01:00:0A:00:00:00:00;1722903214;06/08/24;00:13:34;1.012;-0.025;0.106;0.012217304669320583;-0.015882495790719986;0.0
01:00:0A:00:00:00:00;1722903215;06/08/24;00:13:35;1.015;-0.027;0.109;0.013439035043120384;-0.0012217304902151227;0.004886921960860491
01:00:0A:00:00:00:00;1722903216;06/08/24;00:13:36;1.016;-0.03;0.112;0.012217304669320583;-0.013439035043120384;0.0036651913542300463
01:00:0A:00:00:00:00;1722903217;06/08/24;00:13:37;1.016;-0.027;0.105;0.012217304669320583;-0.013439035043120384;0.004886921960860491
01:00:0A:00:00:00:00;1722903218;06/08/24;00:13:38;1.011;-0.029;0.109;0.012217304669320583;-0.0024434609804302454;0.012217304669320583
01:00:0A:00:00:00:00;1722903219;06/08/24;00:13:39;1.009;-0.027;0.11;0.010995574295520782;-0.018325956538319588;0.004886921960860491
01:00:0A:00:00:00:00;1722903220;06/08/24;00:13:40;1.009;-0.024;0.104;0.012217304669320583;-0.01710422709584236;0.0012217304902151227
01:00:0A:00:00:00:00;1722903221;06/08/24;00:13:41;1.01;-0.028;0.111;0.012217304669320583;-0.004886921960860491;0.004886921960860491
01:00:0A:00:00:00:00;1722903222;06/08/24;00:13:42;1.015;-0.029;0.111;0.009773843921720982;-0.018325956538319588;0.0012217304902151227
01:00:0A:00:00:00:00;1722903223;06/08/24;00:13:43;1.014;-0.026;0.104;0.010995574295520782;-0.010995574295520782;0.004886921960860491
01:00:0A:00:00:00:00;1722903224;06/08/24;00:13:44;1.013;-0.028;0.11;0.010995574295520782;-0.004886921960860491;0.00855211354792118
01:00:0A:00:00:00:00;1722903225;06/08/24;00:13:45;1.012;-0.029;0.111;0.009773843921720982;-0.02076941914856434;0.0012217304902151227
01:00:0A:00:00:00:00;1722903226;06/08/24;00:13:46;1.013;-0.025;0.105;0.010995574295520782;-0.009773843921720982;0.0036651913542300463
01:00:0A:00:00:00:00;1722903227;06/08/24;00:13:47;1.016;-0.027;0.112;0.012217304669320583;-0.0036651913542300463;0.006108652334660292
01:00:0A:00:00:00:00;1722903228;06/08/24;00:13:48;1.016;-0.028;0.11;0.00855211354792118;-0.018325956538319588;0.0024434609804302454
01:00:0A:00:00:00:00;1722903229;06/08/24;00:13:49;1.016;-0.026;0.104;0.010995574295520782;-0.0073303827084600925;0.0073303827084600925
01:00:0A:00:00:00:00;1722903230;06/08/24;00:13:50;1.011;-0.026;0.112;0.010995574295520782;-0.0024434609804302454;0.010995574295520782
01:00:0A:00:00:00:00;1722903231;06/08/24;00:13:51;1.006;-0.026;0.107;0.00855211354792118;-0.02076941914856434;0.0012217304902151227
01:00:0A:00:00:00:00;1722903232;06/08/24;00:13:52;1.006;-0.024;0.102;0.010995574295520782;-0.00855211354792118;0.0036651913542300463
01:00:0A:00:00:00:00;1722903233;06/08/24;00:13:53;1.011;-0.029;0.113;0.009773843921720982;-0.013439035043120384;0.0036651913542300463
01:00:0A:00:00:00:00;1722903234;06/08/24;00:13:54;1.019;-0.027;0.109;0.00855211354792118;-0.02076941914856434;0.0012217304902151227
01:00:0A:00:00:00:00;1722903235;06/08/24;00:13:55;1.019;-0.026;0.106;0.012217304669320583;-0.0036651913542300463;0.006108652334660292
01:00:0A:00:00:00:00;1722903236;06/08/24;00:13:56;1.016;-0.028;0.114;0.009773843921720982;-0.004886921960860491;0.00855211354792118
01:00:0A:00:00:00:00;1722903237;06/08/24;00:13:57;1.013;-0.025;0.105;0.00855211354792118;-0.018325956538319588;0.0024434609804302454
01:00:0A:00:00:00:00;1722903238;06/08/24;00:13:58;1.009;-0.025;0.105;0.010995574295520782;-0.0036651913542300463;0.006108652334660292
01:00:0A:00:00:00:00;1722903239;06/08/24;00:13:59;1.01;-0.028;0.111;0.00855211354792118;-0.013439035043120384;0.004886921960860491
01:00:0A:00:00:00:00;1722903240;06/08/24;00:14:00;1.014;-0.026;0.106;0.00855211354792118;-0.021991148591041565;0.0012217304902151227
01:00:0A:00:00:00:00;1722903241;06/08/24;00:14:01;1.015;-0.025;0.107;0.010995574295520782;-0.004886921960860491;0.006108652334660292
01:00:0A:00:00:00:00;1722903242;06/08/24;00:14:02;1.015;-0.028;0.113;0.00855211354792118;-0.009773843921720982;0.004886921960860491
01:00:0A:00:00:00:00;1722903243;06/08/24;00:14:03;1.011;-0.025;0.104;0.00855211354792118;-0.01710422709584236;0.0012217304902151227
01:00:0A:00:00:00:00;1722903244;06/08/24;00:14:04;1.01;-0.027;0.105;0.010995574295520782;-0.0036651913542300463;0.006108652334660292
01:00:0A:00:00:00:00;1722903245;06/08/24;00:14:05;1.011;-0.029;0.112;0.00855211354792118;-0.018325956538319588;0.0036651913542300463
01:00:0A:00:00:00:00;1722903246;06/08/24;00:14:06;1.014;-0.026;0.104;0.009773843921720982;-0.019547687843441963;0.0024434609804302454
01:00:0A:00:00:00:00;1722903247;06/08/24;00:14:07;1.016;-0.026;0.109;0.010995574295520782;-0.0036651913542300463;0.00855211354792118
01:00:0A:00:00:00:00;1722903248;06/08/24;00:14:08;1.016;-0.027;0.113;0.009773843921720982;-0.014660765416920185;0.004886921960860491
01:00:0A:00:00:00:00;1722903249;06/08/24;00:14:09;1.013;-0.025;0.104;0.012217304669320583;-0.013439035043120384;0.0012217304902151227
01:00:0A:00:00:00:00;1722903250;06/08/24;00:14:10;1.01;-0.027;0.108;0.014660765416920185;-0.0012217304902151227;0.0073303827084600925
01:00:0A:00:00:00:00;1722903251;06/08/24;00:14:11;1.01;-0.029;0.111;0.012217304669320583;-0.018325956538319588;0.004886921960860491
01:00:0A:00:00:00:00;1722903252;06/08/24;00:14:12;1.013;-0.026;0.103;0.014660765416920185;-0.015882495790719986;0.0036651913542300463
01:00:0A:00:00:00:00;1722903253;06/08/24;00:14:13;1.015;-0.026;0.11;0.015882495790719986;-0.004886921960860491;0.0073303827084600925
01:00:0A:00:00:00:00;1722903254;06/08/24;00:14:14;1.016;-0.028;0.112;0.014660765416920185;-0.01710422709584236;0.0024434609804302454
01:00:0A:00:00:00:00;1722903255;06/08/24;00:14:15;1.014;-0.027;0.103;0.018325956538319588;-0.009773843921720982;0.0012217304902151227
01:00:0A:00:00:00:00;1722903256;06/08/24;00:14:16;1.012;-0.028;0.11;0.018325956538319588;-0.0024434609804302454;0.0073303827084600925
01:00:0A:00:00:00:00;1722903257;06/08/24;00:14:17;1.01;-0.029;0.109;0.015882495790719986;-0.02076941914856434;0.004886921960860491
01:00:0A:00:00:00:00;1722903258;06/08/24;00:14:18;1.013;-0.026;0.103;0.018325956538319588;-0.012217304669320583;0.006108652334660292
01:00:0A:00:00:00:00;1722903259;06/08/24;00:14:19;1.014;-0.026;0.112;0.019547687843441963;-0.006108652334660292;0.009773843921720982
01:00:0A:00:00:00:00;1722903260;06/08/24;00:14:20;1.015;-0.027;0.109;0.01710422709584236;-0.019547687843441963;0.004886921960860491
01:00:0A:00:00:00:00;1722903261;06/08/24;00:14:21;1.013;-0.026;0.104;0.019547687843441963;-0.009773843921720982;0.0036651913542300463
01:00:0A:00:00:00:00;1722903262;06/08/24;00:14:22;1.011;-0.028;0.112;0.018325956538319588;-0.006108652334660292;0.006108652334660292
01:00:0A:00:00:00:00;1722903263;06/08/24;00:14:23;1.01;-0.028;0.11;0.015882495790719986;-0.02076941914856434;0.0036651913542300463
01:00:0A:00:00:00:00;1722903264;06/08/24;00:14:24;1.011;-0.027;0.104;0.018325956538319588;-0.0073303827084600925;0.006108652334660292
01:00:0A:00:00:00:00;1722903265;06/08/24;00:14:25;1.014;-0.026;0.113;0.015882495790719986;-0.009773843921720982;0.006108652334660292
01:00:0A:00:00:00:00;1722903266;06/08/24;00:14:26;1.015;-0.026;0.108;0.013439035043120384;-0.02076941914856434;0.0036651913542300463
01:00:0A:00:00:00:00;1722903267;06/08/24;00:14:27;1.014;-0.026;0.106;0.015882495790719986;-0.004886921960860491;0.0036651913542300463
01:00:0A:00:00:00:00;1722903268;06/08/24;00:14:28;1.013;-0.026;0.112;0.013439035043120384;-0.0073303827084600925;0.006108652334660292
01:00:0A:00:00:00:00;1722903269;06/08/24;00:14:29;1.012;-0.028;0.108;0.009773843921720982;-0.02076941914856434;0.004886921960860491
01:00:0A:00:00:00:00;1722903270;06/08/24;00:14:30;1.013;-0.025;0.105;0.012217304669320583;-0.006108652334660292;0.006108652334660292
01:00:0A:00:00:00:00;1722903271;06/08/24;00:14:31;1.013;-0.026;0.113;0.009773843921720982;-0.010995574295520782;0.00855211354792118
01:00:0A:00:00:00:00;1722903272;06/08/24;00:14:32;1.012;-0.026;0.107;0.0073303827084600925;-0.018325956538319588;0.0036651913542300463
01:00:0A:00:00:00:00;1722903273;06/08/24;00:14:33;1.013;-0.025;0.107;0.010995574295520782;-0.0036651913542300463;0.0024434609804302454
01:00:0A:00:00:00:00;1722903274;06/08/24;00:14:34;1.01;-0.027;0.112;0.0073303827084600925;-0.013439035043120384;0.0036651913542300463
01:00:0A:00:00:00:00;1722903275;06/08/24;00:14:35;1.01;-0.028;0.105;0.006108652334660292;-0.018325956538319588;0.0024434609804302454
01:00:0A:00:00:00:00;1722903276;06/08/24;00:14:36;1.014;-0.028;0.108;0.00855211354792118;-0.0036651913542300463;0.006108652334660292
01:00:0A:00:00:00:00;1722903277;06/08/24;00:14:37;1.015;-0.027;0.113;0.004886921960860491;-0.013439035043120384;0.0073303827084600925
01:00:0A:00:00:00:00;1722903278;06/08/24;00:14:38;1.016;-0.026;0.105;0.0036651913542300463;-0.01710422709584236;0.0036651913542300463
01:00:0A:00:00:00:00;1722903279;06/08/24;00:14:39;1.014;-0.026;0.108;0.006108652334660292;-0.0012217304902151227;0.0024434609804302454
01:00:0A:00:00:00:00;1722903280;06/08/24;00:14:40;1.012;-0.027;0.113;0.0024434609804302454;-0.013439035043120384;0.0024434609804302454
01:00:0A:00:00:00:00;1722903281;06/08/24;00:14:41;1.012;-0.027;0.104;0.0024434609804302454;-0.014660765416920185;0.0036651913542300463
01:00:0A:00:00:00:00;1722903282;06/08/24;00:14:42;1.012;-0.027;0.109;0.004886921960860491;-0.004886921960860491;0.006108652334660292
01:00:0A:00:00:00:00;1722903283;06/08/24;00:14:43;1.013;-0.027;0.112;0.0;-0.018325956538319588;0.006108652334660292
01:00:0A:00:00:00:00;1722903284;06/08/24;00:14:44;1.014;-0.026;0.105;0.0024434609804302454;-0.013439035043120384;0.0024434609804302454
01:00:0A:00:00:00:00;1722903285;06/08/24;00:14:45;1.014;-0.026;0.11;0.004886921960860491;-0.0024434609804302454;0.0024434609804302454
01:00:0A:00:00:00:00;1722903286;06/08/24;00:14:46;1.013;-0.028;0.111;0.0012217304902151227;-0.01710422709584236;0.0012217304902151227
01:00:0A:00:00:00:00;1722903287;06/08/24;00:14:47;1.011;-0.028;0.104;0.0024434609804302454;-0.012217304669320583;0.0024434609804302454
01:00:0A:00:00:00:00;1722903288;06/08/24;00:14:48;1.012;-0.029;0.109;0.0036651913542300463;-0.004886921960860491;0.0073303827084600925
01:00:0A:00:00:00:00;1722903289;06/08/24;00:14:49;1.013;-0.027;0.109;0.0;-0.02076941914856434;0.0073303827084600925
01:00:0A:00:00:00:00;1722903290;06/08/24;00:14:50;1.013;-0.026;0.104;0.0036651913542300463;-0.010995574295520782;0.004886921960860491
01:00:0A:00:00:00:00;1722903291;06/08/24;00:14:51;1.012;-0.026;0.113;0.004886921960860491;-0.004886921960860491;0.0036651913542300463
01:00:0A:00:00:00:00;1722903292;06/08/24;00:14:52;1.013;-0.027;0.108;0.0012217304902151227;-0.018325956538319588;0.0
01:00:0A:00:00:00:00;1722903293;06/08/24;00:14:53;1.012;-0.028;0.103;0.004886921960860491;-0.00855211354792118;0.0024434609804302454
01:00:0A:00:00:00:00;1722903294;06/08/24;00:14:54;1.013;-0.029;0.111;0.0036651913542300463;-0.0073303827084600925;0.006108652334660292
01:00:0A:00:00:00:00;1722903295;06/08/24;00:14:55;1.013;-0.027;0.108;0.0012217304902151227;-0.02076941914856434;0.006108652334660292
01:00:0A:00:00:00:00;1722903296;06/08/24;00:14:56;1.015;-0.027;0.105;0.004886921960860491;-0.0073303827084600925;0.004886921960860491
01:00:0A:00:00:00:00;1722903297;06/08/24;00:14:57;1.015;-0.026;0.113;0.004886921960860491;-0.0073303827084600925;0.0024434609804302454
01:00:0A:00:00:00:00;1722903298;06/08/24;00:14:58;1.014;-0.027;0.107;0.0024434609804302454;-0.018325956538319588;0.0012217304902151227
01:00:0A:00:00:00:00;1722903299;06/08/24;00:14:59;1.013;-0.029;0.105;0.006108652334660292;-0.006108652334660292;0.0036651913542300463
01:00:0A:00:00:00:00;1722903300;06/08/24;00:15:00;1.013;-0.028;0.113;0.004886921960860491;-0.009773843921720982;0.004886921960860491
01:00:0A:00:00:00:00;1722903301;06/08/24;00:15:01;1.013;-0.027;0.106;0.0024434609804302454;-0.019547687843441963;0.006108652334660292
01:00:0A:00:00:00:00;1722903302;06/08/24;00:15:02;1.013;-0.026;0.106;0.006108652334660292;-0.006108652334660292;0.006108652334660292
01:00:0A:00:00:00:00;1722903303;06/08/24;00:15:03;1.012;-0.025;0.112;0.004886921960860491;-0.010995574295520782;0.0036651913542300463
01:00:0A:00:00:00:00;1722903304;06/08/24;00:15:04;1.014;-0.025;0.106;0.0036651913542300463;-0.01710422709584236;0.0
01:00:0A:00:00:00:00;1722903305;06/08/24;00:15:05;1.013;-0.027;0.106;0.006108652334660292;-0.0024434609804302454;0.0036651913542300463
01:00:0A:00:00:00:00;1722903306;06/08/24;00:15:06;1.013;-0.028;0.113;0.0036651913542300463;-0.012217304669320583;0.006108652334660292
01:00:0A:00:00:00:00;1722903307;06/08/24;00:15:07;1.014;-0.028;0.105;0.0024434609804302454;-0.018325956538319588;0.006108652334660292
01:00:0A:00:00:00:00;1722903308;06/08/24;00:15:08;1.013;-0.026;0.107;0.006108652334660292;-0.0036651913542300463;0.0073303827084600925
01:00:0A:00:00:00:00;1722903309;06/08/24;00:15:09;1.013;-0.025;0.113;0.0036651913542300463;-0.014660765416920185;0.0036651913542300463
01:00:0A:00:00:00:00;1722903310;06/08/24;00:15:10;1.014;-0.026;0.105;0.0036651913542300463;-0.015882495790719986;0.0
01:00:0A:00:00:00:00;1722903311;06/08/24;00:15:11;1.015;-0.029;0.108;0.006108652334660292;-0.004886921960860491;0.0024434609804302454
01:00:0A:00:00:00:00;1722903312;06/08/24;00:15:12;1.013;-0.028;0.112;0.0024434609804302454;-0.014660765416920185;0.0036651913542300463
01:00:0A:00:00:00:00;1722903313;06/08/24;00:15:13;1.013;-0.026;0.106;0.0024434609804302454;-0.015882495790719986;0.006108652334660292
01:00:0A:00:00:00:00;1722903314;06/08/24;00:15:14;1.014;-0.025;0.109;0.004886921960860491;-0.004886921960860491;0.0073303827084600925
01:00:0A:00:00:00:00;1722903315;06/08/24;00:15:15;1.012;-0.026;0.112;0.0024434609804302454;-0.014660765416920185;0.0036651913542300463
01:00:0A:00:00:00:00;1722903316;06/08/24;00:15:16;1.013;-0.025;0.104;0.0036651913542300463;-0.013439035043120384;0.0012217304902151227
