Source;Epoch timestamp (UTC);Date;Time (UTC);Accel X (G);Accel Y (G);Accel Z (G);Gyro X (rad/s);Gyro Y (rad/s);Gyro Z (rad/s)
01:00:0A:00:00:00:00;1724889605;29/08/24;00:00:05;1.016;-0.028;0.065;-0.021991148591041565;-0.010995574295520782;0.0024434609804302454
01:00:0A:00:00:00:00;1724889606;29/08/24;00:00:06;1.015;-0.028;0.066;-0.021991148591041565;-0.010995574295520782;0.0024434609804302454
01:00:0A:00:00:00:00;1724889607;29/08/24;00:00:07;1.015;-0.028;0.065;-0.021991148591041565;-0.010995574295520782;0.0024434609804302454
01:00:0A:00:00:00:00;1724889608;29/08/24;00:00:08;1.016;-0.029;0.066;-0.021991148591041565;-0.010995574295520782;0.0024434609804302454
01:00:0A:00:00:00:00;1724889609;29/08/24;00:00:09;1.016;-0.028;0.065;-0.021991148591041565;-0.010995574295520782;0.0024434609804302454
01:00:0A:00:00:00:00;1724889610;29/08/24;00:00:10;1.015;-0.029;0.066;-0.02321287989616394;-0.010995574295520782;0.0024434609804302454
01:00:0A:00:00:00:00;1724889611;29/08/24;00:00:11;1.015;-0.029;0.066;-0.02321287989616394;-0.010995574295520782;0.0024434609804302454
01:00:0A:00:00:00:00;1724889612;29/08/24;00:00:12;1.014;-0.028;0.066;-0.021991148591041565;-0.010995574295520782;0.0024434609804302454
01:00:0A:00:00:00:00;1724889613;29/08/24;00:00:13;1.016;-0.028;0.064;-0.021991148591041565;-0.010995574295520782;0.0024434609804302454
01:00:0A:00:00:00:00;1724889614;29/08/24;00:00:14;1.016;-0.028;0.066;-0.021991148591041565;-0.010995574295520782;0.0024434609804302454
01:00:0A:00:00:00:00;1724889615;29/08/24;00:00:15;1.016;-0.028;0.065;-0.021991148591041565;-0.010995574295520782;0.0024434609804302454
01:00:0A:00:00:00:00;1724889616;29/08/24;00:00:16;1.015;-0.029;0.065;-0.021991148591041565;-0.010995574295520782;0.0024434609804302454
01:00:0A:00:00:00:00;1724889617;29/08/24;00:00:17;1.015;-0.027;0.065;-0.021991148591041565;-0.010995574295520782;0.0024434609804302454
01:00:0A:00:00:00:00;1724889618;29/08/24;00:00:18;1.016;-0.028;0.065;-0.021991148591041565;-0.010995574295520782;0.0024434609804302454
01:00:0A:00:00:00:00;1724889619;29/08/24;00:00:19;1.015;-0.028;0.065;-0.021991148591041565;-0.012217304669320583;0.0024434609804302454
01:00:0A:00:00:00:00;1724889620;29/08/24;00:00:20;1.016;-0.029;0.066;-0.021991148591041565;-0.010995574295520782;0.0024434609804302454
01:00:0A:00:00:00:00;1724889621;29/08/24;00:00:21;1.014;-0.028;0.065;-0.021991148591041565;-0.010995574295520782;0.0024434609804302454
01:00:0A:00:00:00:00;1724889622;29/08/24;00:00:22;1.015;-0.028;0.065;-0.021991148591041565;-0.010995574295520782;0.0024434609804302454
01:00:0A:00:00:00:00;1724889623;29/08/24;00:00:23;1.015;-0.028;0.065;-0.021991148591041565;-0.012217304669320583;0.0024434609804302454
01:00:0A:00:00:00:00;1724889624;29/08/24;00:00:24;1.015;-0.028;0.065;-0.021991148591041565;-0.010995574295520782;0.0024434609804302454
01:00:0A:00:00:00:00;1724889625;29/08/24;00:00:25;1.015;-0.028;0.065;-0.021991148591041565;-0.010995574295520782;0.0024434609804302454
01:00:0A:00:00:00:00;1724889626;29/08/24;00:00:26;1.015;-0.029;0.066;-0.02076941914856434;-0.010995574295520782;0.0024434609804302454
01:00:0A:00:00:00:00;1724889627;29/08/24;00:00:27;1.015;-0.028;0.064;-0.02076941914856434;-0.010995574295520782;0.0024434609804302454
01:00:0A:00:00:00:00;1724889628;29/08/24;00:00:28;1.015;-0.028;0.064;-0.02076941914856434;-0.010995574295520782;0.0024434609804302454
01:00:0A:00:00:00:00;1724889629;29/08/24;00:00:29;1.016;-0.028;0.066;-0.02076941914856434;-0.010995574295520782;0.0024434609804302454
01:00:0A:00:00:00:00;1724889630;29/08/24;00:00:30;1.016;-0.028;0.065;-0.02076941914856434;-0.010995574295520782;0.0024434609804302454
01:00:0A:00:00:00:00;1724889631;29/08/24;00:00:31;1.015;-0.028;0.065;-0.019547687843441963;-0.010995574295520782;0.0024434609804302454
01:00:0A:00:00:00:00;1724889632;29/08/24;00:00:32;1.015;-0.028;0.066;-0.019547687843441963;-0.010995574295520782;0.0024434609804302454
01:00:0A:00:00:00:00;1724889633;29/08/24;00:00:33;1.015;-0.028;0.065;-0.019547687843441963;-0.010995574295520782;0.0024434609804302454
01:00:0A:00:00:00:00;1724889634;29/08/24;00:00:34;1.016;-0.029;0.065;-0.019547687843441963;-0.010995574295520782;0.0024434609804302454
01:00:0A:00:00:00:00;1724889635;29/08/24;00:00:35;1.015;-0.029;0.065;-0.019547687843441963;-0.010995574295520782;0.0024434609804302454
01:00:0A:00:00:00:00;1724889636;29/08/24;00:00:36;1.015;-0.028;0.066;-0.019547687843441963;-0.010995574295520782;0.0024434609804302454
01:00:0A:00:00:00:00;1724889637;29/08/24;00:00:37;1.015;-0.029;0.065;-0.018325956538319588;-0.010995574295520782;0.0024434609804302454
01:00:0A:00:00:00:00;1724889638;29/08/24;00:00:38;1.016;-0.028;0.065;-0.018325956538319588;-0.010995574295520782;0.0024434609804302454
01:00:0A:00:00:00:00;1724889639;29/08/24;00:00:39;1.015;-0.028;0.065;-0.018325956538319588;-0.010995574295520782;0.0024434609804302454
01:00:0A:00:00:00:00;1724889640;29/08/24;00:00:40;1.015;-0.028;0.066;-0.018325956538319588;-0.010995574295520782;0.0024434609804302454
01:00:0A:00:00:00:00;1724889641;29/08/24;00:00:41;1.016;-0.028;0.065;-0.018325956538319588;-0.010995574295520782;0.0024434609804302454
01:00:0A:00:00:00:00;1724889642;29/08/24;00:00:42;1.016;-0.028;0.065;-0.018325956538319588;-0.010995574295520782;0.0024434609804302454
01:00:0A:00:00:00:00;1724889643;29/08/24;00:00:43;1.014;-0.028;0.065;-0.018325956538319588;-0.010995574295520782;0.0024434609804302454
01:00:0A:00:00:00:00;1724889644;29/08/24;00:00:44;1.015;-0.028;0.065;-0.018325956538319588;-0.010995574295520782;0.0024434609804302454
01:00:0A:00:00:00:00;1724889645;29/08/24;00:00:45;1.016;-0.027;0.066;-0.018325956538319588;-0.010995574295520782;0.0024434609804302454
01:00:0A:00:00:00:00;1724889646;29/08/24;00:00:46;1.015;-0.028;0.066;-0.018325956538319588;-0.010995574295520782;0.0024434609804302454
01:00:0A:00:00:00:00;1724889647;29/08/24;00:00:47;1.016;-0.028;0.064;-0.018325956538319588;-0.010995574295520782;0.0024434609804302454
01:00:0A:00:00:00:00;1724889648;29/08/24;00:00:48;1.015;-0.029;0.065;-0.018325956538319588;-0.010995574295520782;0.0024434609804302454
01:00:0A:00:00:00:00;1724889649;29/08/24;00:00:49;1.015;-0.028;0.065;-0.018325956538319588;-0.010995574295520782;0.0024434609804302454
01:00:0A:00:00:00:00;1724889650;29/08/24;00:00:50;1.015;-0.028;0.065;-0.018325956538319588;-0.010995574295520782;0.0024434609804302454
01:00:0A:00:00:00:00;1724889651;29/08/24;00:00:51;1.016;-0.029;0.065;-0.018325956538319588;-0.010995574295520782;0.0024434609804302454
01:00:0A:00:00:00:00;1724889652;29/08/24;00:00:52;1.015;-0.029;0.066;-0.018325956538319588;-0.010995574295520782;0.0024434609804302454
01:00:0A:00:00:00:00;1724889653;29/08/24;00:00:53;1.015;-0.029;0.066;-0.018325956538319588;-0.010995574295520782;0.0024434609804302454
01:00:0A:00:00:00:00;1724889654;29/08/24;00:00:54;1.015;-0.028;0.065;-0.018325956538319588;-0.010995574295520782;0.0036651913542300463
01:00:0A:00:00:00:00;1724889655;29/08/24;00:00:55;1.015;-0.029;0.065;-0.018325956538319588;-0.010995574295520782;0.0024434609804302454
01:00:0A:00:00:00:00;1724889656;29/08/24;00:00:56;1.015;-0.029;0.066;-0.01710422709584236;-0.010995574295520782;0.0024434609804302454
01:00:0A:00:00:00:00;1724889657;29/08/24;00:00:57;1.016;-0.029;0.066;-0.01710422709584236;-0.010995574295520782;0.0024434609804302454
01:00:0A:00:00:00:00;1724889658;29/08/24;00:00:58;1.016;-0.028;0.065;-0.01710422709584236;-0.010995574295520782;0.0024434609804302454
01:00:0A:00:00:00:00;1724889659;29/08/24;00:00:59;1.016;-0.028;0.065;-0.01710422709584236;-0.010995574295520782;0.0024434609804302454
01:00:0A:00:00:00:00;1724889660;29/08/24;00:01:00;1.015;-0.03;0.065;-0.01710422709584236;-0.010995574295520782;0.0024434609804302454
01:00:0A:00:00:00:00;1724889661;29/08/24;00:01:01;1.015;-0.029;0.066;-0.015882495790719986;-0.010995574295520782;0.0024434609804302454
01:00:0A:00:00:00:00;1724889662;29/08/24;00:01:02;1.016;-0.029;0.066;-0.015882495790719986;-0.010995574295520782;0.0036651913542300463
01:00:0A:00:00:00:00;1724889663;29/08/24;00:01:03;1.016;-0.029;0.065;-0.015882495790719986;-0.010995574295520782;0.0024434609804302454
01:00:0A:00:00:00:00;1724889664;29/08/24;00:01:04;1.015;-0.028;0.065;-0.015882495790719986;-0.010995574295520782;0.0036651913542300463
01:00:0A:00:00:00:00;1724889665;29/08/24;00:01:05;1.014;-0.029;0.066;-0.014660765416920185;-0.010995574295520782;0.0024434609804302454
01:00:0A:00:00:00:00;1724889666;29/08/24;00:01:06;1.016;-0.028;0.065;-0.014660765416920185;-0.010995574295520782;0.0036651913542300463
01:00:0A:00:00:00:00;1724889667;29/08/24;00:01:07;1.015;-0.028;0.066;-0.014660765416920185;-0.010995574295520782;0.0024434609804302454
01:00:0A:00:00:00:00;1724889668;29/08/24;00:01:08;1.014;-0.028;0.065;-0.014660765416920185;-0.010995574295520782;0.0024434609804302454
01:00:0A:00:00:00:00;1724889669;29/08/24;00:01:09;1.016;-0.029;0.066;-0.013439035043120384;-0.010995574295520782;0.0024434609804302454
01:00:0A:00:00:00:00;1724889670;29/08/24;00:01:10;1.015;-0.029;0.065;-0.013439035043120384;-0.010995574295520782;0.0024434609804302454
01:00:0A:00:00:00:00;1724889671;29/08/24;00:01:11;1.015;-0.029;0.064;-0.013439035043120384;-0.010995574295520782;0.0024434609804302454
01:00:0A:00:00:00:00;1724889672;29/08/24;00:01:12;1.016;-0.028;0.065;-0.013439035043120384;-0.010995574295520782;0.0024434609804302454
01:00:0A:00:00:00:00;1724889673;29/08/24;00:01:13;1.015;-0.029;0.065;-0.012217304669320583;-0.010995574295520782;0.0024434609804302454
01:00:0A:00:00:00:00;1724889674;29/08/24;00:01:14;1.016;-0.03;0.065;-0.012217304669320583;-0.010995574295520782;0.0024434609804302454
01:00:0A:00:00:00:00;1724889675;29/08/24;00:01:15;1.015;-0.029;0.065;-0.012217304669320583;-0.010995574295520782;0.0036651913542300463
01:00:0A:00:00:00:00;1724889676;29/08/24;00:01:16;1.015;-0.029;0.065;-0.012217304669320583;-0.010995574295520782;0.0024434609804302454
01:00:0A:00:00:00:00;1724889677;29/08/24;00:01:17;1.015;-0.029;0.065;-0.012217304669320583;-0.010995574295520782;0.0036651913542300463
01:00:0A:00:00:00:00;1724889678;29/08/24;00:01:18;1.015;-0.029;0.065;-0.012217304669320583;-0.010995574295520782;0.0024434609804302454
01:00:0A:00:00:00:00;1724889679;29/08/24;00:01:19;1.016;-0.029;0.066;-0.010995574295520782;-0.010995574295520782;0.0036651913542300463
01:00:0A:00:00:00:00;1724889680;29/08/24;00:01:20;1.016;-0.03;0.065;-0.010995574295520782;-0.010995574295520782;0.0036651913542300463
01:00:0A:00:00:00:00;1724889681;29/08/24;00:01:21;1.016;-0.028;0.066;-0.010995574295520782;-0.010995574295520782;0.0036651913542300463
01:00:0A:00:00:00:00;1724889682;29/08/24;00:01:22;1.015;-0.029;0.065;-0.010995574295520782;-0.010995574295520782;0.0024434609804302454
01:00:0A:00:00:00:00;1724889683;29/08/24;00:01:23;1.016;-0.029;0.065;-0.010995574295520782;-0.010995574295520782;0.0024434609804302454
01:00:0A:00:00:00:00;1724889684;29/08/24;00:01:24;1.016;-0.028;0.065;-0.010995574295520782;-0.010995574295520782;0.0024434609804302454
01:00:0A:00:00:00:00;1724889685;29/08/24;00:01:25;1.015;-0.03;0.064;-0.010995574295520782;-0.010995574295520782;0.0024434609804302454
01:00:0A:00:00:00:00;1724889686;29/08/24;00:01:26;1.015;-0.029;0.065;-0.010995574295520782;-0.010995574295520782;0.0036651913542300463
01:00:0A:00:00:00:00;1724889687;29/08/24;00:01:27;1.015;-0.029;0.065;-0.010995574295520782;-0.010995574295520782;0.0024434609804302454
01:00:0A:00:00:00:00;1724889688;29/08/24;00:01:28;1.016;-0.029;0.065;-0.010995574295520782;-0.010995574295520782;0.0036651913542300463
01:00:0A:00:00:00:00;1724889689;29/08/24;00:01:29;1.016;-0.028;0.065;-0.010995574295520782;-0.010995574295520782;0.0024434609804302454
01:00:0A:00:00:00:00;1724889690;29/08/24;00:01:30;1.014;-0.03;0.065;-0.010995574295520782;-0.010995574295520782;0.0036651913542300463
01:00:0A:00:00:00:00;1724889691;29/08/24;00:01:31;1.015;-0.029;0.065;-0.010995574295520782;-0.010995574295520782;0.0024434609804302454
01:00:0A:00:00:00:00;1724889692;29/08/24;00:01:32;1.016;-0.029;0.065;-0.010995574295520782;-0.010995574295520782;0.0024434609804302454
01:00:0A:00:00:00:00;1724889693;29/08/24;00:01:33;1.016;-0.029;0.065;-0.009773843921720982;-0.010995574295520782;0.0024434609804302454
01:00:0A:00:00:00:00;1724889694;29/08/24;00:01:34;1.016;-0.03;0.065;-0.010995574295520782;-0.010995574295520782;0.0036651913542300463
01:00:0A:00:00:00:00;1724889695;29/08/24;00:01:35;1.015;-0.029;0.065;-0.010995574295520782;-0.010995574295520782;0.0024434609804302454
01:00:0A:00:00:00:00;1724889696;29/08/24;00:01:36;1.016;-0.029;0.064;-0.010995574295520782;-0.010995574295520782;0.0024434609804302454
01:00:0A:00:00:00:00;1724889697;29/08/24;00:01:37;1.016;-0.028;0.066;-0.010995574295520782;-0.010995574295520782;0.0024434609804302454
01:00:0A:00:00:00:00;1724889698;29/08/24;00:01:38;1.015;-0.028;0.065;-0.010995574295520782;-0.010995574295520782;0.0024434609804302454
01:00:0A:00:00:00:00;1724889699;29/08/24;00:01:39;1.016;-0.029;0.065;-0.010995574295520782;-0.010995574295520782;0.0024434609804302454
01:00:0A:00:00:00:00;1724889700;29/08/24;00:01:40;1.016;-0.03;0.065;-0.010995574295520782;-0.010995574295520782;0.0024434609804302454
01:00:0A:00:00:00:00;1724889701;29/08/24;00:01:41;1.016;-0.029;0.065;-0.010995574295520782;-0.010995574295520782;0.0024434609804302454
01:00:0A:00:00:00:00;1724889702;29/08/24;00:01:42;1.016;-0.029;0.065;-0.012217304669320583;-0.010995574295520782;0.0036651913542300463
01:00:0A:00:00:00:00;1724889703;29/08/24;00:01:43;1.016;-0.029;0.064;-0.012217304669320583;-0.010995574295520782;0.0024434609804302454
01:00:0A:00:00:00:00;1724889704;29/08/24;00:01:44;1.016;-0.029;0.064;-0.012217304669320583;-0.010995574295520782;0.0024434609804302454
01:00:0A:00:00:00:00;1724889705;29/08/24;00:01:45;1.015;-0.029;0.066;-0.012217304669320583;-0.010995574295520782;0.0024434609804302454
01:00:0A:00:00:00:00;1724889706;29/08/24;00:01:46;1.015;-0.029;0.065;-0.012217304669320583;-0.010995574295520782;0.0024434609804302454
01:00:0A:00:00:00:00;1724889707;29/08/24;00:01:47;1.015;-0.028;0.064;-0.013439035043120384;-0.010995574295520782;0.0036651913542300463
01:00:0A:00:00:00:00;1724889708;29/08/24;00:01:48;1.016;-0.029;0.065;-0.013439035043120384;-0.010995574295520782;0.0024434609804302454
01:00:0A:00:00:00:00;1724889709;29/08/24;00:01:49;1.016;-0.03;0.065;-0.013439035043120384;-0.010995574295520782;0.0024434609804302454
01:00:0A:00:00:00:00;1724889710;29/08/24;00:01:50;1.015;-0.028;0.064;-0.013439035043120384;-0.010995574295520782;0.0036651913542300463
01:00:0A:00:00:00:00;1724889711;29/08/24;00:01:51;1.015;-0.028;0.065;-0.014660765416920185;-0.010995574295520782;0.0024434609804302454
01:00:0A:00:00:00:00;1724889712;29/08/24;00:01:52;1.016;-0.028;0.064;-0.014660765416920185;-0.010995574295520782;0.0024434609804302454
01:00:0A:00:00:00:00;1724889713;29/08/24;00:01:53;1.015;-0.028;0.065;-0.014660765416920185;-0.010995574295520782;0.0024434609804302454
01:00:0A:00:00:00:00;1724889714;29/08/24;00:01:54;1.016;-0.028;0.065;-0.015882495790719986;-0.010995574295520782;0.0024434609804302454
01:00:0A:00:00:00:00;1724889715;29/08/24;00:01:55;1.016;-0.029;0.066;-0.015882495790719986;-0.010995574295520782;0.0024434609804302454
01:00:0A:00:00:00:00;1724889716;29/08/24;00:01:56;1.016;-0.028;0.065;-0.015882495790719986;-0.010995574295520782;0.0024434609804302454
01:00:0A:00:00:00:00;1724889717;29/08/24;00:01:57;1.016;-0.029;0.065;-0.01710422709584236;-0.010995574295520782;0.0024434609804302454
01:00:0A:00:00:00:00;1724889718;29/08/24;00:01:58;1.016;-0.029;0.065;-0.01710422709584236;-0.010995574295520782;0.0024434609804302454
01:00:0A:00:00:00:00;1724889719;29/08/24;00:01:59;1.015;-0.029;0.065;-0.01710422709584236;-0.010995574295520782;0.0024434609804302454
01:00:0A:00:00:00:00;1724889720;29/08/24;00:02:00;1.016;-0.029;0.065;-0.01710422709584236;-0.010995574295520782;0.0024434609804302454
01:00:0A:00:00:00:00;1724889721;29/08/24;00:02:01;1.015;-0.029;0.064;-0.018325956538319588;-0.010995574295520782;0.0024434609804302454
01:00:0A:00:00:00:00;1724889722;29/08/24;00:02:02;1.016;-0.028;0.064;-0.018325956538319588;-0.010995574295520782;0.0024434609804302454
01:00:0A:00:00:00:00;1724889723;29/08/24;00:02:03;1.016;-0.029;0.065;-0.018325956538319588;-0.010995574295520782;0.0024434609804302454
01:00:0A:00:00:00:00;1724889724;29/08/24;00:02:04;1.016;-0.029;0.066;-0.018325956538319588;-0.010995574295520782;0.0024434609804302454
01:00:0A:00:00:00:00;1724889725;29/08/24;00:02:05;1.015;-0.029;0.065;-0.018325956538319588;-0.010995574295520782;0.0024434609804302454
01:00:0A:00:00:00:00;1724889726;29/08/24;00:02:06;1.016;-0.029;0.066;-0.018325956538319588;-0.010995574295520782;0.0024434609804302454
01:00:0A:00:00:00:00;1724889727;29/08/24;00:02:07;1.015;-0.029;0.065;-0.018325956538319588;-0.010995574295520782;0.0024434609804302454
01:00:0A:00:00:00:00;1724889728;29/08/24;00:02:08;1.016;-0.029;0.065;-0.018325956538319588;-0.010995574295520782;0.0024434609804302454
01:00:0A:00:00:00:00;1724889729;29/08/24;00:02:09;1.015;-0.029;0.064;-0.018325956538319588;-0.010995574295520782;0.0024434609804302454
01:00:0A:00:00:00:00;1724889730;29/08/24;00:02:10;1.015;-0.029;0.064;-0.018325956538319588;-0.010995574295520782;0.0024434609804302454
01:00:0A:00:00:00:00;1724889731;29/08/24;00:02:11;1.015;-0.028;0.065;-0.018325956538319588;-0.010995574295520782;0.0024434609804302454
01:00:0A:00:00:00:00;1724889732;29/08/24;00:02:12;1.015;-0.03;0.064;-0.018325956538319588;-0.010995574295520782;0.0024434609804302454
01:00:0A:00:00:00:00;1724889733;29/08/24;00:02:13;1.015;-0.029;0.064;-0.01710422709584236;-0.010995574295520782;0.0024434609804302454
01:00:0A:00:00:00:00;1724889734;29/08/24;00:02:14;1.016;-0.029;0.064;-0.01710422709584236;-0.010995574295520782;0.0024434609804302454
01:00:0A:00:00:00:00;1724889735;29/08/24;00:02:15;1.014;-0.03;0.065;-0.01710422709584236;-0.010995574295520782;0.0024434609804302454
01:00:0A:00:00:00:00;1724889736;29/08/24;00:02:16;1.016;-0.028;0.064;-0.01710422709584236;-0.010995574295520782;0.0024434609804302454
01:00:0A:00:00:00:00;1724889737;29/08/24;00:02:17;1.015;-0.028;0.064;-0.015882495790719986;-0.010995574295520782;0.0024434609804302454
01:00:0A:00:00:00:00;1724889738;29/08/24;00:02:18;1.016;-0.028;0.065;-0.015882495790719986;-0.010995574295520782;0.0024434609804302454
01:00:0A:00:00:00:00;1724889739;29/08/24;00:02:19;1.016;-0.029;0.064;-0.015882495790719986;-0.010995574295520782;0.0024434609804302454
01:00:0A:00:00:00:00;1724889740;29/08/24;00:02:20;1.015;-0.029;0.065;-0.015882495790719986;-0.010995574295520782;0.0024434609804302454
01:00:0A:00:00:00:00;1724889741;29/08/24;00:02:21;1.015;-0.028;0.065;-0.015882495790719986;-0.010995574295520782;0.0024434609804302454
01:00:0A:00:00:00:00;1724889742;29/08/24;00:02:22;1.015;-0.029;0.066;-0.015882495790719986;-0.010995574295520782;0.0024434609804302454
01:00:0A:00:00:00:00;1724889743;29/08/24;00:02:23;1.015;-0.029;0.064;-0.015882495790719986;-0.010995574295520782;0.0024434609804302454
01:00:0A:00:00:00:00;1724889744;29/08/24;00:02:24;1.015;-0.028;0.064;-0.015882495790719986;-0.010995574295520782;0.0024434609804302454
01:00:0A:00:00:00:00;1724889745;29/08/24;00:02:25;1.015;-0.028;0.065;-0.015882495790719986;-0.010995574295520782;0.0024434609804302454
01:00:0A:00:00:00:00;1724889746;29/08/24;00:02:26;1.015;-0.028;0.065;-0.015882495790719986;-0.010995574295520782;0.0024434609804302454
01:00:0A:00:00:00:00;1724889747;29/08/24;00:02:27;1.016;-0.029;0.065;-0.01710422709584236;-0.010995574295520782;0.0024434609804302454
01:00:0A:00:00:00:00;1724889748;29/08/24;00:02:28;1.015;-0.03;0.066;-0.01710422709584236;-0.010995574295520782;0.0024434609804302454
01:00:0A:00:00:00:00;1724889749;29/08/24;00:02:29;1.015;-0.029;0.065;-0.01710422709584236;-0.010995574295520782;0.0024434609804302454
01:00:0A:00:00:00:00;1724889750;29/08/24;00:02:30;1.016;-0.029;0.064;-0.01710422709584236;-0.010995574295520782;0.0024434609804302454
01:00:0A:00:00:00:00;1724889751;29/08/24;00:02:31;1.016;-0.028;0.064;-0.01710422709584236;-0.010995574295520782;0.0024434609804302454
01:00:0A:00:00:00:00;1724889752;29/08/24;00:02:32;1.015;-0.031;0.064;-0.01710422709584236;-0.010995574295520782;0.0024434609804302454
01:00:0A:00:00:00:00;1724889753;29/08/24;00:02:33;1.015;-0.029;0.065;-0.01710422709584236;-0.010995574295520782;0.0024434609804302454
01:00:0A:00:00:00:00;1724889754;29/08/24;00:02:34;1.015;-0.03;0.064;-0.01710422709584236;-0.010995574295520782;0.0024434609804302454
01:00:0A:00:00:00:00;1724889755;29/08/24;00:02:35;1.015;-0.029;0.066;-0.01710422709584236;-0.010995574295520782;0.0024434609804302454
01:00:0A:00:00:00:00;1724889756;29/08/24;00:02:36;1.016;-0.029;0.066;-0.01710422709584236;-0.010995574295520782;0.0024434609804302454
01:00:0A:00:00:00:00;1724889757;29/08/24;00:02:37;1.015;-0.029;0.065;-0.01710422709584236;-0.010995574295520782;0.0024434609804302454
01:00:0A:00:00:00:00;1724889758;29/08/24;00:02:38;1.016;-0.029;0.065;-0.018325956538319588;-0.010995574295520782;0.0024434609804302454
01:00:0A:00:00:00:00;1724889759;29/08/24;00:02:39;1.015;-0.029;0.064;-0.01710422709584236;-0.010995574295520782;0.0024434609804302454
01:00:0A:00:00:00:00;1724889760;29/08/24;00:02:40;1.014;-0.029;0.064;-0.018325956538319588;-0.010995574295520782;0.0024434609804302454
01:00:0A:00:00:00:00;1724889761;29/08/24;00:02:41;1.015;-0.028;0.065;-0.01710422709584236;-0.010995574295520782;0.0024434609804302454
01:00:0A:00:00:00:00;1724889762;29/08/24;00:02:42;1.016;-0.028;0.065;-0.018325956538319588;-0.010995574295520782;0.0024434609804302454
01:00:0A:00:00:00:00;1724889763;29/08/24;00:02:43;1.016;-0.029;0.065;-0.01710422709584236;-0.010995574295520782;0.0024434609804302454
01:00:0A:00:00:00:00;1724889764;29/08/24;00:02:44;1.016;-0.028;0.064;-0.01710422709584236;-0.010995574295520782;0.0024434609804302454
01:00:0A:00:00:00:00;1724889765;29/08/24;00:02:45;1.015;-0.03;0.065;-0.01710422709584236;-0.010995574295520782;0.0024434609804302454
01:00:0A:00:00:00:00;1724889766;29/08/24;00:02:46;1.016;-0.027;0.064;-0.01710422709584236;-0.010995574295520782;0.0024434609804302454
01:00:0A:00:00:00:00;1724889767;29/08/24;00:02:47;1.016;-0.029;0.065;-0.01710422709584236;-0.010995574295520782;0.0024434609804302454
01:00:0A:00:00:00:00;1724889768;29/08/24;00:02:48;1.016;-0.029;0.064;-0.01710422709584236;-0.010995574295520782;0.0024434609804302454
01:00:0A:00:00:00:00;1724889769;29/08/24;00:02:49;1.016;-0.029;0.065;-0.015882495790719986;-0.010995574295520782;0.0024434609804302454
01:00:0A:00:00:00:00;1724889770;29/08/24;00:02:50;1.015;-0.029;0.064;-0.015882495790719986;-0.010995574295520782;0.0024434609804302454
01:00:0A:00:00:00:00;1724889771;29/08/24;00:02:51;1.014;-0.029;0.064;-0.015882495790719986;-0.010995574295520782;0.0024434609804302454
01:00:0A:00:00:00:00;1724889772;29/08/24;00:02:52;1.016;-0.03;0.065;-0.015882495790719986;-0.010995574295520782;0.0024434609804302454
01:00:0A:00:00:00:00;1724889773;29/08/24;00:02:53;1.016;-0.028;0.064;-0.014660765416920185;-0.010995574295520782;0.0024434609804302454
01:00:0A:00:00:00:00;1724889774;29/08/24;00:02:54;1.016;-0.029;0.065;-0.014660765416920185;-0.010995574295520782;0.0024434609804302454
01:00:0A:00:00:00:00;1724889775;29/08/24;00:02:55;1.015;-0.028;0.065;-0.013439035043120384;-0.010995574295520782;0.0024434609804302454
01:00:0A:00:00:00:00;1724889776;29/08/24;00:02:56;1.015;-0.029;0.065;-0.013439035043120384;-0.010995574295520782;0.0036651913542300463
01:00:0A:00:00:00:00;1724889777;29/08/24;00:02:57;1.015;-0.029;0.065;-0.013439035043120384;-0.010995574295520782;0.0036651913542300463
01:00:0A:00:00:00:00;1724889778;29/08/24;00:02:58;1.016;-0.029;0.065;-0.012217304669320583;-0.010995574295520782;0.0024434609804302454
01:00:0A:00:00:00:00;1724889779;29/08/24;00:02:59;1.016;-0.029;0.064;-0.010995574295520782;-0.010995574295520782;0.0036651913542300463
01:00:0A:00:00:00:00;1724889780;29/08/24;00:03:00;1.015;-0.028;0.064;-0.010995574295520782;-0.010995574295520782;0.0024434609804302454
01:00:0A:00:00:00:00;1724889781;29/08/24;00:03:01;1.016;-0.028;0.065;-0.009773843921720982;-0.010995574295520782;0.0024434609804302454
01:00:0A:00:00:00:00;1724889782;29/08/24;00:03:02;1.015;-0.029;0.065;-0.009773843921720982;-0.010995574295520782;0.0024434609804302454
01:00:0A:00:00:00:00;1724889783;29/08/24;00:03:03;1.016;-0.028;0.064;-0.00855211354792118;-0.010995574295520782;0.0024434609804302454
01:00:0A:00:00:00:00;1724889784;29/08/24;00:03:04;1.016;-0.029;0.064;-0.00855211354792118;-0.010995574295520782;0.0024434609804302454
01:00:0A:00:00:00:00;1724889785;29/08/24;00:03:05;1.015;-0.027;0.064;-0.0073303827084600925;-0.010995574295520782;0.0024434609804302454
01:00:0A:00:00:00:00;1724889786;29/08/24;00:03:06;1.014;-0.029;0.064;-0.006108652334660292;-0.010995574295520782;0.0024434609804302454
01:00:0A:00:00:00:00;1724889787;29/08/24;00:03:07;1.015;-0.028;0.065;-0.006108652334660292;-0.010995574295520782;0.0024434609804302454
01:00:0A:00:00:00:00;1724889788;29/08/24;00:03:08;1.014;-0.028;0.064;-0.004886921960860491;-0.010995574295520782;0.0024434609804302454
01:00:0A:00:00:00:00;1724889789;29/08/24;00:03:09;1.016;-0.029;0.064;-0.004886921960860491;-0.010995574295520782;0.0024434609804302454
01:00:0A:00:00:00:00;1724889790;29/08/24;00:03:10;1.015;-0.029;0.065;-0.0036651913542300463;-0.010995574295520782;0.0036651913542300463
01:00:0A:00:00:00:00;1724889791;29/08/24;00:03:11;1.015;-0.029;0.065;-0.0036651913542300463;-0.010995574295520782;0.0024434609804302454
01:00:0A:00:00:00:00;1724889792;29/08/24;00:03:12;1.016;-0.029;0.063;-0.0024434609804302454;-0.010995574295520782;0.0036651913542300463
01:00:0A:00:00:00:00;1724889793;29/08/24;00:03:13;1.015;-0.03;0.063;-0.0012217304902151227;-0.010995574295520782;0.0036651913542300463
01:00:0A:00:00:00:00;1724889794;29/08/24;00:03:14;1.016;-0.029;0.064;-0.0012217304902151227;-0.010995574295520782;0.0036651913542300463
01:00:0A:00:00:00:00;1724889795;29/08/24;00:03:15;1.015;-0.029;0.065;-0.0012217304902151227;-0.010995574295520782;0.0036651913542300463
01:00:0A:00:00:00:00;1724889796;29/08/24;00:03:16;1.015;-0.029;0.064;0.0;-0.010995574295520782;0.0036651913542300463
01:00:0A:00:00:00:00;1724889797;29/08/24;00:03:17;1.015;-0.029;0.065;0.0012217304902151227;-0.010995574295520782;0.0036651913542300463
01:00:0A:00:00:00:00;1724889798;29/08/24;00:03:18;1.015;-0.028;0.065;0.0012217304902151227;-0.010995574295520782;0.0036651913542300463
01:00:0A:00:00:00:00;1724889799;29/08/24;00:03:19;1.015;-0.029;0.064;0.0012217304902151227;-0.010995574295520782;0.0036651913542300463
01:00:0A:00:00:00:00;1724889800;29/08/24;00:03:20;1.016;-0.028;0.064;0.0024434609804302454;-0.010995574295520782;0.0036651913542300463
01:00:0A:00:00:00:00;1724889801;29/08/24;00:03:21;1.015;-0.029;0.064;0.0024434609804302454;-0.010995574295520782;0.0036651913542300463
01:00:0A:00:00:00:00;1724889802;29/08/24;00:03:22;1.015;-0.029;0.064;0.0036651913542300463;-0.012217304669320583;0.0036651913542300463
01:00:0A:00:00:00:00;1724889803;29/08/24;00:03:23;1.016;-0.028;0.066;0.0036651913542300463;-0.010995574295520782;0.0036651913542300463
01:00:0A:00:00:00:00;1724889804;29/08/24;00:03:24;1.016;-0.029;0.064;0.0036651913542300463;-0.010995574295520782;0.0036651913542300463
01:00:0A:00:00:00:00;1724889805;29/08/24;00:03:25;1.016;-0.029;0.065;0.004886921960860491;-0.010995574295520782;0.0036651913542300463
01:00:0A:00:00:00:00;1724889806;29/08/24;00:03:26;1.015;-0.028;0.065;0.004886921960860491;-0.010995574295520782;0.0036651913542300463
01:00:0A:00:00:00:00;1724889807;29/08/24;00:03:27;1.016;-0.03;0.065;0.004886921960860491;-0.010995574295520782;0.0036651913542300463
01:00:0A:00:00:00:00;1724889808;29/08/24;00:03:28;1.016;-0.028;0.065;0.006108652334660292;-0.010995574295520782;0.0036651913542300463
01:00:0A:00:00:00:00;1724889809;29/08/24;00:03:29;1.016;-0.028;0.064;0.006108652334660292;-0.010995574295520782;0.0036651913542300463
01:00:0A:00:00:00:00;1724889810;29/08/24;00:03:30;1.016;-0.028;0.064;0.006108652334660292;-0.010995574295520782;0.0036651913542300463
01:00:0A:00:00:00:00;1724889811;29/08/24;00:03:31;1.015;-0.03;0.065;0.006108652334660292;-0.010995574295520782;0.0036651913542300463
01:00:0A:00:00:00:00;1724889812;29/08/24;00:03:32;1.015;-0.03;0.064;0.0073303827084600925;-0.010995574295520782;0.0036651913542300463
01:00:0A:00:00:00:00;1724889813;29/08/24;00:03:33;1.015;-0.029;0.064;0.0073303827084600925;-0.010995574295520782;0.0036651913542300463
01:00:0A:00:00:00:00;1724889814;29/08/24;00:03:34;1.016;-0.029;0.065;0.0073303827084600925;-0.010995574295520782;0.0036651913542300463
01:00:0A:00:00:00:00;1724889815;29/08/24;00:03:35;1.015;-0.029;0.065;0.0073303827084600925;-0.010995574295520782;0.0036651913542300463
01:00:0A:00:00:00:00;1724889816;29/08/24;00:03:36;1.016;-0.028;0.065;0.0073303827084600925;-0.010995574295520782;0.0036651913542300463
01:00:0A:00:00:00:00;1724889817;29/08/24;00:03:37;1.016;-0.029;0.065;0.00855211354792118;-0.010995574295520782;0.0036651913542300463
01:00:0A:00:00:00:00;1724889818;29/08/24;00:03:38;1.015;-0.028;0.065;0.00855211354792118;-0.010995574295520782;0.0036651913542300463
01:00:0A:00:00:00:00;1724889819;29/08/24;00:03:39;1.016;-0.028;0.064;0.00855211354792118;-0.012217304669320583;0.0036651913542300463
01:00:0A:00:00:00:00;1724889820;29/08/24;00:03:40;1.016;-0.029;0.065;0.00855211354792118;-0.010995574295520782;0.0036651913542300463
01:00:0A:00:00:00:00;1724889821;29/08/24;00:03:41;1.015;-0.03;0.064;0.00855211354792118;-0.010995574295520782;0.0036651913542300463
01:00:0A:00:00:00:00;1724889822;29/08/24;00:03:42;1.015;-0.029;0.065;0.00855211354792118;-0.010995574295520782;0.0036651913542300463
01:00:0A:00:00:00:00;1724889823;29/08/24;00:03:43;1.015;-0.028;0.064;0.00855211354792118;-0.012217304669320583;0.0036651913542300463
01:00:0A:00:00:00:00;1724889824;29/08/24;00:03:44;1.015;-0.029;0.064;0.00855211354792118;-0.010995574295520782;0.0036651913542300463
01:00:0A:00:00:00:00;1724889825;29/08/24;00:03:45;1.016;-0.029;0.065;0.00855211354792118;-0.010995574295520782;0.0036651913542300463
01:00:0A:00:00:00:00;1724889826;29/08/24;00:03:46;1.016;-0.029;0.064;0.00855211354792118;-0.010995574295520782;0.0036651913542300463
01:00:0A:00:00:00:00;1724889827;29/08/24;00:03:47;1.015;-0.029;0.065;0.00855211354792118;-0.010995574295520782;0.0036651913542300463
01:00:0A:00:00:00:00;1724889828;29/08/24;00:03:48;1.016;-0.028;0.065;0.00855211354792118;-0.010995574295520782;0.0036651913542300463
01:00:0A:00:00:00:00;1724889829;29/08/24;00:03:49;1.016;-0.029;0.064;0.00855211354792118;-0.010995574295520782;0.0036651913542300463
01:00:0A:00:00:00:00;1724889830;29/08/24;00:03:50;1.015;-0.029;0.065;0.00855211354792118;-0.010995574295520782;0.0036651913542300463
01:00:0A:00:00:00:00;1724889831;29/08/24;00:03:51;1.016;-0.029;0.065;0.00855211354792118;-0.010995574295520782;0.0036651913542300463
01:00:0A:00:00:00:00;1724889832;29/08/24;00:03:52;1.016;-0.028;0.064;0.00855211354792118;-0.010995574295520782;0.0036651913542300463
01:00:0A:00:00:00:00;1724889833;29/08/24;00:03:53;1.016;-0.028;0.065;0.00855211354792118;-0.010995574295520782;0.0036651913542300463
01:00:0A:00:00:00:00;1724889834;29/08/24;00:03:54;1.016;-0.029;0.064;0.00855211354792118;-0.010995574295520782;0.0036651913542300463
01:00:0A:00:00:00:00;1724889835;29/08/24;00:03:55;1.016;-0.029;0.065;0.00855211354792118;-0.012217304669320583;0.0036651913542300463
01:00:0A:00:00:00:00;1724889836;29/08/24;00:03:56;1.014;-0.029;0.065;0.00855211354792118;-0.010995574295520782;0.0036651913542300463
01:00:0A:00:00:00:00;1724889837;29/08/24;00:03:57;1.016;-0.028;0.065;0.00855211354792118;-0.010995574295520782;0.0036651913542300463
01:00:0A:00:00:00:00;1724889838;29/08/24;00:03:58;1.015;-0.029;0.065;0.00855211354792118;-0.010995574295520782;0.0036651913542300463
01:00:0A:00:00:00:00;1724889839;29/08/24;00:03:59;1.016;-0.028;0.064;0.00855211354792118;-0.010995574295520782;0.0036651913542300463
01:00:0A:00:00:00:00;1724889840;29/08/24;00:04:00;1.015;-0.028;0.066;0.00855211354792118;-0.012217304669320583;0.0036651913542300463
01:00:0A:00:00:00:00;1724889841;29/08/24;00:04:01;1.016;-0.029;0.064;0.00855211354792118;-0.010995574295520782;0.0036651913542300463
01:00:0A:00:00:00:00;1724889842;29/08/24;00:04:02;1.015;-0.029;0.064;0.00855211354792118;-0.010995574295520782;0.0036651913542300463
01:00:0A:00:00:00:00;1724889843;29/08/24;00:04:03;1.015;-0.03;0.064;0.00855211354792118;-0.010995574295520782;0.0036651913542300463
01:00:0A:00:00:00:00;1724889844;29/08/24;00:04:04;1.016;-0.028;0.064;0.00855211354792118;-0.010995574295520782;0.0036651913542300463
01:00:0A:00:00:00:00;1724889845;29/08/24;00:04:05;1.016;-0.029;0.064;0.00855211354792118;-0.012217304669320583;0.0036651913542300463
01:00:0A:00:00:00:00;1724889846;29/08/24;00:04:06;1.015;-0.029;0.065;0.00855211354792118;-0.010995574295520782;0.0036651913542300463
01:00:0A:00:00:00:00;1724889847;29/08/24;00:04:07;1.015;-0.029;0.065;0.00855211354792118;-0.012217304669320583;0.0036651913542300463
01:00:0A:00:00:00:00;1724889848;29/08/24;00:04:08;1.016;-0.029;0.064;0.00855211354792118;-0.010995574295520782;0.0036651913542300463
01:00:0A:00:00:00:00;1724889849;29/08/24;00:04:09;1.016;-0.029;0.064;0.00855211354792118;-0.010995574295520782;0.0036651913542300463
01:00:0A:00:00:00:00;1724889850;29/08/24;00:04:10;1.016;-0.027;0.064;0.00855211354792118;-0.012217304669320583;0.0036651913542300463
01:00:0A:00:00:00:00;1724889851;29/08/24;00:04:11;1.016;-0.028;0.065;0.00855211354792118;-0.010995574295520782;0.0036651913542300463
01:00:0A:00:00:00:00;1724889852;29/08/24;00:04:12;1.016;-0.028;0.065;0.0073303827084600925;-0.010995574295520782;0.0036651913542300463
01:00:0A:00:00:00:00;1724889853;29/08/24;00:04:13;1.016;-0.029;0.064;0.00855211354792118;-0.012217304669320583;0.0036651913542300463
01:00:0A:00:00:00:00;1724889854;29/08/24;00:04:14;1.015;-0.029;0.064;0.00855211354792118;-0.010995574295520782;0.0036651913542300463
01:00:0A:00:00:00:00;1724889855;29/08/24;00:04:15;1.016;-0.028;0.064;0.00855211354792118;-0.010995574295520782;0.0036651913542300463
01:00:0A:00:00:00:00;1724889856;29/08/24;00:04:16;1.015;-0.029;0.064;0.00855211354792118;-0.010995574295520782;0.0036651913542300463
01:00:0A:00:00:00:00;1724889857;29/08/24;00:04:17;1.016;-0.029;0.064;0.00855211354792118;-0.010995574295520782;0.0036651913542300463
01:00:0A:00:00:00:00;1724889858;29/08/24;00:04:18;1.015;-0.028;0.065;0.0073303827084600925;-0.010995574295520782;0.0036651913542300463
01:00:0A:00:00:00:00;1724889859;29/08/24;00:04:19;1.016;-0.028;0.065;0.0073303827084600925;-0.010995574295520782;0.0036651913542300463
01:00:0A:00:00:00:00;1724889860;29/08/24;00:04:20;1.016;-0.029;0.065;0.0073303827084600925;-0.010995574295520782;0.0036651913542300463
01:00:0A:00:00:00:00;1724889861;29/08/24;00:04:21;1.016;-0.027;0.064;0.0073303827084600925;-0.012217304669320583;0.0036651913542300463
01:00:0A:00:00:00:00;1724889862;29/08/24;00:04:22;1.016;-0.028;0.064;0.0073303827084600925;-0.012217304669320583;0.0036651913542300463
01:00:0A:00:00:00:00;1724889863;29/08/24;00:04:23;1.016;-0.029;0.065;0.0073303827084600925;-0.010995574295520782;0.0036651913542300463
01:00:0A:00:00:00:00;1724889864;29/08/24;00:04:24;1.015;-0.028;0.065;0.0073303827084600925;-0.010995574295520782;0.0036651913542300463
01:00:0A:00:00:00:00;1724889865;29/08/24;00:04:25;1.015;-0.029;0.066;0.0073303827084600925;-0.012217304669320583;0.0036651913542300463
01:00:0A:00:00:00:00;1724889866;29/08/24;00:04:26;1.015;-0.028;0.064;0.0073303827084600925;-0.010995574295520782;0.0036651913542300463
01:00:0A:00:00:00:00;1724889867;29/08/24;00:04:27;1.015;-0.028;0.064;0.0073303827084600925;-0.010995574295520782;0.0036651913542300463
01:00:0A:00:00:00:00;1724889868;29/08/24;00:04:28;1.015;-0.029;0.064;0.0073303827084600925;-0.010995574295520782;0.0036651913542300463
01:00:0A:00:00:00:00;1724889869;29/08/24;00:04:29;1.015;-0.029;0.065;0.0073303827084600925;-0.012217304669320583;0.0036651913542300463
01:00:0A:00:00:00:00;1724889870;29/08/24;00:04:30;1.015;-0.028;0.065;0.0073303827084600925;-0.010995574295520782;0.0036651913542300463
01:00:0A:00:00:00:00;1724889871;29/08/24;00:04:31;1.015;-0.029;0.064;0.0073303827084600925;-0.010995574295520782;0.0036651913542300463
01:00:0A:00:00:00:00;1724889872;29/08/24;00:04:32;1.016;-0.029;0.065;0.0073303827084600925;-0.012217304669320583;0.0036651913542300463
01:00:0A:00:00:00:00;1724889873;29/08/24;00:04:33;1.015;-0.029;0.065;0.0073303827084600925;-0.010995574295520782;0.0036651913542300463
01:00:0A:00:00:00:00;1724889874;29/08/24;00:04:34;1.015;-0.027;0.064;0.0073303827084600925;-0.010995574295520782;0.0036651913542300463
01:00:0A:00:00:00:00;1724889875;29/08/24;00:04:35;1.015;-0.029;0.064;0.0073303827084600925;-0.010995574295520782;0.0036651913542300463
01:00:0A:00:00:00:00;1724889876;29/08/24;00:04:36;1.014;-0.028;0.065;0.0073303827084600925;-0.010995574295520782;0.0036651913542300463
01:00:0A:00:00:00:00;1724889877;29/08/24;00:04:37;1.016;-0.028;0.065;0.0073303827084600925;-0.010995574295520782;0.0036651913542300463
01:00:0A:00:00:00:00;1724889878;29/08/24;00:04:38;1.015;-0.027;0.065;0.0073303827084600925;-0.010995574295520782;0.0036651913542300463
01:00:0A:00:00:00:00;1724889879;29/08/24;00:04:39;1.015;-0.029;0.065;0.0073303827084600925;-0.012217304669320583;0.0036651913542300463
01:00:0A:00:00:00:00;1724889880;29/08/24;00:04:40;1.015;-0.03;0.065;0.00855211354792118;-0.010995574295520782;0.0036651913542300463
01:00:0A:00:00:00:00;1724889881;29/08/24;00:04:41;1.016;-0.028;0.065;0.00855211354792118;-0.012217304669320583;0.0036651913542300463
01:00:0A:00:00:00:00;1724889882;29/08/24;00:04:42;1.016;-0.029;0.064;0.00855211354792118;-0.012217304669320583;0.0036651913542300463
01:00:0A:00:00:00:00;1724889883;29/08/24;00:04:43;1.016;-0.028;0.065;0.00855211354792118;-0.010995574295520782;0.0036651913542300463
01:00:0A:00:00:00:00;1724889884;29/08/24;00:04:44;1.016;-0.029;0.064;0.00855211354792118;-0.010995574295520782;0.0036651913542300463
01:00:0A:00:00:00:00;1724889885;29/08/24;00:04:45;1.015;-0.03;0.064;0.00855211354792118;-0.010995574295520782;0.0036651913542300463
01:00:0A:00:00:00:00;1724889886;29/08/24;00:04:46;1.015;-0.028;0.064;0.00855211354792118;-0.010995574295520782;0.0036651913542300463
01:00:0A:00:00:00:00;1724889887;29/08/24;00:04:47;1.015;-0.028;0.065;0.00855211354792118;-0.010995574295520782;0.0036651913542300463
01:00:0A:00:00:00:00;1724889888;29/08/24;00:04:48;1.016;-0.029;0.064;0.00855211354792118;-0.010995574295520782;0.0036651913542300463
01:00:0A:00:00:00:00;1724889889;29/08/24;00:04:49;1.016;-0.029;0.065;0.00855211354792118;-0.012217304669320583;0.0036651913542300463
01:00:0A:00:00:00:00;1724889890;29/08/24;00:04:50;1.016;-0.029;0.064;0.00855211354792118;-0.012217304669320583;0.0036651913542300463
01:00:0A:00:00:00:00;1724889891;29/08/24;00:04:51;1.015;-0.028;0.064;0.00855211354792118;-0.012217304669320583;0.0036651913542300463
01:00:0A:00:00:00:00;1724889892;29/08/24;00:04:52;1.015;-0.029;0.065;0.00855211354792118;-0.010995574295520782;0.0036651913542300463
01:00:0A:00:00:00:00;1724889893;29/08/24;00:04:53;1.015;-0.03;0.064;0.00855211354792118;-0.010995574295520782;0.0036651913542300463
01:00:0A:00:00:00:00;1724889894;29/08/24;00:04:54;1.016;-0.029;0.064;0.009773843921720982;-0.010995574295520782;0.0036651913542300463
01:00:0A:00:00:00:00;1724889895;29/08/24;00:04:55;1.015;-0.028;0.065;0.009773843921720982;-0.012217304669320583;0.0036651913542300463
01:00:0A:00:00:00:00;1724889896;29/08/24;00:04:56;1.015;-0.028;0.064;0.009773843921720982;-0.010995574295520782;0.0036651913542300463
01:00:0A:00:00:00:00;1724889897;29/08/24;00:04:57;1.016;-0.029;0.064;0.009773843921720982;-0.010995574295520782;0.0036651913542300463
01:00:0A:00:00:00:00;1724889898;29/08/24;00:04:58;1.016;-0.029;0.065;0.009773843921720982;-0.010995574295520782;0.0036651913542300463
01:00:0A:00:00:00:00;1724889899;29/08/24;00:04:59;1.015;-0.029;0.064;0.009773843921720982;-0.012217304669320583;0.0036651913542300463
01:00:0A:00:00:00:00;1724889900;29/08/24;00:05:00;1.016;-0.028;0.065;0.009773843921720982;-0.010995574295520782;0.0036651913542300463
01:00:0A:00:00:00:00;1724889901;29/08/24;00:05:01;1.016;-0.029;0.065;0.009773843921720982;-0.010995574295520782;0.0036651913542300463
01:00:0A:00:00:00:00;1724889902;29/08/24;00:05:02;1.015;-0.028;0.065;0.009773843921720982;-0.010995574295520782;0.0036651913542300463
01:00:0A:00:00:00:00;1724889903;29/08/24;00:05:03;1.016;-0.028;0.064;0.009773843921720982;-0.010995574295520782;0.0036651913542300463
01:00:0A:00:00:00:00;1724889904;29/08/24;00:05:04;1.015;-0.028;0.064;0.009773843921720982;-0.010995574295520782;0.0036651913542300463
01:00:0A:00:00:00:00;1724889905;29/08/24;00:05:05;1.015;-0.029;0.065;0.009773843921720982;-0.010995574295520782;0.0036651913542300463
01:00:0A:00:00:00:00;1724889906;29/08/24;00:05:06;1.016;-0.03;0.064;0.009773843921720982;-0.010995574295520782;0.0036651913542300463
01:00:0A:00:00:00:00;1724889907;29/08/24;00:05:07;1.015;-0.027;0.065;0.009773843921720982;-0.010995574295520782;0.0036651913542300463
01:00:0A:00:00:00:00;1724889908;29/08/24;00:05:08;1.015;-0.029;0.065;0.009773843921720982;-0.012217304669320583;0.0036651913542300463
01:00:0A:00:00:00:00;1724889909;29/08/24;00:05:09;1.014;-0.028;0.064;0.009773843921720982;-0.010995574295520782;0.0036651913542300463
01:00:0A:00:00:00:00;1724889910;29/08/24;00:05:10;1.015;-0.028;0.065;0.009773843921720982;-0.012217304669320583;0.0036651913542300463
01:00:0A:00:00:00:00;1724889911;29/08/24;00:05:11;1.014;-0.029;0.065;0.009773843921720982;-0.010995574295520782;0.0036651913542300463
01:00:0A:00:00:00:00;1724889912;29/08/24;00:05:12;1.016;-0.029;0.065;0.009773843921720982;-0.012217304669320583;0.0036651913542300463
01:00:0A:00:00:00:00;1724889913;29/08/24;00:05:13;1.015;-0.028;0.065;0.009773843921720982;-0.012217304669320583;0.0036651913542300463
01:00:0A:00:00:00:00;1724889914;29/08/24;00:05:14;1.016;-0.029;0.065;0.009773843921720982;-0.010995574295520782;0.0036651913542300463
01:00:0A:00:00:00:00;1724889915;29/08/24;00:05:15;1.009;-0.026;0.058;0.014660765416920185;-0.02932153083384037;-0.012217304669320583
01:00:0A:00:00:00:00;1724889916;29/08/24;00:05:16;1.012;0.009;0.099;0.03787364438176155;0.20525071024894714;-0.03420845419168472
01:00:0A:00:00:00:00;1724889917;29/08/24;00:05:17;1.012;-0.005;0.218;-0.05497787147760391;0.10018189996480942;-0.09407324343919754
01:00:0A:00:00:00:00;1724889918;29/08/24;00:05:18;0.99;-0.225;-0.111;-0.02932153083384037;-0.2541199326515198;0.1111774742603302
01:00:0A:00:00:00:00;1724889919;29/08/24;00:05:19;1.02;0.006;0.139;0.2125810980796814;0.48747044801712036;-0.1368338167667389
01:00:0A:00:00:00:00;1724889920;29/08/24;00:05:20;0.998;-0.014;0.066;0.004886921960860491;-0.4960225820541382;-0.02321287989616394
01:00:0A:00:00:00:00;1724889921;29/08/24;00:05:21;0.91;-0.379;0.103;-0.042760565876960754;0.42760565876960754;0.059864792972803116
01:00:0A:00:00:00:00;1724889922;29/08/24;00:05:22;0.946;-0.04;0.477;-0.2626720666885376;-0.42149701714515686;0.2174680233001709
01:00:0A:00:00:00:00;1724889923;29/08/24;00:05:23;0.928;0.087;-0.322;-0.19058994948863983;-0.6829473376274109;-0.2125810980796814
01:00:0A:00:00:00:00;1724889924;29/08/24;00:05:24;0.928;-0.008;0.288;-0.6438519358634949;-0.3836233615875244;1.8154914379119873
01:00:0A:00:00:00:00;1724889925;29/08/24;00:05:25;0.917;0.186;0.366;-0.21624629199504852;0.8979718685150146;-1.5344934463500977
01:00:0A:00:00:00:00;1724889926;29/08/24;00:05:26;0.969;0.053;-0.081;-0.4105014204978943;-0.13561207056045532;0.5253441333770752
01:00:0A:00:00:00:00;1724889927;29/08/24;00:05:27;0.899;-0.167;-0.571;-0.5864306092262268;0.39095374941825867;-0.10018189996480942
01:00:0A:00:00:00:00;1724889928;29/08/24;00:05:28;0.908;0.319;0.36;-0.6658430695533752;-0.010995574295520782;0.039095375686883926
01:00:0A:00:00:00:00;1724889929;29/08/24;00:05:29;0.945;-0.228;-0.222;-1.2400563955307007;0.47769662737846375;1.0128145217895508
01:00:0A:00:00:00:00;1724889930;29/08/24;00:05:30;0.946;-0.395;0.088;-0.778242290019989;0.8087855577468872;-0.4337143301963806
01:00:0A:00:00:00:00;1724889931;29/08/24;00:05:31;1.11;-0.039;0.109;-0.7574728727340698;0.07819075137376785;-0.645073652267456
01:00:0A:00:00:00:00;1724889932;29/08/24;00:05:32;0.94;0.063;0.16;-0.7171557545661926;0.1918116807937622;-0.09407324343919754
01:00:0A:00:00:00:00;1724889933;29/08/24;00:05:33;0.604;0.853;-0.021;0.12095131725072861;-0.8136724829673767;-0.6426302194595337
01:00:0A:00:00:00:00;1724889934;29/08/24;00:05:34;0.985;-0.247;-0.113;-0.4337143301963806;1.166752576828003;1.5308282375335693
01:00:0A:00:00:00:00;1724889935;29/08/24;00:05:35;0.866;-0.56;0.302;-0.16371189057826996;0.09651670604944229;0.09040805697441101
01:00:0A:00:00:00:00;1724889936;29/08/24;00:05:36;1.011;0.257;0.06;-0.16859880089759827;-0.36529743671417236;-0.1673770695924759
01:00:0A:00:00:00:00;1724889937;29/08/24;00:05:37;0.977;-0.453;-0.068;-0.18448130786418915;0.39217546582221985;0.6731734871864319
01:00:0A:00:00:00:00;1724889938;29/08/24;00:05:38;0.939;-0.287;0.384;-0.010995574295520782;-0.04153883829712868;-0.02076941914856434
01:00:0A:00:00:00:00;1724889939;29/08/24;00:05:39;0.906;0.315;0.211;-0.1563815027475357;0.010995574295520782;-0.6035348773002625
01:00:0A:00:00:00:00;1724889940;29/08/24;00:05:40;0.894;0.118;0.451;-0.6902776956558228;-0.39828410744667053;0.42149701714515686
01:00:0A:00:00:00:00;1724889941;29/08/24;00:05:41;0.981;-0.014;-0.146;-0.5656611919403076;-0.6438519358634949;-0.35185837745666504
01:00:0A:00:00:00:00;1724889942;29/08/24;00:05:42;1.053;0.139;0.056;-1.7201964855194092;-0.010995574295520782;0.10262535512447357
01:00:0A:00:00:00:00;1724889943;29/08/24;00:05:43;1.068;-0.19;-0.019;-1.850921630859375;0.2883284091949463;-0.32498031854629517
01:00:0A:00:00:00:00;1724889944;29/08/24;00:05:44;0.854;-0.18;0.618;-1.6982053518295288;0.5045746564865112;-0.2638937830924988
01:00:0A:00:00:00:00;1724889945;29/08/24;00:05:45;0.925;0.453;0.094;-1.6517795324325562;-0.27488934993743896;-0.7367035150527954
01:00:0A:00:00:00:00;1724889946;29/08/24;00:05:46;0.934;-0.284;0.008;-1.8020524978637695;-0.8283332586288452;0.3298672139644623
01:00:0A:00:00:00:00;1724889947;29/08/24;00:05:47;0.88;-0.153;0.412;-1.6273449659347534;0.9798278212547302;-0.8600982427597046
01:00:0A:00:00:00:00;1724889948;29/08/24;00:05:48;1.004;-0.06;0.209;-1.7336355447769165;-0.42149701714515686;-0.5167919993400574
01:00:0A:00:00:00:00;1724889949;29/08/24;00:05:49;1.021;-0.183;0.122;-1.4233160018920898;-0.09285151958465576;0.18936821818351746
01:00:0A:00:00:00:00;1724889950;29/08/24;00:05:50;1.011;0.123;0.23;-1.2009611129760742;0.5204571485519409;0.004886921960860491
01:00:0A:00:00:00:00;1724889951;29/08/24;00:05:51;0.943;-0.326;-0.251;-0.9443976283073425;-0.8552113175392151;0.0708603635430336
01:00:0A:00:00:00:00;1724889952;29/08/24;00:05:52;0.84;-0.169;0.361;-0.7513642311096191;-0.46547931432724;0.32498031854629517
01:00:0A:00:00:00:00;1724889953;29/08/24;00:05:53;0.788;0.109;0.053;1.881464958190918;-0.44715335965156555;-1.1618657112121582
01:00:0A:00:00:00:00;1724889954;29/08/24;00:05:54;0.901;-0.105;0.27;1.1582003831863403;1.3732250928878784;-0.039095375686883926
01:00:0A:00:00:00:00;1724889955;29/08/24;00:05:55;0.944;0.046;0.305;0.19547687470912933;-0.5644394755363464;0.5216788649559021
01:00:0A:00:00:00:00;1724889956;29/08/24;00:05:56;0.948;-0.132;-0.126;0.3799581527709961;-0.161268413066864;-0.3530800938606262
01:00:0A:00:00:00:00;1724889957;29/08/24;00:05:57;0.962;0.032;0.042;0.5949827432632446;0.7831292152404785;-0.2834414541721344
01:00:0A:00:00:00:00;1724889958;29/08/24;00:05:58;0.951;0.006;0.244;0.05742133408784866;-0.3481931686401367;0.48380526900291443
01:00:0A:00:00:00:00;1724889959;29/08/24;00:05:59;1.008;-0.113;-0.038;0.2626720666885376;-0.07452555745840073;-0.598647952079773
01:00:0A:00:00:00:00;1724889960;29/08/24;00:06:00;0.898;0.162;-0.001;-0.04398229718208313;0.2993239760398865;0.7012733221054077
01:00:0A:00:00:00:00;1724889961;29/08/24;00:06:01;0.915;0.05;0.225;-2.285857677459717;0.1258382350206375;-1.0555751323699951
01:00:0A:00:00:00:00;1724889962;29/08/24;00:06:02;0.923;0.112;0.381;-2.3603832721710205;-0.4691444933414459;-1.6969836950302124
01:00:0A:00:00:00:00;1724889963;29/08/24;00:06:03;0.762;-0.672;0.226;-1.7605135440826416;-0.2076941877603531;0.036651913076639175
01:00:0A:00:00:00:00;1724889964;29/08/24;00:06:04;0.946;0.359;0.241;-0.8808676600456238;0.5546656250953674;-0.8026769161224365
01:00:0A:00:00:00:00;1724889965;29/08/24;00:06:05;0.923;0.003;0.363;-1.5491541624069214;-1.0983357429504395;-0.09896016865968704
01:00:0A:00:00:00:00;1724889966;29/08/24;00:06:06;0.698;-0.879;0.274;-0.8393288850784302;0.5839871764183044;0.3078760802745819
01:00:0A:00:00:00:00;1724889967;29/08/24;00:06:07;1.074;0.074;0.189;-0.30054569244384766;-0.2919935882091522;-0.8833111524581909
01:00:0A:00:00:00:00;1724889968;29/08/24;00:06:08;0.921;0.506;0.206;-0.778242290019989;-0.1466076523065567;0.5265658497810364
01:00:0A:00:00:00:00;1724889969;29/08/24;00:06:09;0.917;-0.24;-0.348;-0.41294488310813904;-0.11239919811487198;0.21380282938480377
01:00:0A:00:00:00:00;1724889970;29/08/24;00:06:10;0.987;-0.073;0.357;0.039095375686883926;0.5998696088790894;-0.17104226350784302
01:00:0A:00:00:00:00;1724889971;29/08/24;00:06:11;0.831;-0.378;0.545;-0.1918116807937622;-0.2981022298336029;-0.15271630883216858
01:00:0A:00:00:00:00;1724889972;29/08/24;00:06:12;1.021;0.25;-0.08;-0.2528982162475586;-0.37140607833862305;-0.13439035415649414
01:00:0A:00:00:00:00;1724889973;29/08/24;00:06:13;0.99;-0.288;-0.132;-0.10873401165008545;0.3494149148464203;-0.08674286305904388
01:00:0A:00:00:00:00;1724889974;29/08/24;00:06:14;0.984;0.188;0.098;-0.1270599663257599;-0.03298672288656235;-0.24678954482078552
01:00:0A:00:00:00:00;1724889975;29/08/24;00:06:15;0.887;0.1;0.23;-0.7819074988365173;-1.379333734512329;0.17592918872833252
01:00:0A:00:00:00:00;1724889976;29/08/24;00:06:16;0.819;0.203;-0.105;-0.7672467231750488;-0.04886921867728233;-0.22968533635139465
01:00:0A:00:00:00:00;1724889977;29/08/24;00:06:17;1.007;0.036;-0.137;-1.5931364297866821;-0.5302309989929199;0.6304128766059875
01:00:0A:00:00:00:00;1724889978;29/08/24;00:06:18;0.939;-0.37;-0.007;-0.8417722582817078;0.7538076639175415;-0.6206390857696533
01:00:0A:00:00:00:00;1724889979;29/08/24;00:06:19;0.809;0.547;-0.022;-1.204626202583313;-1.6077972650527954;0.006108652334660292
01:00:0A:00:00:00:00;1724889980;29/08/24;00:06:20;0.742;-0.093;-0.52;-1.2754865884780884;0.006108652334660292;1.0592403411865234
01:00:0A:00:00:00:00;1724889981;29/08/24;00:06:21;0.9;-0.431;0.341;-0.8686503767967224;1.4868459701538086;-0.080634206533432
01:00:0A:00:00:00:00;1724889982;29/08/24;00:06:22;0.974;0.193;0.327;-1.3072515726089478;-0.836885392665863;-0.5363396406173706
01:00:0A:00:00:00:00;1724889983;29/08/24;00:06:23;1.026;0.088;0.022;-2.498438835144043;-0.2822197377681732;0.31031954288482666
01:00:0A:00:00:00:00;1724889984;29/08/24;00:06:24;1.037;0.005;-0.004;-2.2650883197784424;0.15027284622192383;0.5461135506629944
01:00:0A:00:00:00:00;1724889985;29/08/24;00:06:25;0.824;-0.202;-0.345;-1.3610076904296875;0.6291911602020264;1.9083430767059326
01:00:0A:00:00:00:00;1724889986;29/08/24;00:06:26;0.724;-0.342;0.838;-0.8026769161224365;1.880243182182312;-1.470963478088379
01:00:0A:00:00:00:00;1724889987;29/08/24;00:06:27;0.779;0.399;0.639;-1.907121181488037;-1.2034045457839966;-1.4086552858352661
01:00:0A:00:00:00:00;1724889988;29/08/24;00:06:28;0.891;0.365;-0.142;-2.5839600563049316;-0.8234463334083557;0.5461135506629944
01:00:0A:00:00:00:00;1724889989;29/08/24;00:06:29;0.866;0.308;-0.265;-1.9413297176361084;-0.5644394755363464;1.480737328529358
01:00:0A:00:00:00:00;1724889990;29/08/24;00:06:30;0.928;-0.337;-0.063;-1.4098769426345825;1.3170254230499268;0.9224064946174622
01:00:0A:00:00:00:00;1724889991;29/08/24;00:06:31;0.867;-0.436;0.289;-1.197295904159546;0.6914994716644287;-0.6548475623130798
01:00:0A:00:00:00:00;1724889992;29/08/24;00:06:32;0.944;0.06;0.122;-0.7574728727340698;-0.2736676335334778;0.0036651913542300463
01:00:0A:00:00:00:00;1724889993;29/08/24;00:06:33;0.998;-0.25;-0.296;-2.009746551513672;0.12217304855585098;0.48380526900291443
01:00:0A:00:00:00:00;1724889994;29/08/24;00:06:34;1.003;-0.148;0.295;-1.7996090650558472;0.5656611919403076;-0.5155702233314514
01:00:0A:00:00:00:00;1724889995;29/08/24;00:06:35;0.833;-0.092;0.721;-2.040289878845215;0.6218608021736145;-0.7012733221054077
01:00:0A:00:00:00:00;1724889996;29/08/24;00:06:36;0.591;-0.254;0.884;-2.537534236907959;-0.2431243658065796;-2.1343629360198975
01:00:0A:00:00:00:00;1724889997;29/08/24;00:06:37;1.017;0.053;-0.019;-2.621833562850952;-0.7367035150527954;0.18448130786418915
01:00:0A:00:00:00:00;1724889998;29/08/24;00:06:38;0.751;-0.192;-0.643;0.6010913848876953;1.53693687915802;0.21502456068992615
01:00:0A:00:00:00:00;1724889999;29/08/24;00:06:39;0.764;0.341;-0.637;0.028099799528717995;-1.4501941204071045;0.9615018963813782
01:00:0A:00:00:00:00;1724890000;29/08/24;00:06:40;0.862;-0.476;-0.137;0.949284553527832;-0.23335053026676178;-1.0311404466629028
01:00:0A:00:00:00:00;1724890001;29/08/24;00:06:41;0.845;-0.04;0.052;2.0219638347625732;-0.4398229718208313;0.8100073337554932
01:00:0A:00:00:00:00;1724890002;29/08/24;00:06:42;0.836;0.194;0.543;0.9346237778663635;-0.5681046843528748;-1.193630576133728
01:00:0A:00:00:00:00;1724890003;29/08/24;00:06:43;0.871;-0.079;0.659;1.0482447147369385;-0.006108652334660292;1.0030406713485718
01:00:0A:00:00:00:00;1724890004;29/08/24;00:06:44;1.102;0.065;0.005;0.1160643920302391;-0.3604104816913605;-0.4190535545349121
01:00:0A:00:00:00:00;1724890005;29/08/24;00:06:45;0.802;0.401;-0.578;-0.3347541391849518;-0.5412266254425049;0.32498031854629517
01:00:0A:00:00:00:00;1724890006;29/08/24;00:06:46;0.863;0.541;0.354;-0.26145032048225403;0.7721336483955383;-1.940108060836792
01:00:0A:00:00:00:00;1724890007;29/08/24;00:06:47;0.893;-0.009;0.572;-2.689028739929199;1.1472049951553345;0.5192354917526245
01:00:0A:00:00:00:00;1724890008;29/08/24;00:06:48;0.892;-0.181;-0.443;-0.959058403968811;-1.4685200452804565;-0.4483751058578491
01:00:0A:00:00:00:00;1724890009;29/08/24;00:06:49;1.029;0.082;-0.063;0.05375614017248154;0.4080579876899719;-0.5485569834709167
01:00:0A:00:00:00:00;1724890010;29/08/24;00:06:50;1.065;-0.216;-0.066;-0.4447098970413208;0.6291911602020264;0.9065240025520325
01:00:0A:00:00:00:00;1724890011;29/08/24;00:06:51;0.877;0.682;-0.214;-0.3799581527709961;-0.685390830039978;0.07452555745840073
01:00:0A:00:00:00:00;1724890012;29/08/24;00:06:52;0.757;0.407;0.58;-1.0531316995620728;-1.6481143236160278;-0.3677408695220947
01:00:0A:00:00:00:00;1724890013;29/08/24;00:06:53;0.854;-0.612;0.324;-1.204626202583313;1.5931364297866821;0.5998696088790894
01:00:0A:00:00:00:00;1724890014;29/08/24;00:06:54;0.983;-0.009;0.128;-1.0604619979858398;0.15027284622192383;-0.08674286305904388
01:00:0A:00:00:00:00;1724890015;29/08/24;00:06:55;0.948;-0.198;0.199;-1.89979088306427;-0.030543262138962746;0.16371189057826996
01:00:0A:00:00:00:00;1724890016;29/08/24;00:06:56;0.839;0.032;0.576;-0.7953465580940247;-1.1337658166885376;-1.615127682685852
01:00:0A:00:00:00:00;1724890017;29/08/24;00:06:57;0.943;0.267;-0.028;-1.4758504629135132;-0.34086278080940247;0.48380526900291443
01:00:0A:00:00:00:00;1724890018;29/08/24;00:06:58;0.825;-0.388;0.526;-1.1472049951553345;1.3060299158096313;0.28099802136421204
01:00:0A:00:00:00:00;1724890019;29/08/24;00:06:59;0.984;0.352;0.097;-1.1398744583129883;-0.27977627515792847;-0.43249258399009705
01:00:0A:00:00:00:00;1724890020;29/08/24;00:07:00;0.738;-0.31;0.73;-0.7000515460968018;2.509434223175049;0.4801400899887085
01:00:0A:00:00:00:00;1724890021;29/08/24;00:07:01;0.939;0.312;-0.367;-0.9798278212547302;-1.0995573997497559;-0.3701843321323395
01:00:0A:00:00:00:00;1724890022;29/08/24;00:07:02;1.06;0.172;-0.091;-1.1142181158065796;0.06352998316287994;1.0054842233657837
01:00:0A:00:00:00:00;1724890023;29/08/24;00:07:03;0.848;-0.326;-0.298;-0.1918116807937622;-0.4605923891067505;0.24068090319633484
01:00:0A:00:00:00:00;1724890024;29/08/24;00:07:04;0.919;0.081;0.229;0.32009339332580566;0.8442157506942749;-0.2370157092809677
01:00:0A:00:00:00:00;1724890025;29/08/24;00:07:05;0.827;-0.122;0.325;-0.4605923891067505;-1.3720033168792725;0.6536257863044739
01:00:0A:00:00:00:00;1724890026;29/08/24;00:07:06;0.971;0.129;0.003;-0.9456194043159485;0.22357667982578278;0.40683624148368835
01:00:0A:00:00:00:00;1724890027;29/08/24;00:07:07;0.957;-0.449;0.098;-0.42638394236564636;-0.48747044801712036;-0.10995574295520782
01:00:0A:00:00:00:00;1724890028;29/08/24;00:07:08;0.788;-0.726;0.276;3.43672776222229;0.6328563690185547;1.6578881740570068
01:00:0A:00:00:00:00;1724890029;29/08/24;00:07:09;1.009;0.182;0.196;1.852143406867981;-0.6096435189247131;0.96883225440979
01:00:0A:00:00:00:00;1724890030;29/08/24;00:07:10;0.844;-0.122;0.606;1.441641926765442;-0.5143485069274902;-0.5913175940513611
01:00:0A:00:00:00:00;1724890031;29/08/24;00:07:11;0.935;0.084;-0.032;0.014660765416920185;0.6585127115249634;0.8881980776786804
01:00:0A:00:00:00:00;1724890032;29/08/24;00:07:12;0.791;0.568;0.495;-1.3255774974822998;-0.7953465580940247;-0.18448130786418915
01:00:0A:00:00:00:00;1724890033;29/08/24;00:07:13;1.029;0.117;-0.272;-1.3903292417526245;0.46792274713516235;0.40683624148368835
01:00:0A:00:00:00:00;1724890034;29/08/24;00:07:14;0.863;-0.621;0.29;-0.9847148060798645;0.9321803450584412;-0.41172316670417786
01:00:0A:00:00:00:00;1724890035;29/08/24;00:07:15;0.919;0.016;0.465;-0.8906415700912476;-0.7611380815505981;-1.1496483087539673
01:00:0A:00:00:00:00;1724890036;29/08/24;00:07:16;0.909;0.404;-0.003;-1.5015066862106323;-0.5485569834709167;0.294437050819397
01:00:0A:00:00:00:00;1724890037;29/08/24;00:07:17;1.023;-0.091;0.023;-1.6896531581878662;-0.22113320231437683;0.4056144952774048
01:00:0A:00:00:00:00;1724890038;29/08/24;00:07:18;1.01;-0.096;-0.112;-1.1154398918151855;0.2871066629886627;0.16004669666290283
01:00:0A:00:00:00:00;1724890039;29/08/24;00:07:19;0.987;-0.04;-0.224;-0.9957103133201599;0.4251621961593628;0.3066543638706207
01:00:0A:00:00:00:00;1724890040;29/08/24;00:07:20;0.876;-0.124;0.399;-0.9101892113685608;0.616973876953125;-0.014660765416920185
01:00:0A:00:00:00:00;1724890041;29/08/24;00:07:21;0.98;-0.071;0.116;-0.9346237778663635;-0.6719517707824707;-0.891863226890564
01:00:0A:00:00:00:00;1724890042;29/08/24;00:07:22;0.969;0.18;0.128;-1.2327260971069336;-0.1869247555732727;0.48869219422340393
01:00:0A:00:00:00:00;1724890043;29/08/24;00:07:23;0.991;-0.251;-0.14;-0.940732479095459;0.025656338781118393;-0.06719517707824707
01:00:0A:00:00:00:00;1724890044;29/08/24;00:07:24;1.024;-0.051;0.136;-0.5852089524269104;0.36651912331581116;-0.17837265133857727
01:00:0A:00:00:00:00;1724890045;29/08/24;00:07:25;0.996;0.076;0.12;-0.797789990901947;-0.35063666105270386;-0.18936821818351746
01:00:0A:00:00:00:00;1724890046;29/08/24;00:07:26;0.98;0.077;-0.092;-0.9028588533401489;-0.02932153083384037;0.28588491678237915
01:00:0A:00:00:00:00;1724890047;29/08/24;00:07:27;1.006;-0.111;0.164;-0.8796459436416626;0.30543261766433716;0.06475171446800232
01:00:0A:00:00:00:00;1724890048;29/08/24;00:07:28;1.007;-0.163;0.199;-0.7513642311096191;0.006108652334660292;-0.3481931686401367
01:00:0A:00:00:00:00;1724890049;29/08/24;00:07:29;1.018;0.104;0.041;-0.7831292152404785;-0.12828169763088226;-0.09040805697441101
01:00:0A:00:00:00:00;1724890050;29/08/24;00:07:30;1.016;-0.114;-0.04;-0.7367035150527954;-0.12217304855585098;0.2431243658065796
01:00:0A:00:00:00:00;1724890051;29/08/24;00:07:31;1.021;-0.098;0.072;-0.33719760179519653;0.2370157092809677;-0.2687807083129883
01:00:0A:00:00:00:00;1724890052;29/08/24;00:07:32;0.998;0.156;0.129;-0.49724429845809937;-0.12217304855585098;-0.23457224667072296
01:00:0A:00:00:00:00;1724890053;29/08/24;00:07:33;1.003;-0.04;-0.077;-0.6181955933570862;-0.2223549485206604;0.19058994948863983
01:00:0A:00:00:00:00;1724890054;29/08/24;00:07:34;0.984;-0.076;0.094;-0.3885102868080139;0.3738495111465454;-0.14049901068210602
01:00:0A:00:00:00:00;1724890055;29/08/24;00:07:35;0.982;-0.02;0.21;-0.6572909951210022;-0.41783180832862854;-0.19792033731937408
01:00:0A:00:00:00:00;1724890056;29/08/24;00:07:36;1.044;0.017;0.043;-0.7440338730812073;-0.05497787147760391;0.08429940044879913
01:00:0A:00:00:00:00;1724890057;29/08/24;00:07:37;1.025;-0.258;0.136;-0.6352998614311218;0.09529497474431992;-0.021991148591041565
01:00:0A:00:00:00:00;1724890058;29/08/24;00:07:38;1.007;0.081;0.09;-0.5754350423812866;-0.05375614017248154;-0.32131510972976685
01:00:0A:00:00:00:00;1724890059;29/08/24;00:07:39;0.976;-0.039;0.026;-0.7513642311096191;-0.1368338167667389;0.24068090319633484
01:00:0A:00:00:00:00;1724890060;29/08/24;00:07:40;0.99;-0.041;0.058;-0.5253441333770752;0.16493360698223114;-0.27977627515792847
01:00:0A:00:00:00:00;1724890061;29/08/24;00:07:41;1.016;0.041;0.19;-0.7098253965377808;-0.2272418737411499;0.02076941914856434
01:00:0A:00:00:00:00;1724890062;29/08/24;00:07:42;1.037;-0.079;-0.051;-0.645073652267456;-0.05497787147760391;0.028099799528717995
01:00:0A:00:00:00:00;1724890063;29/08/24;00:07:43;1.013;-0.02;0.131;-0.4911356568336487;0.20891590416431427;-0.015882495790719986
01:00:0A:00:00:00:00;1724890064;29/08/24;00:07:44;1.003;-0.017;0.099;-0.5082398653030396;-0.14905111491680145;-0.07819075137376785
01:00:0A:00:00:00:00;1724890065;29/08/24;00:07:45;1.015;0.032;0.012;-0.45204028487205505;-0.018325956538319588;-0.018325956538319588
01:00:0A:00:00:00:00;1724890066;29/08/24;00:07:46;1.018;-0.05;0.133;-0.40194931626319885;0.0708603635430336;-0.015882495790719986
01:00:0A:00:00:00:00;1724890067;29/08/24;00:07:47;1.01;-0.042;0.104;-0.3885102868080139;-0.08674286305904388;-0.09040805697441101
01:00:0A:00:00:00:00;1724890068;29/08/24;00:07:48;0.997;0.006;0.073;-0.3897320330142975;-0.0012217304902151227;0.040317103266716
01:00:0A:00:00:00:00;1724890069;29/08/24;00:07:49;1.003;-0.064;0.108;-0.3579670488834381;-0.030543262138962746;0.018325956538319588
01:00:0A:00:00:00:00;1724890070;29/08/24;00:07:50;1.025;-0.042;0.111;-0.3078760802745819;-0.0354301817715168;-0.09162978082895279
01:00:0A:00:00:00:00;1724890071;29/08/24;00:07:51;1.031;-0.019;0.098;-0.3677408695220947;-0.03420845419168472;0.04642575979232788
01:00:0A:00:00:00:00;1724890072;29/08/24;00:07:52;1.007;-0.073;0.086;-0.35185837745666504;0.025656338781118393;0.059864792972803116
01:00:0A:00:00:00:00;1724890073;29/08/24;00:07:53;0.995;-0.037;0.073;-0.27977627515792847;0.03420845419168472;-0.06230825558304787
01:00:0A:00:00:00:00;1724890074;29/08/24;00:07:54;0.998;-0.017;0.086;-0.28466320037841797;0.0024434609804302454;0.004886921960860491
01:00:0A:00:00:00:00;1724890075;29/08/24;00:07:55;1.012;-0.041;0.101;-0.2785545289516449;-0.02076941914856434;-0.04153883829712868
01:00:0A:00:00:00:00;1724890076;29/08/24;00:07:56;1.03;-0.008;0.106;-0.27977627515792847;0.04398229718208313;-0.07208210229873657
01:00:0A:00:00:00:00;1724890077;29/08/24;00:07:57;1.029;0.024;0.113;-0.36163222789764404;0.010995574295520782;-0.03420845419168472
01:00:0A:00:00:00:00;1724890078;29/08/24;00:07:58;1.028;0.002;0.093;-0.4251621961593628;-0.03298672288656235;-0.051312677562236786
01:00:0A:00:00:00:00;1724890079;29/08/24;00:07:59;1.016;-0.011;0.106;-0.4288274049758911;0.014660765416920185;-0.014660765416920185
01:00:0A:00:00:00:00;1724890080;29/08/24;00:08:00;1.01;-0.017;0.084;0.1258382350206375;0.04398229718208313;0.013439035043120384
01:00:0A:00:00:00:00;1724890081;29/08/24;00:08:01;0.995;-0.006;0.137;0.006108652334660292;-0.02687807008624077;-0.013439035043120384
01:00:0A:00:00:00:00;1724890082;29/08/24;00:08:02;1.006;-0.012;0.087;-0.13805554807186127;-0.08429940044879913;0.05619959905743599
01:00:0A:00:00:00:00;1724890083;29/08/24;00:08:03;1.011;-0.034;0.096;-0.1417207270860672;0.030543262138962746;0.014660765416920185
01:00:0A:00:00:00:00;1724890084;29/08/24;00:08:04;1.002;0.056;0.142;-0.36163222789764404;-0.0036651913542300463;-0.1319468915462494
01:00:0A:00:00:00:00;1724890085;29/08/24;00:08:05;0.994;-0.012;0.202;-0.4691444933414459;0.05619959905743599;0.0659734457731247
01:00:0A:00:00:00:00;1724890086;29/08/24;00:08:06;0.998;-0.062;0.232;-0.08796459436416626;0.042760565876960754;-0.07941248267889023
01:00:0A:00:00:00:00;1724890087;29/08/24;00:08:07;1.006;-0.081;0.195;-0.20402899384498596;-0.12828169763088226;-0.04153883829712868
01:00:0A:00:00:00:00;1724890088;29/08/24;00:08:08;1.013;-0.069;0.121;-0.1722639948129654;-0.02932153083384037;-0.02076941914856434
01:00:0A:00:00:00:00;1724890089;29/08/24;00:08:09;1.016;-0.015;0.096;-0.14782939851284027;-0.03298672288656235;-0.06108652427792549
01:00:0A:00:00:00:00;1724890090;29/08/24;00:08:10;1.017;-0.026;0.069;0.013439035043120384;-0.08307767659425735;0.12461651116609573
01:00:0A:00:00:00:00;1724890091;29/08/24;00:08:11;1.012;-0.043;0.117;0.06475171446800232;0.059864792972803116;-0.05253440886735916
01:00:0A:00:00:00:00;1724890092;29/08/24;00:08:12;1.007;-0.008;0.088;0.1514945775270462;-0.080634206533432;0.04764748737215996
01:00:0A:00:00:00:00;1724890093;29/08/24;00:08:13;1.0;-0.059;0.066;0.16004669666290283;0.02076941914856434;0.013439035043120384
01:00:0A:00:00:00:00;1724890094;29/08/24;00:08:14;0.996;-0.045;0.088;0.2028072476387024;-0.08674286305904388;-0.021991148591041565
01:00:0A:00:00:00:00;1724890095;29/08/24;00:08:15;1.018;-0.033;0.099;0.20036379992961884;0.004886921960860491;0.015882495790719986
01:00:0A:00:00:00:00;1724890096;29/08/24;00:08:16;1.032;-0.034;0.13;0.16371189057826996;-0.02687807008624077;0.03787364438176155
01:00:0A:00:00:00:00;1724890097;29/08/24;00:08:17;1.034;-0.037;0.064;0.16982054710388184;0.0;0.05497787147760391
01:00:0A:00:00:00:00;1724890098;29/08/24;00:08:18;1.008;-0.022;0.09;0.18814648687839508;0.059864792972803116;-0.0036651913542300463
01:00:0A:00:00:00:00;1724890099;29/08/24;00:08:19;0.992;-0.039;0.08;0.1417207270860672;-0.06719517707824707;0.04642575979232788
01:00:0A:00:00:00:00;1724890100;29/08/24;00:08:20;1.006;-0.058;0.081;0.16982054710388184;-0.0073303827084600925;-0.02687807008624077
01:00:0A:00:00:00:00;1724890101;29/08/24;00:08:21;1.025;-0.017;0.097;0.1368338167667389;-0.019547687843441963;0.0354301817715168
01:00:0A:00:00:00:00;1724890102;29/08/24;00:08:22;1.011;-0.039;0.092;0.1160643920302391;-0.015882495790719986;0.051312677562236786
01:00:0A:00:00:00:00;1724890103;29/08/24;00:08:23;0.994;-0.028;0.092;0.1258382350206375;-0.0073303827084600925;-0.015882495790719986
01:00:0A:00:00:00:00;1724890104;29/08/24;00:08:24;0.999;-0.032;0.104;0.10018189996480942;-0.024434609338641167;0.006108652334660292
01:00:0A:00:00:00:00;1724890105;29/08/24;00:08:25;1.019;-0.037;0.099;0.08674286305904388;-0.02076941914856434;-0.006108652334660292
01:00:0A:00:00:00:00;1724890106;29/08/24;00:08:26;1.034;-0.031;0.097;0.0757472887635231;-0.006108652334660292;-0.004886921960860491
01:00:0A:00:00:00:00;1724890107;29/08/24;00:08:27;1.02;-0.035;0.093;0.06719517707824707;0.006108652334660292;-0.004886921960860491
01:00:0A:00:00:00:00;1724890108;29/08/24;00:08:28;0.998;-0.05;0.103;0.05619959905743599;-0.010995574295520782;0.018325956538319588
01:00:0A:00:00:00:00;1724890109;29/08/24;00:08:29;1.001;-0.039;0.098;0.05497787147760391;-0.03420845419168472;-0.012217304669320583
01:00:0A:00:00:00:00;1724890110;29/08/24;00:08:30;1.02;-0.024;0.087;0.04764748737215996;0.0012217304902151227;0.018325956538319588
01:00:0A:00:00:00:00;1724890111;29/08/24;00:08:31;1.02;-0.04;0.105;0.039095375686883926;0.0024434609804302454;0.019547687843441963
01:00:0A:00:00:00:00;1724890112;29/08/24;00:08:32;1.013;-0.024;0.097;0.0354301817715168;-0.00855211354792118;0.0036651913542300463
01:00:0A:00:00:00:00;1724890113;29/08/24;00:08:33;1.01;-0.018;0.099;0.021991148591041565;-0.004886921960860491;0.0073303827084600925
01:00:0A:00:00:00:00;1724890114;29/08/24;00:08:34;1.015;-0.031;0.086;0.018325956538319588;-0.0024434609804302454;0.0012217304902151227
01:00:0A:00:00:00:00;1724890115;29/08/24;00:08:35;1.01;-0.028;0.098;0.009773843921720982;-0.018325956538319588;0.0
01:00:0A:00:00:00:00;1724890116;29/08/24;00:08:36;0.994;-0.028;0.091;0.004886921960860491;-0.0024434609804302454;0.012217304669320583
01:00:0A:00:00:00:00;1724890117;29/08/24;00:08:37;0.99;-0.026;0.092;0.0;-0.04764748737215996;-0.014660765416920185
01:00:0A:00:00:00:00;1724890118;29/08/24;00:08:38;1.01;-0.032;0.085;0.0012217304902151227;-0.042760565876960754;-0.01710422709584236
01:00:0A:00:00:00:00;1724890119;29/08/24;00:08:39;1.041;-0.04;0.105;-0.004886921960860491;-0.024434609338641167;0.009773843921720982
01:00:0A:00:00:00:00;1724890120;29/08/24;00:08:40;1.032;-0.03;0.095;-0.009773843921720982;-0.00855211354792118;0.02321287989616394
01:00:0A:00:00:00:00;1724890121;29/08/24;00:08:41;1.006;-0.032;0.091;-0.013439035043120384;0.02076941914856434;0.02076941914856434
01:00:0A:00:00:00:00;1724890122;29/08/24;00:08:42;0.992;-0.03;0.073;-0.018325956538319588;-0.051312677562236786;-0.0073303827084600925
01:00:0A:00:00:00:00;1724890123;29/08/24;00:08:43;1.003;-0.032;0.088;-0.004886921960860491;-0.02076941914856434;-0.010995574295520782
01:00:0A:00:00:00:00;1724890124;29/08/24;00:08:44;1.02;-0.034;0.109;-0.013439035043120384;-0.03298672288656235;0.0012217304902151227
01:00:0A:00:00:00:00;1724890125;29/08/24;00:08:45;1.014;-0.035;0.09;-0.004886921960860491;0.02321287989616394;0.012217304669320583
01:00:0A:00:00:00:00;1724890126;29/08/24;00:08:46;1.001;-0.032;0.072;0.0073303827084600925;0.018325956538319588;0.0
01:00:0A:00:00:00:00;1724890127;29/08/24;00:08:47;1.001;-0.032;0.081;0.006108652334660292;-0.021991148591041565;0.0024434609804302454
01:00:0A:00:00:00:00;1724890128;29/08/24;00:08:48;1.021;-0.041;0.083;0.009773843921720982;-0.06108652427792549;-0.014660765416920185
01:00:0A:00:00:00:00;1724890129;29/08/24;00:08:49;1.025;-0.038;0.103;0.019547687843441963;-0.021991148591041565;-0.013439035043120384
01:00:0A:00:00:00:00;1724890130;29/08/24;00:08:50;1.019;-0.038;0.101;0.009773843921720982;0.012217304669320583;0.024434609338641167
01:00:0A:00:00:00:00;1724890131;29/08/24;00:08:51;1.012;-0.03;0.081;0.009773843921720982;-0.0012217304902151227;0.013439035043120384
01:00:0A:00:00:00:00;1724890132;29/08/24;00:08:52;1.01;-0.027;0.087;0.012217304669320583;-0.012217304669320583;-0.004886921960860491
01:00:0A:00:00:00:00;1724890133;29/08/24;00:08:53;1.008;-0.028;0.096;0.0036651913542300463;-0.01710422709584236;0.006108652334660292
01:00:0A:00:00:00:00;1724890134;29/08/24;00:08:54;1.009;-0.028;0.097;-0.0012217304902151227;-0.012217304669320583;0.00855211354792118
01:00:0A:00:00:00:00;1724890135;29/08/24;00:08:55;1.012;-0.024;0.08;0.0024434609804302454;0.0012217304902151227;-0.0012217304902151227
01:00:0A:00:00:00:00;1724890136;29/08/24;00:08:56;1.013;-0.028;0.086;-0.0024434609804302454;-0.02076941914856434;-0.014660765416920185
01:00:0A:00:00:00:00;1724890137;29/08/24;00:08:57;1.017;-0.038;0.083;-0.010995574295520782;-0.028099799528717995;0.014660765416920185
01:00:0A:00:00:00:00;1724890138;29/08/24;00:08:58;1.016;-0.036;0.093;-0.00855211354792118;-0.010995574295520782;0.014660765416920185
01:00:0A:00:00:00:00;1724890139;29/08/24;00:08:59;1.016;-0.028;0.089;-0.013439035043120384;-0.012217304669320583;0.014660765416920185
01:00:0A:00:00:00:00;1724890140;29/08/24;00:09:00;1.015;-0.026;0.084;-0.013439035043120384;-0.01710422709584236;0.004886921960860491
01:00:0A:00:00:00:00;1724890141;29/08/24;00:09:01;1.016;-0.029;0.088;-0.0073303827084600925;-0.02321287989616394;-0.014660765416920185
01:00:0A:00:00:00:00;1724890142;29/08/24;00:09:02;1.02;-0.027;0.097;-0.013439035043120384;-0.006108652334660292;0.012217304669320583
01:00:0A:00:00:00:00;1724890143;29/08/24;00:09:03;1.019;-0.036;0.09;-0.004886921960860491;0.004886921960860491;-0.0073303827084600925
01:00:0A:00:00:00:00;1724890144;29/08/24;00:09:04;1.016;-0.029;0.085;-0.00855211354792118;0.010995574295520782;0.00855211354792118
01:00:0A:00:00:00:00;1724890145;29/08/24;00:09:05;1.011;-0.032;0.08;-0.01710422709584236;-0.024434609338641167;0.010995574295520782
01:00:0A:00:00:00:00;1724890146;29/08/24;00:09:06;1.006;-0.026;0.09;-0.013439035043120384;-0.01710422709584236;-0.006108652334660292
01:00:0A:00:00:00:00;1724890147;29/08/24;00:09:07;1.012;-0.028;0.099;-0.019547687843441963;-0.012217304669320583;-0.0036651913542300463
01:00:0A:00:00:00:00;1724890148;29/08/24;00:09:08;1.016;-0.031;0.09;-0.02321287989616394;-0.0073303827084600925;0.006108652334660292
01:00:0A:00:00:00:00;1724890149;29/08/24;00:09:09;1.019;-0.022;0.095;-0.02932153083384037;-0.006108652334660292;0.004886921960860491
01:00:0A:00:00:00:00;1724890150;29/08/24;00:09:10;1.022;-0.029;0.089;-0.02932153083384037;-0.00855211354792118;-0.0036651913542300463
01:00:0A:00:00:00:00;1724890151;29/08/24;00:09:11;1.014;0.013;0.111;-0.051312677562236786;0.06352998316287994;-0.1563815027475357
01:00:0A:00:00:00:00;1724890152;29/08/24;00:09:12;0.999;0.079;0.16;-0.2565633952617645;0.015882495790719986;-0.04886921867728233
01:00:0A:00:00:00:00;1724890153;29/08/24;00:09:13;1.0;0.021;0.17;-0.46181410551071167;-0.05864306166768074;0.006108652334660292
01:00:0A:00:00:00:00;1724890154;29/08/24;00:09:14;1.016;-0.038;0.1;-0.5045746564865112;-0.09651670604944229;-0.03420845419168472
01:00:0A:00:00:00:00;1724890155;29/08/24;00:09:15;1.021;-0.018;0.065;-0.4508185386657715;0.02932153083384037;-0.03420845419168472
01:00:0A:00:00:00:00;1724890156;29/08/24;00:09:16;1.011;-0.04;0.13;-0.445931613445282;0.02687807008624077;0.01710422709584236
01:00:0A:00:00:00:00;1724890157;29/08/24;00:09:17;1.009;-0.03;0.085;-0.4153883755207062;-0.05009094998240471;-0.08185594528913498
01:00:0A:00:00:00:00;1724890158;29/08/24;00:09:18;1.008;-0.011;0.099;-0.41172316670417786;0.02321287989616394;0.0024434609804302454
01:00:0A:00:00:00:00;1724890159;29/08/24;00:09:19;1.01;-0.057;0.094;-0.3897320330142975;-0.02076941914856434;-0.01710422709584236
01:00:0A:00:00:00:00;1724890160;29/08/24;00:09:20;1.014;-0.061;0.055;-0.29077184200286865;-0.03298672288656235;-0.024434609338641167
01:00:0A:00:00:00:00;1724890161;29/08/24;00:09:21;1.015;-0.05;0.052;-0.16859880089759827;0.00855211354792118;-0.024434609338641167
01:00:0A:00:00:00:00;1724890162;29/08/24;00:09:22;1.019;-0.038;0.106;-0.1319468915462494;0.021991148591041565;-0.015882495790719986
01:00:0A:00:00:00:00;1724890163;29/08/24;00:09:23;1.022;-0.025;0.098;-0.15393804013729095;-0.03420845419168472;0.0012217304902151227
01:00:0A:00:00:00:00;1724890164;29/08/24;00:09:24;1.017;-0.031;0.073;-0.14416420459747314;-0.0073303827084600925;0.01710422709584236
01:00:0A:00:00:00:00;1724890165;29/08/24;00:09:25;1.006;-0.028;0.098;-0.12095131725072861;0.03298672288656235;-0.01710422709584236
01:00:0A:00:00:00:00;1724890166;29/08/24;00:09:26;1.001;-0.029;0.092;-0.13561207056045532;-0.039095375686883926;-0.006108652334660292
01:00:0A:00:00:00:00;1724890167;29/08/24;00:09:27;1.007;-0.027;0.075;-0.11850785464048386;-0.013439035043120384;-0.01710422709584236
01:00:0A:00:00:00:00;1724890168;29/08/24;00:09:28;1.015;-0.029;0.097;-0.11484266817569733;-0.015882495790719986;-0.010995574295520782
01:00:0A:00:00:00:00;1724890169;29/08/24;00:09:29;1.021;-0.029;0.09;-0.11239919811487198;-0.012217304669320583;-0.015882495790719986
01:00:0A:00:00:00:00;1724890170;29/08/24;00:09:30;1.016;-0.026;0.083;-0.10995574295520782;-0.0012217304902151227;0.0
01:00:0A:00:00:00:00;1724890171;29/08/24;00:09:31;1.014;-0.032;0.087;-0.10751228034496307;-0.01710422709584236;-0.006108652334660292
01:00:0A:00:00:00:00;1724890172;29/08/24;00:09:32;1.018;-0.025;0.091;-0.10751228034496307;-0.028099799528717995;-0.0073303827084600925
01:00:0A:00:00:00:00;1724890173;29/08/24;00:09:33;1.021;-0.027;0.091;-0.10262535512447357;0.0;0.0036651913542300463
01:00:0A:00:00:00:00;1724890174;29/08/24;00:09:34;1.011;-0.033;0.096;-0.10018189996480942;0.00855211354792118;0.0036651913542300463
01:00:0A:00:00:00:00;1724890175;29/08/24;00:09:35;1.006;-0.025;0.083;-0.10262535512447357;-0.013439035043120384;-0.004886921960860491
01:00:0A:00:00:00:00;1724890176;29/08/24;00:09:36;1.009;-0.025;0.088;-0.10262535512447357;-0.009773843921720982;0.0
01:00:0A:00:00:00:00;1724890177;29/08/24;00:09:37;1.015;-0.027;0.093;-0.10506881773471832;-0.021991148591041565;-0.0073303827084600925
01:00:0A:00:00:00:00;1724890178;29/08/24;00:09:38;1.016;-0.024;0.094;-0.10506881773471832;-0.009773843921720982;-0.006108652334660292
01:00:0A:00:00:00:00;1724890179;29/08/24;00:09:39;1.013;-0.025;0.09;-0.10751228034496307;-0.004886921960860491;-0.0036651913542300463
01:00:0A:00:00:00:00;1724890180;29/08/24;00:09:40;1.014;-0.029;0.094;-0.10873401165008545;-0.013439035043120384;-0.0073303827084600925
01:00:0A:00:00:00:00;1724890181;29/08/24;00:09:41;1.018;-0.03;0.092;-0.10995574295520782;-0.025656338781118393;-0.00855211354792118
01:00:0A:00:00:00:00;1724890182;29/08/24;00:09:42;1.022;-0.026;0.096;-0.10873401165008545;0.0024434609804302454;0.006108652334660292
01:00:0A:00:00:00:00;1724890183;29/08/24;00:09:43;1.014;-0.033;0.094;-0.10873401165008545;-0.004886921960860491;0.004886921960860491
01:00:0A:00:00:00:00;1724890184;29/08/24;00:09:44;1.006;-0.026;0.087;-0.10018189996480942;-0.004886921960860491;-0.010995574295520782
01:00:0A:00:00:00:00;1724890185;29/08/24;00:09:45;1.005;-0.027;0.09;-0.1014036238193512;-0.021991148591041565;-0.009773843921720982
01:00:0A:00:00:00:00;1724890186;29/08/24;00:09:46;1.013;-0.032;0.089;-0.09651670604944229;-0.019547687843441963;-0.0073303827084600925
01:00:0A:00:00:00:00;1724890187;29/08/24;00:09:47;1.02;-0.032;0.098;-0.09162978082895279;-0.014660765416920185;-0.009773843921720982
01:00:0A:00:00:00:00;1724890188;29/08/24;00:09:48;1.016;-0.024;0.089;-0.09285151958465576;-0.009773843921720982;0.009773843921720982
01:00:0A:00:00:00:00;1724890189;29/08/24;00:09:49;1.011;-0.031;0.092;-0.08307767659425735;0.0;-0.006108652334660292
01:00:0A:00:00:00:00;1724890190;29/08/24;00:09:50;1.014;-0.026;0.095;-0.08429940044879913;-0.015882495790719986;-0.00855211354792118
01:00:0A:00:00:00:00;1724890191;29/08/24;00:09:51;1.02;-0.03;0.09;-0.08429940044879913;-0.0073303827084600925;0.0012217304902151227
01:00:0A:00:00:00:00;1724890192;29/08/24;00:09:52;1.016;-0.028;0.095;-0.08185594528913498;-0.0012217304902151227;0.0
01:00:0A:00:00:00:00;1724890193;29/08/24;00:09:53;1.01;-0.031;0.086;-0.080634206533432;-0.014660765416920185;0.0
01:00:0A:00:00:00:00;1724890194;29/08/24;00:09:54;1.007;-0.024;0.09;-0.0757472887635231;-0.00855211354792118;-0.004886921960860491
01:00:0A:00:00:00:00;1724890195;29/08/24;00:09:55;1.012;-0.032;0.093;-0.07941248267889023;-0.02321287989616394;0.0012217304902151227
01:00:0A:00:00:00:00;1724890196;29/08/24;00:09:56;1.014;-0.027;0.093;-0.0708603635430336;-0.009773843921720982;-0.00855211354792118
01:00:0A:00:00:00:00;1724890197;29/08/24;00:09:57;1.013;-0.031;0.092;-0.07208210229873657;-0.004886921960860491;0.004886921960860491
01:00:0A:00:00:00:00;1724890198;29/08/24;00:09:58;1.011;-0.026;0.086;-0.06841690838336945;-0.013439035043120384;-0.006108652334660292
01:00:0A:00:00:00:00;1724890199;29/08/24;00:09:59;1.013;-0.032;0.091;-0.06719517707824707;-0.018325956538319588;0.0
01:00:0A:00:00:00:00;1724890200;29/08/24;00:10:00;1.018;-0.03;0.095;-0.06352998316287994;-0.012217304669320583;-0.0024434609804302454
01:00:0A:00:00:00:00;1724890201;29/08/24;00:10:01;1.019;-0.031;0.092;-0.06352998316287994;-0.006108652334660292;0.00855211354792118
01:00:0A:00:00:00:00;1724890202;29/08/24;00:10:02;1.012;-0.028;0.088;-0.05864306166768074;-0.004886921960860491;0.0
01:00:0A:00:00:00:00;1724890203;29/08/24;00:10:03;1.007;-0.025;0.087;-0.05864306166768074;-0.018325956538319588;0.0024434609804302454
01:00:0A:00:00:00:00;1724890204;29/08/24;00:10:04;1.012;-0.033;0.089;-0.05375614017248154;-0.014660765416920185;-0.004886921960860491
01:00:0A:00:00:00:00;1724890205;29/08/24;00:10:05;1.016;-0.029;0.091;-0.05375614017248154;-0.018325956538319588;-0.004886921960860491
01:00:0A:00:00:00:00;1724890206;29/08/24;00:10:06;1.016;-0.032;0.088;-0.05009094998240471;-0.0073303827084600925;-0.0012217304902151227
01:00:0A:00:00:00:00;1724890207;29/08/24;00:10:07;1.013;-0.032;0.092;-0.05009094998240471;-0.013439035043120384;0.0024434609804302454
01:00:0A:00:00:00:00;1724890208;29/08/24;00:10:08;1.013;-0.031;0.087;-0.04886921867728233;-0.009773843921720982;0.004886921960860491
01:00:0A:00:00:00:00;1724890209;29/08/24;00:10:09;1.016;-0.03;0.092;-0.04764748737215996;-0.013439035043120384;0.0
01:00:0A:00:00:00:00;1724890210;29/08/24;00:10:10;1.016;-0.028;0.088;-0.045204028487205505;-0.010995574295520782;-0.0036651913542300463
01:00:0A:00:00:00:00;1724890211;29/08/24;00:10:11;1.013;-0.03;0.09;-0.04642575979232788;-0.0073303827084600925;0.0024434609804302454
01:00:0A:00:00:00:00;1724890212;29/08/24;00:10:12;1.014;-0.029;0.088;-0.045204028487205505;-0.015882495790719986;-0.0036651913542300463
01:00:0A:00:00:00:00;1724890213;29/08/24;00:10:13;1.015;-0.03;0.089;-0.045204028487205505;-0.006108652334660292;0.0012217304902151227
01:00:0A:00:00:00:00;1724890214;29/08/24;00:10:14;1.014;-0.031;0.09;-0.045204028487205505;-0.014660765416920185;-0.0012217304902151227
01:00:0A:00:00:00:00;1724890215;29/08/24;00:10:15;1.013;-0.028;0.088;-0.04398229718208313;-0.0036651913542300463;0.0012217304902151227
01:00:0A:00:00:00:00;1724890216;29/08/24;00:10:16;1.012;-0.031;0.088;-0.04642575979232788;-0.018325956538319588;0.0024434609804302454
01:00:0A:00:00:00:00;1724890217;29/08/24;00:10:17;1.014;-0.029;0.091;-0.04153883829712868;-0.006108652334660292;-0.004886921960860491
01:00:0A:00:00:00:00;1724890218;29/08/24;00:10:18;1.016;-0.031;0.09;-0.045204028487205505;-0.013439035043120384;0.004886921960860491
01:00:0A:00:00:00:00;1724890219;29/08/24;00:10:19;1.015;-0.03;0.091;-0.042760565876960754;-0.0036651913542300463;0.004886921960860491
01:00:0A:00:00:00:00;1724890220;29/08/24;00:10:20;1.013;-0.028;0.089;-0.04398229718208313;-0.012217304669320583;0.0024434609804302454
01:00:0A:00:00:00:00;1724890221;29/08/24;00:10:21;1.015;-0.029;0.088;-0.04398229718208313;-0.009773843921720982;0.0
01:00:0A:00:00:00:00;1724890222;29/08/24;00:10:22;1.016;-0.029;0.092;-0.04398229718208313;-0.013439035043120384;-0.0012217304902151227
01:00:0A:00:00:00:00;1724890223;29/08/24;00:10:23;1.016;-0.03;0.088;-0.04398229718208313;-0.0073303827084600925;0.0036651913542300463
01:00:0A:00:00:00:00;1724890224;29/08/24;00:10:24;1.015;-0.03;0.093;-0.042760565876960754;-0.00855211354792118;-0.0036651913542300463
01:00:0A:00:00:00:00;1724890225;29/08/24;00:10:25;1.015;-0.029;0.086;-0.045204028487205505;-0.012217304669320583;0.004886921960860491
01:00:0A:00:00:00:00;1724890226;29/08/24;00:10:26;1.014;-0.032;0.093;-0.04398229718208313;-0.010995574295520782;0.0012217304902151227
01:00:0A:00:00:00:00;1724890227;29/08/24;00:10:27;1.012;-0.026;0.088;-0.04398229718208313;-0.009773843921720982;0.0012217304902151227
01:00:0A:00:00:00:00;1724890228;29/08/24;00:10:28;1.012;-0.032;0.09;-0.045204028487205505;-0.013439035043120384;-0.0012217304902151227
01:00:0A:00:00:00:00;1724890229;29/08/24;00:10:29;1.013;-0.027;0.088;-0.04398229718208313;-0.010995574295520782;-0.0036651913542300463
01:00:0A:00:00:00:00;1724890230;29/08/24;00:10:30;1.016;-0.031;0.091;-0.045204028487205505;-0.014660765416920185;0.0012217304902151227
01:00:0A:00:00:00:00;1724890231;29/08/24;00:10:31;1.017;-0.029;0.09;-0.042760565876960754;-0.00855211354792118;-0.0024434609804302454
01:00:0A:00:00:00:00;1724890232;29/08/24;00:10:32;1.014;-0.03;0.09;-0.042760565876960754;-0.004886921960860491;0.0024434609804302454
01:00:0A:00:00:00:00;1724890233;29/08/24;00:10:33;1.013;-0.027;0.088;-0.04153883829712868;-0.012217304669320583;-0.0012217304902151227
01:00:0A:00:00:00:00;1724890234;29/08/24;00:10:34;1.013;-0.027;0.09;-0.040317103266716;-0.009773843921720982;0.0
01:00:0A:00:00:00:00;1724890235;29/08/24;00:10:35;1.016;-0.029;0.09;-0.040317103266716;-0.013439035043120384;-0.0036651913542300463
01:00:0A:00:00:00:00;1724890236;29/08/24;00:10:36;1.016;-0.029;0.089;-0.040317103266716;-0.004886921960860491;0.006108652334660292
01:00:0A:00:00:00:00;1724890237;29/08/24;00:10:37;1.013;-0.027;0.088;-0.040317103266716;-0.012217304669320583;0.0012217304902151227
01:00:0A:00:00:00:00;1724890238;29/08/24;00:10:38;1.009;-0.028;0.09;-0.040317103266716;-0.009773843921720982;0.0036651913542300463
01:00:0A:00:00:00:00;1724890239;29/08/24;00:10:39;1.013;-0.028;0.089;-0.039095375686883926;-0.01710422709584236;-0.00855211354792118
01:00:0A:00:00:00:00;1724890240;29/08/24;00:10:40;1.016;-0.03;0.09;-0.040317103266716;-0.012217304669320583;0.0012217304902151227
01:00:0A:00:00:00:00;1724890241;29/08/24;00:10:41;1.016;-0.029;0.092;-0.039095375686883926;-0.0073303827084600925;0.0012217304902151227
01:00:0A:00:00:00:00;1724890242;29/08/24;00:10:42;1.014;-0.028;0.09;-0.03787364438176155;-0.009773843921720982;0.0
01:00:0A:00:00:00:00;1724890243;29/08/24;00:10:43;1.013;-0.029;0.087;-0.03787364438176155;-0.009773843921720982;0.0012217304902151227
01:00:0A:00:00:00:00;1724890244;29/08/24;00:10:44;1.015;-0.028;0.089;-0.03787364438176155;-0.012217304669320583;0.0012217304902151227
01:00:0A:00:00:00:00;1724890245;29/08/24;00:10:45;1.015;-0.03;0.088;-0.036651913076639175;-0.010995574295520782;0.0024434609804302454
01:00:0A:00:00:00:00;1724890246;29/08/24;00:10:46;1.012;-0.026;0.089;-0.0354301817715168;-0.0073303827084600925;-0.0012217304902151227
01:00:0A:00:00:00:00;1724890247;29/08/24;00:10:47;1.011;-0.031;0.087;-0.036651913076639175;-0.013439035043120384;0.0036651913542300463
01:00:0A:00:00:00:00;1724890248;29/08/24;00:10:48;1.013;-0.026;0.089;-0.03420845419168472;-0.015882495790719986;-0.0036651913542300463
01:00:0A:00:00:00:00;1724890249;29/08/24;00:10:49;1.016;-0.029;0.09;-0.0354301817715168;-0.012217304669320583;0.0012217304902151227
01:00:0A:00:00:00:00;1724890250;29/08/24;00:10:50;1.015;-0.028;0.09;-0.03420845419168472;-0.00855211354792118;0.0012217304902151227
01:00:0A:00:00:00:00;1724890251;29/08/24;00:10:51;1.013;-0.029;0.09;-0.03420845419168472;-0.009773843921720982;-0.0012217304902151227
01:00:0A:00:00:00:00;1724890252;29/08/24;00:10:52;1.014;-0.029;0.089;-0.03420845419168472;-0.012217304669320583;0.0012217304902151227
01:00:0A:00:00:00:00;1724890253;29/08/24;00:10:53;1.016;-0.029;0.091;-0.036651913076639175;-0.012217304669320583;0.0073303827084600925
01:00:0A:00:00:00:00;1724890254;29/08/24;00:10:54;1.016;-0.028;0.09;-0.03298672288656235;-0.00855211354792118;-0.0024434609804302454
01:00:0A:00:00:00:00;1724890255;29/08/24;00:10:55;1.013;-0.026;0.089;-0.03420845419168472;-0.0073303827084600925;0.0036651913542300463
01:00:0A:00:00:00:00;1724890256;29/08/24;00:10:56;1.008;-0.032;0.089;-0.03298672288656235;-0.010995574295520782;-0.0024434609804302454
01:00:0A:00:00:00:00;1724890257;29/08/24;00:10:57;1.012;-0.029;0.089;-0.0354301817715168;-0.01710422709584236;0.004886921960860491
01:00:0A:00:00:00:00;1724890258;29/08/24;00:10:58;1.016;-0.029;0.091;-0.03176499158143997;-0.012217304669320583;-0.0036651913542300463
01:00:0A:00:00:00:00;1724890259;29/08/24;00:10:59;1.017;-0.027;0.091;-0.03420845419168472;-0.010995574295520782;0.004886921960860491
01:00:0A:00:00:00:00;1724890260;29/08/24;00:11:00;1.015;-0.031;0.088;-0.02932153083384037;-0.004886921960860491;-0.0036651913542300463
01:00:0A:00:00:00:00;1724890261;29/08/24;00:11:01;1.013;-0.029;0.088;-0.03176499158143997;-0.010995574295520782;0.0024434609804302454
01:00:0A:00:00:00:00;1724890262;29/08/24;00:11:02;1.011;-0.03;0.089;-0.03176499158143997;-0.014660765416920185;0.006108652334660292
01:00:0A:00:00:00:00;1724890263;29/08/24;00:11:03;1.015;-0.027;0.091;-0.030543262138962746;-0.009773843921720982;0.0
01:00:0A:00:00:00:00;1724890264;29/08/24;00:11:04;1.015;-0.03;0.089;-0.02932153083384037;-0.0073303827084600925;0.0
01:00:0A:00:00:00:00;1724890265;29/08/24;00:11:05;1.013;-0.027;0.09;-0.02932153083384037;-0.00855211354792118;-0.0012217304902151227
01:00:0A:00:00:00:00;1724890266;29/08/24;00:11:06;1.014;-0.031;0.088;-0.03176499158143997;-0.015882495790719986;0.0036651913542300463
01:00:0A:00:00:00:00;1724890267;29/08/24;00:11:07;1.014;-0.027;0.091;-0.030543262138962746;-0.012217304669320583;0.0012217304902151227
01:00:0A:00:00:00:00;1724890268;29/08/24;00:11:08;1.016;-0.03;0.09;-0.03176499158143997;-0.012217304669320583;0.0024434609804302454
01:00:0A:00:00:00:00;1724890269;29/08/24;00:11:09;1.014;-0.027;0.091;-0.02932153083384037;-0.00855211354792118;-0.0012217304902151227
01:00:0A:00:00:00:00;1724890270;29/08/24;00:11:10;1.015;-0.031;0.089;-0.03176499158143997;-0.012217304669320583;0.0024434609804302454
01:00:0A:00:00:00:00;1724890271;29/08/24;00:11:11;1.015;-0.029;0.091;-0.03298672288656235;-0.014660765416920185;0.004886921960860491
01:00:0A:00:00:00:00;1724890272;29/08/24;00:11:12;1.015;-0.028;0.092;-0.03176499158143997;-0.00855211354792118;0.0012217304902151227
01:00:0A:00:00:00:00;1724890273;29/08/24;00:11:13;1.015;-0.027;0.09;-0.03176499158143997;-0.0073303827084600925;-0.0012217304902151227
01:00:0A:00:00:00:00;1724890274;29/08/24;00:11:14;1.014;-0.029;0.089;-0.03298672288656235;-0.010995574295520782;0.0024434609804302454
01:00:0A:00:00:00:00;1724890275;29/08/24;00:11:15;1.016;-0.03;0.087;-0.03298672288656235;-0.013439035043120384;0.0024434609804302454
01:00:0A:00:00:00:00;1724890276;29/08/24;00:11:16;1.014;-0.028;0.091;-0.03420845419168472;-0.01710422709584236;0.0024434609804302454
01:00:0A:00:00:00:00;1724890277;29/08/24;00:11:17;1.013;-0.029;0.092;-0.03298672288656235;-0.00855211354792118;-0.0012217304902151227
01:00:0A:00:00:00:00;1724890278;29/08/24;00:11:18;1.015;-0.029;0.092;-0.03298672288656235;-0.00855211354792118;0.0
01:00:0A:00:00:00:00;1724890279;29/08/24;00:11:19;1.015;-0.029;0.087;-0.03298672288656235;-0.00855211354792118;0.0012217304902151227
01:00:0A:00:00:00:00;1724890280;29/08/24;00:11:20;1.015;-0.028;0.09;-0.03298672288656235;-0.014660765416920185;0.0012217304902151227
01:00:0A:00:00:00:00;1724890281;29/08/24;00:11:21;1.015;-0.029;0.09;-0.030543262138962746;-0.010995574295520782;0.0
01:00:0A:00:00:00:00;1724890282;29/08/24;00:11:22;1.015;-0.028;0.09;-0.02932153083384037;-0.00855211354792118;0.0012217304902151227
01:00:0A:00:00:00:00;1724890283;29/08/24;00:11:23;1.014;-0.029;0.09;-0.02932153083384037;-0.010995574295520782;0.0
01:00:0A:00:00:00:00;1724890284;29/08/24;00:11:24;1.014;-0.028;0.089;-0.02687807008624077;-0.00855211354792118;0.0012217304902151227
01:00:0A:00:00:00:00;1724890285;29/08/24;00:11:25;1.013;-0.031;0.089;-0.025656338781118393;-0.014660765416920185;0.0024434609804302454
01:00:0A:00:00:00:00;1724890286;29/08/24;00:11:26;1.014;-0.028;0.091;-0.02321287989616394;-0.00855211354792118;0.0012217304902151227
01:00:0A:00:00:00:00;1724890287;29/08/24;00:11:27;1.015;-0.029;0.088;-0.021991148591041565;-0.013439035043120384;0.0012217304902151227
01:00:0A:00:00:00:00;1724890288;29/08/24;00:11:28;1.014;-0.029;0.091;-0.019547687843441963;-0.009773843921720982;-0.0012217304902151227
01:00:0A:00:00:00:00;1724890289;29/08/24;00:11:29;1.013;-0.03;0.09;-0.019547687843441963;-0.013439035043120384;0.0024434609804302454
01:00:0A:00:00:00:00;1724890290;29/08/24;00:11:30;1.014;-0.03;0.091;-0.015882495790719986;-0.0073303827084600925;0.0012217304902151227
01:00:0A:00:00:00:00;1724890291;29/08/24;00:11:31;1.015;-0.028;0.088;-0.01710422709584236;-0.010995574295520782;0.0024434609804302454
01:00:0A:00:00:00:00;1724890292;29/08/24;00:11:32;1.013;-0.032;0.088;-0.014660765416920185;-0.010995574295520782;0.0024434609804302454
01:00:0A:00:00:00:00;1724890293;29/08/24;00:11:33;1.014;-0.029;0.089;-0.014660765416920185;-0.013439035043120384;0.0024434609804302454
01:00:0A:00:00:00:00;1724890294;29/08/24;00:11:34;1.015;-0.028;0.089;-0.012217304669320583;-0.009773843921720982;0.0
01:00:0A:00:00:00:00;1724890295;29/08/24;00:11:35;1.014;-0.031;0.092;-0.010995574295520782;-0.009773843921720982;0.0012217304902151227
01:00:0A:00:00:00:00;1724890296;29/08/24;00:11:36;1.015;-0.027;0.087;-0.010995574295520782;-0.00855211354792118;0.0036651913542300463
01:00:0A:00:00:00:00;1724890297;29/08/24;00:11:37;1.013;-0.03;0.091;-0.010995574295520782;-0.013439035043120384;0.0024434609804302454
01:00:0A:00:00:00:00;1724890298;29/08/24;00:11:38;1.014;-0.028;0.09;-0.009773843921720982;-0.010995574295520782;0.0024434609804302454
01:00:0A:00:00:00:00;1724890299;29/08/24;00:11:39;1.012;-0.029;0.09;-0.009773843921720982;-0.010995574295520782;0.0036651913542300463
01:00:0A:00:00:00:00;1724890300;29/08/24;00:11:40;1.014;-0.028;0.088;-0.00855211354792118;-0.009773843921720982;0.0024434609804302454
01:00:0A:00:00:00:00;1724890301;29/08/24;00:11:41;1.014;-0.028;0.09;-0.0073303827084600925;-0.013439035043120384;0.0012217304902151227
01:00:0A:00:00:00:00;1724890302;29/08/24;00:11:42;1.015;-0.03;0.089;-0.006108652334660292;-0.012217304669320583;0.0012217304902151227
01:00:0A:00:00:00:00;1724890303;29/08/24;00:11:43;1.014;-0.029;0.09;-0.004886921960860491;-0.009773843921720982;0.0036651913542300463
01:00:0A:00:00:00:00;1724890304;29/08/24;00:11:44;1.015;-0.03;0.087;-0.0036651913542300463;-0.010995574295520782;0.004886921960860491
01:00:0A:00:00:00:00;1724890305;29/08/24;00:11:45;1.012;-0.027;0.088;-0.0024434609804302454;-0.009773843921720982;0.0024434609804302454
01:00:0A:00:00:00:00;1724890306;29/08/24;00:11:46;1.014;-0.03;0.087;-0.0012217304902151227;-0.015882495790719986;0.0012217304902151227
01:00:0A:00:00:00:00;1724890307;29/08/24;00:11:47;1.014;-0.03;0.089;0.0012217304902151227;-0.012217304669320583;0.0024434609804302454
01:00:0A:00:00:00:00;1724890308;29/08/24;00:11:48;1.014;-0.028;0.09;0.0012217304902151227;-0.010995574295520782;0.0036651913542300463
01:00:0A:00:00:00:00;1724890309;29/08/24;00:11:49;1.015;-0.03;0.088;0.004886921960860491;-0.0073303827084600925;0.0024434609804302454
01:00:0A:00:00:00:00;1724890310;29/08/24;00:11:50;1.015;-0.028;0.087;0.004886921960860491;-0.013439035043120384;0.0036651913542300463
01:00:0A:00:00:00:00;1724890311;29/08/24;00:11:51;1.014;-0.03;0.09;0.004886921960860491;-0.013439035043120384;0.004886921960860491
01:00:0A:00:00:00:00;1724890312;29/08/24;00:11:52;1.013;-0.028;0.091;0.0073303827084600925;-0.012217304669320583;0.0024434609804302454
01:00:0A:00:00:00:00;1724890313;29/08/24;00:11:53;1.014;-0.029;0.088;0.00855211354792118;-0.00855211354792118;0.0036651913542300463
01:00:0A:00:00:00:00;1724890314;29/08/24;00:11:54;1.013;-0.03;0.09;0.009773843921720982;-0.010995574295520782;0.004886921960860491
01:00:0A:00:00:00:00;1724890315;29/08/24;00:11:55;1.015;-0.027;0.088;0.010995574295520782;-0.014660765416920185;0.0024434609804302454
01:00:0A:00:00:00:00;1724890316;29/08/24;00:11:56;1.014;-0.03;0.09;0.010995574295520782;-0.013439035043120384;0.0036651913542300463
01:00:0A:00:00:00:00;1724890317;29/08/24;00:11:57;1.014;-0.027;0.089;0.012217304669320583;-0.00855211354792118;0.0024434609804302454
01:00:0A:00:00:00:00;1724890318;29/08/24;00:11:58;1.014;-0.03;0.089;0.013439035043120384;-0.00855211354792118;0.006108652334660292
01:00:0A:00:00:00:00;1724890319;29/08/24;00:11:59;1.015;-0.028;0.086;0.014660765416920185;-0.012217304669320583;0.0036651913542300463
01:00:0A:00:00:00:00;1724890320;29/08/24;00:12:00;1.014;-0.028;0.091;0.014660765416920185;-0.013439035043120384;0.0036651913542300463
01:00:0A:00:00:00:00;1724890321;29/08/24;00:12:01;1.016;-0.03;0.09;0.014660765416920185;-0.012217304669320583;0.0036651913542300463
01:00:0A:00:00:00:00;1724890322;29/08/24;00:12:02;1.014;-0.027;0.09;0.01710422709584236;-0.0073303827084600925;0.0036651913542300463
01:00:0A:00:00:00:00;1724890323;29/08/24;00:12:03;1.014;-0.03;0.089;0.015882495790719986;-0.010995574295520782;0.006108652334660292
01:00:0A:00:00:00:00;1724890324;29/08/24;00:12:04;1.014;-0.028;0.088;0.01710422709584236;-0.012217304669320583;0.0024434609804302454
01:00:0A:00:00:00:00;1724890325;29/08/24;00:12:05;1.015;-0.029;0.088;0.015882495790719986;-0.015882495790719986;0.006108652334660292
01:00:0A:00:00:00:00;1724890326;29/08/24;00:12:06;1.012;-0.03;0.09;0.018325956538319588;-0.00855211354792118;0.0036651913542300463
01:00:0A:00:00:00:00;1724890327;29/08/24;00:12:07;1.014;-0.029;0.088;0.018325956538319588;-0.009773843921720982;0.0036651913542300463
01:00:0A:00:00:00:00;1724890328;29/08/24;00:12:08;1.015;-0.03;0.088;0.018325956538319588;-0.010995574295520782;0.006108652334660292
01:00:0A:00:00:00:00;1724890329;29/08/24;00:12:09;1.014;-0.028;0.089;0.019547687843441963;-0.014660765416920185;0.0024434609804302454
01:00:0A:00:00:00:00;1724890330;29/08/24;00:12:10;1.014;-0.029;0.091;0.018325956538319588;-0.010995574295520782;0.006108652334660292
01:00:0A:00:00:00:00;1724890331;29/08/24;00:12:11;1.015;-0.029;0.091;0.019547687843441963;-0.009773843921720982;0.0036651913542300463
01:00:0A:00:00:00:00;1724890332;29/08/24;00:12:12;1.015;-0.029;0.088;0.019547687843441963;-0.00855211354792118;0.006108652334660292
01:00:0A:00:00:00:00;1724890333;29/08/24;00:12:13;1.014;-0.03;0.09;0.019547687843441963;-0.013439035043120384;0.004886921960860491
01:00:0A:00:00:00:00;1724890334;29/08/24;00:12:14;1.014;-0.029;0.09;0.019547687843441963;-0.012217304669320583;0.0036651913542300463
01:00:0A:00:00:00:00;1724890335;29/08/24;00:12:15;1.013;-0.03;0.091;0.018325956538319588;-0.010995574295520782;0.006108652334660292
01:00:0A:00:00:00:00;1724890336;29/08/24;00:12:16;1.015;-0.029;0.088;0.02076941914856434;-0.009773843921720982;0.0012217304902151227
01:00:0A:00:00:00:00;1724890337;29/08/24;00:12:17;1.014;-0.029;0.09;0.018325956538319588;-0.012217304669320583;0.006108652334660292
01:00:0A:00:00:00:00;1724890338;29/08/24;00:12:18;1.014;-0.028;0.09;0.018325956538319588;-0.013439035043120384;0.0036651913542300463
01:00:0A:00:00:00:00;1724890339;29/08/24;00:12:19;1.014;-0.029;0.091;0.018325956538319588;-0.010995574295520782;0.0036651913542300463
01:00:0A:00:00:00:00;1724890340;29/08/24;00:12:20;1.015;-0.029;0.089;0.01710422709584236;-0.010995574295520782;0.004886921960860491
01:00:0A:00:00:00:00;1724890341;29/08/24;00:12:21;1.014;-0.029;0.09;0.01710422709584236;-0.00855211354792118;0.0012217304902151227
01:00:0A:00:00:00:00;1724890342;29/08/24;00:12:22;1.015;-0.03;0.088;0.014660765416920185;-0.013439035043120384;0.0073303827084600925
01:00:0A:00:00:00:00;1724890343;29/08/24;00:12:23;1.013;-0.028;0.091;0.015882495790719986;-0.012217304669320583;0.0024434609804302454
01:00:0A:00:00:00:00;1724890344;29/08/24;00:12:24;1.014;-0.028;0.091;0.014660765416920185;-0.012217304669320583;0.004886921960860491
01:00:0A:00:00:00:00;1724890345;29/08/24;00:12:25;1.015;-0.029;0.091;0.014660765416920185;-0.00855211354792118;0.0024434609804302454
01:00:0A:00:00:00:00;1724890346;29/08/24;00:12:26;1.015;-0.028;0.09;0.012217304669320583;-0.012217304669320583;0.0036651913542300463
01:00:0A:00:00:00:00;1724890347;29/08/24;00:12:27;1.013;-0.029;0.09;0.010995574295520782;-0.012217304669320583;0.004886921960860491
01:00:0A:00:00:00:00;1724890348;29/08/24;00:12:28;1.014;-0.029;0.091;0.010995574295520782;-0.012217304669320583;0.0024434609804302454
01:00:0A:00:00:00:00;1724890349;29/08/24;00:12:29;1.014;-0.028;0.091;0.009773843921720982;-0.009773843921720982;0.004886921960860491
01:00:0A:00:00:00:00;1724890350;29/08/24;00:12:30;1.014;-0.029;0.09;0.009773843921720982;-0.010995574295520782;0.0024434609804302454
01:00:0A:00:00:00:00;1724890351;29/08/24;00:12:31;1.015;-0.028;0.089;0.00855211354792118;-0.012217304669320583;0.0036651913542300463
01:00:0A:00:00:00:00;1724890352;29/08/24;00:12:32;1.015;-0.028;0.09;0.0073303827084600925;-0.012217304669320583;0.004886921960860491
01:00:0A:00:00:00:00;1724890353;29/08/24;00:12:33;1.014;-0.028;0.09;0.0073303827084600925;-0.010995574295520782;0.0024434609804302454
01:00:0A:00:00:00:00;1724890354;29/08/24;00:12:34;1.013;-0.029;0.09;0.006108652334660292;-0.010995574295520782;0.004886921960860491
01:00:0A:00:00:00:00;1724890355;29/08/24;00:12:35;1.015;-0.029;0.088;0.006108652334660292;-0.012217304669320583;0.0024434609804302454
01:00:0A:00:00:00:00;1724890356;29/08/24;00:12:36;1.014;-0.028;0.091;0.004886921960860491;-0.012217304669320583;0.004886921960860491
01:00:0A:00:00:00:00;1724890357;29/08/24;00:12:37;1.014;-0.03;0.09;0.004886921960860491;-0.010995574295520782;0.0024434609804302454
01:00:0A:00:00:00:00;1724890358;29/08/24;00:12:38;1.014;-0.028;0.09;0.004886921960860491;-0.009773843921720982;0.0024434609804302454
01:00:0A:00:00:00:00;1724890359;29/08/24;00:12:39;1.014;-0.029;0.09;0.0024434609804302454;-0.012217304669320583;0.0036651913542300463
01:00:0A:00:00:00:00;1724890360;29/08/24;00:12:40;1.014;-0.029;0.089;0.0024434609804302454;-0.010995574295520782;0.0024434609804302454
01:00:0A:00:00:00:00;1724890361;29/08/24;00:12:41;1.016;-0.028;0.09;0.0;-0.014660765416920185;0.004886921960860491
01:00:0A:00:00:00:00;1724890362;29/08/24;00:12:42;1.014;-0.03;0.09;0.0024434609804302454;-0.00855211354792118;0.0024434609804302454
01:00:0A:00:00:00:00;1724890363;29/08/24;00:12:43;1.014;-0.029;0.09;0.0;-0.012217304669320583;0.0036651913542300463
01:00:0A:00:00:00:00;1724890364;29/08/24;00:12:44;1.014;-0.03;0.09;0.0;-0.009773843921720982;0.0024434609804302454
01:00:0A:00:00:00:00;1724890365;29/08/24;00:12:45;1.014;-0.029;0.09;-0.0012217304902151227;-0.013439035043120384;0.0024434609804302454
01:00:0A:00:00:00:00;1724890366;29/08/24;00:12:46;1.014;-0.03;0.09;-0.0024434609804302454;-0.009773843921720982;0.0036651913542300463
01:00:0A:00:00:00:00;1724890367;29/08/24;00:12:47;1.015;-0.029;0.09;-0.0024434609804302454;-0.010995574295520782;0.0024434609804302454
01:00:0A:00:00:00:00;1724890368;29/08/24;00:12:48;1.015;-0.028;0.09;-0.0036651913542300463;-0.009773843921720982;0.0036651913542300463
01:00:0A:00:00:00:00;1724890369;29/08/24;00:12:49;1.014;-0.029;0.091;-0.0036651913542300463;-0.012217304669320583;0.0024434609804302454
01:00:0A:00:00:00:00;1724890370;29/08/24;00:12:50;1.013;-0.028;0.09;-0.004886921960860491;-0.010995574295520782;0.0036651913542300463
01:00:0A:00:00:00:00;1724890371;29/08/24;00:12:51;1.014;-0.03;0.091;-0.004886921960860491;-0.009773843921720982;0.0036651913542300463
01:00:0A:00:00:00:00;1724890372;29/08/24;00:12:52;1.014;-0.029;0.088;-0.004886921960860491;-0.010995574295520782;0.0024434609804302454
01:00:0A:00:00:00:00;1724890373;29/08/24;00:12:53;1.014;-0.028;0.091;-0.004886921960860491;-0.012217304669320583;0.0024434609804302454
01:00:0A:00:00:00:00;1724890374;29/08/24;00:12:54;1.015;-0.03;0.089;-0.004886921960860491;-0.012217304669320583;0.0036651913542300463
01:00:0A:00:00:00:00;1724890375;29/08/24;00:12:55;1.015;-0.029;0.091;-0.004886921960860491;-0.010995574295520782;0.0036651913542300463
01:00:0A:00:00:00:00;1724890376;29/08/24;00:12:56;1.014;-0.03;0.089;-0.0036651913542300463;-0.010995574295520782;0.0024434609804302454
01:00:0A:00:00:00:00;1724890377;29/08/24;00:12:57;1.013;-0.029;0.09;-0.0036651913542300463;-0.009773843921720982;0.0024434609804302454
01:00:0A:00:00:00:00;1724890378;29/08/24;00:12:58;1.013;-0.029;0.089;-0.004886921960860491;-0.013439035043120384;0.0036651913542300463
01:00:0A:00:00:00:00;1724890379;29/08/24;00:12:59;1.015;-0.029;0.091;-0.0024434609804302454;-0.010995574295520782;0.0024434609804302454
01:00:0A:00:00:00:00;1724890380;29/08/24;00:13:00;1.014;-0.03;0.091;-0.0036651913542300463;-0.010995574295520782;0.0036651913542300463
01:00:0A:00:00:00:00;1724890381;29/08/24;00:13:01;1.013;-0.03;0.09;-0.0024434609804302454;-0.00855211354792118;0.0036651913542300463
01:00:0A:00:00:00:00;1724890382;29/08/24;00:13:02;1.013;-0.028;0.089;-0.0024434609804302454;-0.013439035043120384;0.0024434609804302454
01:00:0A:00:00:00:00;1724890383;29/08/24;00:13:03;1.015;-0.03;0.089;-0.0024434609804302454;-0.010995574295520782;0.0036651913542300463
01:00:0A:00:00:00:00;1724890384;29/08/24;00:13:04;1.015;-0.03;0.091;-0.0012217304902151227;-0.013439035043120384;0.0024434609804302454
01:00:0A:00:00:00:00;1724890385;29/08/24;00:13:05;1.013;-0.03;0.09;-0.0012217304902151227;-0.00855211354792118;0.0036651913542300463
01:00:0A:00:00:00:00;1724890386;29/08/24;00:13:06;1.014;-0.03;0.09;-0.0012217304902151227;-0.012217304669320583;0.0024434609804302454
01:00:0A:00:00:00:00;1724890387;29/08/24;00:13:07;1.013;-0.029;0.089;0.0;-0.010995574295520782;0.0024434609804302454
01:00:0A:00:00:00:00;1724890388;29/08/24;00:13:08;1.013;-0.029;0.09;0.0;-0.012217304669320583;0.0036651913542300463
01:00:0A:00:00:00:00;1724890389;29/08/24;00:13:09;1.015;-0.029;0.09;0.0012217304902151227;-0.010995574295520782;0.0024434609804302454
01:00:0A:00:00:00:00;1724890390;29/08/24;00:13:10;1.013;-0.03;0.09;0.0012217304902151227;-0.010995574295520782;0.0036651913542300463
01:00:0A:00:00:00:00;1724890391;29/08/24;00:13:11;1.014;-0.03;0.089;0.0012217304902151227;-0.012217304669320583;0.0024434609804302454
01:00:0A:00:00:00:00;1724890392;29/08/24;00:13:12;1.014;-0.029;0.091;0.0024434609804302454;-0.010995574295520782;0.0036651913542300463
01:00:0A:00:00:00:00;1724890393;29/08/24;00:13:13;1.014;-0.029;0.09;0.0024434609804302454;-0.012217304669320583;0.0036651913542300463
01:00:0A:00:00:00:00;1724890394;29/08/24;00:13:14;1.014;-0.029;0.091;0.0036651913542300463;-0.009773843921720982;0.0036651913542300463
01:00:0A:00:00:00:00;1724890395;29/08/24;00:13:15;1.014;-0.029;0.089;0.0036651913542300463;-0.012217304669320583;0.0036651913542300463
01:00:0A:00:00:00:00;1724890396;29/08/24;00:13:16;1.014;-0.029;0.091;0.004886921960860491;-0.010995574295520782;0.0036651913542300463
01:00:0A:00:00:00:00;1724890397;29/08/24;00:13:17;1.015;-0.028;0.09;0.0036651913542300463;-0.012217304669320583;0.0036651913542300463
01:00:0A:00:00:00:00;1724890398;29/08/24;00:13:18;1.014;-0.029;0.09;0.004886921960860491;-0.009773843921720982;0.0036651913542300463
01:00:0A:00:00:00:00;1724890399;29/08/24;00:13:19;1.014;-0.029;0.089;0.004886921960860491;-0.012217304669320583;0.0036651913542300463
01:00:0A:00:00:00:00;1724890400;29/08/24;00:13:20;1.012;-0.029;0.091;0.004886921960860491;-0.010995574295520782;0.0036651913542300463
01:00:0A:00:00:00:00;1724890401;29/08/24;00:13:21;1.014;-0.028;0.091;0.004886921960860491;-0.013439035043120384;0.0024434609804302454
01:00:0A:00:00:00:00;1724890402;29/08/24;00:13:22;1.015;-0.029;0.089;0.004886921960860491;-0.009773843921720982;0.004886921960860491
01:00:0A:00:00:00:00;1724890403;29/08/24;00:13:23;1.015;-0.029;0.091;0.004886921960860491;-0.012217304669320583;0.0036651913542300463
01:00:0A:00:00:00:00;1724890404;29/08/24;00:13:24;1.014;-0.027;0.089;0.004886921960860491;-0.009773843921720982;0.0036651913542300463
01:00:0A:00:00:00:00;1724890405;29/08/24;00:13:25;1.014;-0.029;0.091;0.004886921960860491;-0.012217304669320583;0.0024434609804302454
01:00:0A:00:00:00:00;1724890406;29/08/24;00:13:26;1.014;-0.029;0.09;0.004886921960860491;-0.010995574295520782;0.0036651913542300463
01:00:0A:00:00:00:00;1724890407;29/08/24;00:13:27;1.014;-0.029;0.09;0.004886921960860491;-0.012217304669320583;0.0036651913542300463
01:00:0A:00:00:00:00;1724890408;29/08/24;00:13:28;1.014;-0.029;0.089;0.004886921960860491;-0.010995574295520782;0.0024434609804302454
01:00:0A:00:00:00:00;1724890409;29/08/24;00:13:29;1.014;-0.029;0.09;0.004886921960860491;-0.010995574295520782;0.0036651913542300463
01:00:0A:00:00:00:00;1724890410;29/08/24;00:13:30;1.014;-0.029;0.09;0.004886921960860491;-0.012217304669320583;0.0036651913542300463
01:00:0A:00:00:00:00;1724890411;29/08/24;00:13:31;1.015;-0.03;0.09;0.0036651913542300463;-0.009773843921720982;0.0036651913542300463
01:00:0A:00:00:00:00;1724890412;29/08/24;00:13:32;1.014;-0.028;0.09;0.0036651913542300463;-0.012217304669320583;0.0036651913542300463
01:00:0A:00:00:00:00;1724890413;29/08/24;00:13:33;1.013;-0.029;0.091;0.0036651913542300463;-0.009773843921720982;0.0036651913542300463
01:00:0A:00:00:00:00;1724890414;29/08/24;00:13:34;1.014;-0.03;0.09;0.0036651913542300463;-0.013439035043120384;0.0024434609804302454
01:00:0A:00:00:00:00;1724890415;29/08/24;00:13:35;1.015;-0.028;0.091;0.0036651913542300463;-0.009773843921720982;0.0036651913542300463
01:00:0A:00:00:00:00;1724890416;29/08/24;00:13:36;1.014;-0.028;0.09;0.0036651913542300463;-0.012217304669320583;0.0036651913542300463
01:00:0A:00:00:00:00;1724890417;29/08/24;00:13:37;1.015;-0.029;0.09;0.0036651913542300463;-0.009773843921720982;0.0036651913542300463
01:00:0A:00:00:00:00;1724890418;29/08/24;00:13:38;1.014;-0.028;0.09;0.0036651913542300463;-0.012217304669320583;0.0024434609804302454
01:00:0A:00:00:00:00;1724890419;29/08/24;00:13:39;1.014;-0.029;0.09;0.0036651913542300463;-0.010995574295520782;0.0036651913542300463
01:00:0A:00:00:00:00;1724890420;29/08/24;00:13:40;1.015;-0.029;0.091;0.0024434609804302454;-0.012217304669320583;0.0036651913542300463
01:00:0A:00:00:00:00;1724890421;29/08/24;00:13:41;1.014;-0.028;0.089;0.0036651913542300463;-0.010995574295520782;0.0036651913542300463
01:00:0A:00:00:00:00;1724890422;29/08/24;00:13:42;1.015;-0.029;0.09;0.0036651913542300463;-0.012217304669320583;0.0024434609804302454
01:00:0A:00:00:00:00;1724890423;29/08/24;00:13:43;1.014;-0.028;0.089;0.0036651913542300463;-0.010995574295520782;0.0036651913542300463
01:00:0A:00:00:00:00;1724890424;29/08/24;00:13:44;1.015;-0.029;0.091;0.0036651913542300463;-0.012217304669320583;0.0036651913542300463
01:00:0A:00:00:00:00;1724890425;29/08/24;00:13:45;1.014;-0.029;0.089;0.0036651913542300463;-0.010995574295520782;0.0036651913542300463
01:00:0A:00:00:00:00;1724890426;29/08/24;00:13:46;1.015;-0.028;0.089;0.0036651913542300463;-0.012217304669320583;0.0024434609804302454
01:00:0A:00:00:00:00;1724890427;29/08/24;00:13:47;1.013;-0.028;0.09;0.0036651913542300463;-0.010995574295520782;0.0024434609804302454
01:00:0A:00:00:00:00;1724890428;29/08/24;00:13:48;1.014;-0.029;0.089;0.0036651913542300463;-0.010995574295520782;0.0036651913542300463
01:00:0A:00:00:00:00;1724890429;29/08/24;00:13:49;1.013;-0.029;0.09;0.0036651913542300463;-0.012217304669320583;0.0036651913542300463
01:00:0A:00:00:00:00;1724890430;29/08/24;00:13:50;1.013;-0.028;0.089;0.0036651913542300463;-0.010995574295520782;0.0036651913542300463
01:00:0A:00:00:00:00;1724890431;29/08/24;00:13:51;1.013;-0.029;0.09;0.0036651913542300463;-0.012217304669320583;0.0024434609804302454
01:00:0A:00:00:00:00;1724890432;29/08/24;00:13:52;1.014;-0.03;0.09;0.0036651913542300463;-0.009773843921720982;0.0036651913542300463
01:00:0A:00:00:00:00;1724890433;29/08/24;00:13:53;1.014;-0.029;0.09;0.0036651913542300463;-0.012217304669320583;0.0024434609804302454
01:00:0A:00:00:00:00;1724890434;29/08/24;00:13:54;1.016;-0.029;0.09;0.0036651913542300463;-0.009773843921720982;0.0036651913542300463
01:00:0A:00:00:00:00;1724890435;29/08/24;00:13:55;1.013;-0.029;0.09;0.0036651913542300463;-0.013439035043120384;0.0024434609804302454
01:00:0A:00:00:00:00;1724890436;29/08/24;00:13:56;1.015;-0.029;0.09;0.0036651913542300463;-0.009773843921720982;0.0036651913542300463
01:00:0A:00:00:00:00;1724890437;29/08/24;00:13:57;1.015;-0.029;0.09;0.0036651913542300463;-0.012217304669320583;0.0024434609804302454
01:00:0A:00:00:00:00;1724890438;29/08/24;00:13:58;1.014;-0.028;0.089;0.0036651913542300463;-0.010995574295520782;0.0036651913542300463
01:00:0A:00:00:00:00;1724890439;29/08/24;00:13:59;1.014;-0.029;0.089;0.0024434609804302454;-0.012217304669320583;0.0036651913542300463
01:00:0A:00:00:00:00;1724890440;29/08/24;00:14:00;1.013;-0.029;0.089;0.0036651913542300463;-0.010995574295520782;0.0036651913542300463
01:00:0A:00:00:00:00;1724890441;29/08/24;00:14:01;1.014;-0.03;0.091;0.0036651913542300463;-0.010995574295520782;0.0036651913542300463
01:00:0A:00:00:00:00;1724890442;29/08/24;00:14:02;1.012;-0.029;0.089;0.0036651913542300463;-0.010995574295520782;0.0036651913542300463
01:00:0A:00:00:00:00;1724890443;29/08/24;00:14:03;1.013;-0.028;0.089;0.0036651913542300463;-0.010995574295520782;0.0036651913542300463
01:00:0A:00:00:00:00;1724890444;29/08/24;00:14:04;1.014;-0.029;0.087;0.0036651913542300463;-0.012217304669320583;0.0036651913542300463
01:00:0A:00:00:00:00;1724890445;29/08/24;00:14:05;1.014;-0.03;0.089;0.0036651913542300463;-0.010995574295520782;0.0024434609804302454
01:00:0A:00:00:00:00;1724890446;29/08/24;00:14:06;1.015;-0.028;0.089;0.004886921960860491;-0.010995574295520782;0.0036651913542300463
01:00:0A:00:00:00:00;1724890447;29/08/24;00:14:07;1.013;-0.029;0.09;0.004886921960860491;-0.010995574295520782;0.0036651913542300463
01:00:0A:00:00:00:00;1724890448;29/08/24;00:14:08;1.013;-0.03;0.09;0.004886921960860491;-0.012217304669320583;0.0036651913542300463
01:00:0A:00:00:00:00;1724890449;29/08/24;00:14:09;1.014;-0.029;0.089;0.004886921960860491;-0.010995574295520782;0.0036651913542300463
01:00:0A:00:00:00:00;1724890450;29/08/24;00:14:10;1.014;-0.03;0.09;0.006108652334660292;-0.012217304669320583;0.0024434609804302454
01:00:0A:00:00:00:00;1724890451;29/08/24;00:14:11;1.014;-0.028;0.089;0.006108652334660292;-0.009773843921720982;0.0036651913542300463
01:00:0A:00:00:00:00;1724890452;29/08/24;00:14:12;1.014;-0.03;0.089;0.006108652334660292;-0.012217304669320583;0.0024434609804302454
01:00:0A:00:00:00:00;1724890453;29/08/24;00:14:13;1.015;-0.029;0.089;0.0073303827084600925;-0.009773843921720982;0.004886921960860491
01:00:0A:00:00:00:00;1724890454;29/08/24;00:14:14;1.015;-0.029;0.09;0.0073303827084600925;-0.012217304669320583;0.0024434609804302454
01:00:0A:00:00:00:00;1724890455;29/08/24;00:14:15;1.014;-0.029;0.089;0.00855211354792118;-0.009773843921720982;0.0036651913542300463
01:00:0A:00:00:00:00;1724890456;29/08/24;00:14:16;1.014;-0.028;0.09;0.00855211354792118;-0.013439035043120384;0.0024434609804302454
01:00:0A:00:00:00:00;1724890457;29/08/24;00:14:17;1.016;-0.028;0.089;0.00855211354792118;-0.010995574295520782;0.0036651913542300463
01:00:0A:00:00:00:00;1724890458;29/08/24;00:14:18;1.013;-0.029;0.091;0.009773843921720982;-0.012217304669320583;0.0036651913542300463
01:00:0A:00:00:00:00;1724890459;29/08/24;00:14:19;1.014;-0.029;0.09;0.009773843921720982;-0.010995574295520782;0.0036651913542300463
01:00:0A:00:00:00:00;1724890460;29/08/24;00:14:20;1.014;-0.028;0.089;0.009773843921720982;-0.010995574295520782;0.0036651913542300463
01:00:0A:00:00:00:00;1724890461;29/08/24;00:14:21;1.014;-0.028;0.089;0.009773843921720982;-0.012217304669320583;0.0036651913542300463
01:00:0A:00:00:00:00;1724890462;29/08/24;00:14:22;1.014;-0.029;0.09;0.010995574295520782;-0.010995574295520782;0.0036651913542300463
01:00:0A:00:00:00:00;1724890463;29/08/24;00:14:23;1.014;-0.029;0.089;0.010995574295520782;-0.010995574295520782;0.0036651913542300463
01:00:0A:00:00:00:00;1724890464;29/08/24;00:14:24;1.014;-0.029;0.09;0.010995574295520782;-0.010995574295520782;0.0036651913542300463
01:00:0A:00:00:00:00;1724890465;29/08/24;00:14:25;1.014;-0.028;0.088;0.010995574295520782;-0.012217304669320583;0.0036651913542300463
01:00:0A:00:00:00:00;1724890466;29/08/24;00:14:26;1.013;-0.029;0.09;0.010995574295520782;-0.012217304669320583;0.0036651913542300463
01:00:0A:00:00:00:00;1724890467;29/08/24;00:14:27;1.013;-0.028;0.09;0.010995574295520782;-0.010995574295520782;0.0036651913542300463
01:00:0A:00:00:00:00;1724890468;29/08/24;00:14:28;1.013;-0.029;0.09;0.010995574295520782;-0.010995574295520782;0.0036651913542300463
01:00:0A:00:00:00:00;1724890469;29/08/24;00:14:29;1.014;-0.029;0.089;0.012217304669320583;-0.010995574295520782;0.0036651913542300463
01:00:0A:00:00:00:00;1724890470;29/08/24;00:14:30;1.014;-0.029;0.09;0.012217304669320583;-0.010995574295520782;0.0036651913542300463
01:00:0A:00:00:00:00;1724890471;29/08/24;00:14:31;1.013;-0.028;0.089;0.012217304669320583;-0.012217304669320583;0.0036651913542300463
01:00:0A:00:00:00:00;1724890472;29/08/24;00:14:32;1.014;-0.029;0.09;0.012217304669320583;-0.009773843921720982;0.0036651913542300463
01:00:0A:00:00:00:00;1724890473;29/08/24;00:14:33;1.014;-0.028;0.09;0.012217304669320583;-0.012217304669320583;0.0036651913542300463
01:00:0A:00:00:00:00;1724890474;29/08/24;00:14:34;1.014;-0.029;0.089;0.012217304669320583;-0.009773843921720982;0.004886921960860491
01:00:0A:00:00:00:00;1724890475;29/08/24;00:14:35;1.015;-0.029;0.091;0.012217304669320583;-0.012217304669320583;0.0036651913542300463
01:00:0A:00:00:00:00;1724890476;29/08/24;00:14:36;1.014;-0.029;0.09;0.012217304669320583;-0.010995574295520782;0.004886921960860491
01:00:0A:00:00:00:00;1724890477;29/08/24;00:14:37;1.014;-0.028;0.09;0.013439035043120384;-0.010995574295520782;0.0036651913542300463
01:00:0A:00:00:00:00;1724890478;29/08/24;00:14:38;1.015;-0.028;0.089;0.013439035043120384;-0.010995574295520782;0.0036651913542300463
01:00:0A:00:00:00:00;1724890479;29/08/24;00:14:39;1.013;-0.029;0.09;0.013439035043120384;-0.010995574295520782;0.0036651913542300463
01:00:0A:00:00:00:00;1724890480;29/08/24;00:14:40;1.014;-0.028;0.089;0.012217304669320583;-0.012217304669320583;0.0036651913542300463
01:00:0A:00:00:00:00;1724890481;29/08/24;00:14:41;1.014;-0.028;0.09;0.013439035043120384;-0.010995574295520782;0.004886921960860491
01:00:0A:00:00:00:00;1724890482;29/08/24;00:14:42;1.015;-0.028;0.089;0.013439035043120384;-0.010995574295520782;0.0036651913542300463
01:00:0A:00:00:00:00;1724890483;29/08/24;00:14:43;1.015;-0.029;0.089;0.013439035043120384;-0.010995574295520782;0.0036651913542300463
01:00:0A:00:00:00:00;1724890484;29/08/24;00:14:44;1.014;-0.028;0.089;0.013439035043120384;-0.012217304669320583;0.0036651913542300463
01:00:0A:00:00:00:00;1724890485;29/08/24;00:14:45;1.015;-0.029;0.09;0.013439035043120384;-0.010995574295520782;0.004886921960860491
01:00:0A:00:00:00:00;1724890486;29/08/24;00:14:46;1.014;-0.028;0.089;0.013439035043120384;-0.010995574295520782;0.0036651913542300463
01:00:0A:00:00:00:00;1724890487;29/08/24;00:14:47;1.014;-0.029;0.09;0.013439035043120384;-0.010995574295520782;0.0036651913542300463
01:00:0A:00:00:00:00;1724890488;29/08/24;00:14:48;1.013;-0.026;0.085;0.009773843921720982;-0.021991148591041565;-0.006108652334660292
01:00:0A:00:00:00:00;1724890489;29/08/24;00:14:49;1.016;-0.017;0.081;-0.0012217304902151227;-0.0073303827084600925;0.0024434609804302454
01:00:0A:00:00:00:00;1724890490;29/08/24;00:14:50;1.014;-0.021;0.086;-0.019547687843441963;-0.004886921960860491;0.0073303827084600925
01:00:0A:00:00:00:00;1724890491;29/08/24;00:14:51;1.014;-0.032;0.09;-0.021991148591041565;-0.009773843921720982;0.010995574295520782
01:00:0A:00:00:00:00;1724890492;29/08/24;00:14:52;1.013;-0.029;0.089;-0.014660765416920185;-0.014660765416920185;-0.0073303827084600925
01:00:0A:00:00:00:00;1724890493;29/08/24;00:14:53;1.014;-0.023;0.089;-0.015882495790719986;-0.00855211354792118;0.0036651913542300463
01:00:0A:00:00:00:00;1724890494;29/08/24;00:14:54;1.013;-0.032;0.091;-0.018325956538319588;-0.012217304669320583;0.00855211354792118
01:00:0A:00:00:00:00;1724890495;29/08/24;00:14:55;1.014;-0.03;0.089;-0.012217304669320583;-0.012217304669320583;-0.006108652334660292
01:00:0A:00:00:00:00;1724890496;29/08/24;00:14:56;1.014;-0.025;0.09;-0.014660765416920185;-0.009773843921720982;0.004886921960860491
01:00:0A:00:00:00:00;1724890497;29/08/24;00:14:57;1.013;-0.032;0.09;-0.015882495790719986;-0.010995574295520782;0.006108652334660292
01:00:0A:00:00:00:00;1724890498;29/08/24;00:14:58;1.014;-0.029;0.089;-0.010995574295520782;-0.012217304669320583;-0.004886921960860491
01:00:0A:00:00:00:00;1724890499;29/08/24;00:14:59;1.013;-0.026;0.09;-0.013439035043120384;-0.009773843921720982;0.0073303827084600925
01:00:0A:00:00:00:00;1724890500;29/08/24;00:15:00;1.013;-0.033;0.09;-0.013439035043120384;-0.010995574295520782;0.004886921960860491
01:00:0A:00:00:00:00;1724890501;29/08/24;00:15:01;1.014;-0.028;0.09;-0.00855211354792118;-0.010995574295520782;-0.004886921960860491
01:00:0A:00:00:00:00;1724890502;29/08/24;00:15:02;1.014;-0.025;0.09;-0.013439035043120384;-0.010995574295520782;0.0073303827084600925
01:00:0A:00:00:00:00;1724890503;29/08/24;00:15:03;1.014;-0.032;0.089;-0.010995574295520782;-0.012217304669320583;0.0036651913542300463
01:00:0A:00:00:00:00;1724890504;29/08/24;00:15:04;1.015;-0.027;0.09;-0.00855211354792118;-0.010995574295520782;-0.0024434609804302454
01:00:0A:00:00:00:00;1724890505;29/08/24;00:15:05;1.013;-0.027;0.089;-0.010995574295520782;-0.010995574295520782;0.006108652334660292
01:00:0A:00:00:00:00;1724890506;29/08/24;00:15:06;1.014;-0.032;0.09;-0.00855211354792118;-0.010995574295520782;0.0036651913542300463
01:00:0A:00:00:00:00;1724890507;29/08/24;00:15:07;1.014;-0.027;0.09;-0.0073303827084600925;-0.012217304669320583;-0.0024434609804302454
01:00:0A:00:00:00:00;1724890508;29/08/24;00:15:08;1.015;-0.028;0.09;-0.009773843921720982;-0.010995574295520782;0.0073303827084600925
01:00:0A:00:00:00:00;1724890509;29/08/24;00:15:09;1.014;-0.031;0.089;-0.0073303827084600925;-0.010995574295520782;0.0012217304902151227
01:00:0A:00:00:00:00;1724890510;29/08/24;00:15:10;1.014;-0.026;0.09;-0.004886921960860491;-0.010995574295520782;0.0
