Source;Epoch timestamp (UTC);Date;Time (UTC);Accel X (G);Accel Y (G);Accel Z (G);Gyro X (rad/s);Gyro Y (rad/s);Gyro Z (rad/s)
01:00:0A:00:00:00:00;1726790390;19/09/24;23:59:50;1.008;0.003;0.157;-0.0036651913542300463;-0.015882495790719986;0.0036651913542300463
01:00:0A:00:00:00:00;1726790391;19/09/24;23:59:51;1.008;0.014;0.153;-0.0012217304902151227;-0.012217304669320583;-0.009773843921720982
01:00:0A:00:00:00:00;1726790392;19/09/24;23:59:52;1.008;0.012;0.158;-0.0073303827084600925;-0.0073303827084600925;0.012217304669320583
01:00:0A:00:00:00:00;1726790393;19/09/24;23:59:53;1.009;0.003;0.156;-0.0036651913542300463;-0.014660765416920185;0.0012217304902151227
01:00:0A:00:00:00:00;1726790394;19/09/24;23:59:54;1.009;0.014;0.154;-0.0024434609804302454;-0.013439035043120384;-0.006108652334660292
01:00:0A:00:00:00:00;1726790395;19/09/24;23:59:55;1.008;0.011;0.158;-0.0073303827084600925;-0.0073303827084600925;0.013439035043120384
01:00:0A:00:00:00:00;1726790396;19/09/24;23:59:56;1.008;0.006;0.158;-0.0036651913542300463;-0.014660765416920185;-0.0012217304902151227
01:00:0A:00:00:00:00;1726790397;19/09/24;23:59:57;1.008;0.013;0.153;-0.0024434609804302454;-0.009773843921720982;-0.0024434609804302454
01:00:0A:00:00:00:00;1726790398;19/09/24;23:59:58;1.008;0.01;0.157;-0.006108652334660292;-0.00855211354792118;0.009773843921720982
01:00:0A:00:00:00:00;1726790399;19/09/24;23:59:59;1.009;0.006;0.156;-0.0024434609804302454;-0.018325956538319588;-0.0012217304902151227
01:00:0A:00:00:00:00;1726790400;20/09/24;00:00:00;1.008;0.013;0.155;-0.0024434609804302454;-0.00855211354792118;-0.0012217304902151227
01:00:0A:00:00:00:00;1726790401;20/09/24;00:00:01;1.009;0.007;0.158;-0.004886921960860491;-0.009773843921720982;0.00855211354792118
01:00:0A:00:00:00:00;1726790402;20/09/24;00:00:02;1.009;0.008;0.154;-0.0012217304902151227;-0.013439035043120384;-0.0024434609804302454
01:00:0A:00:00:00:00;1726790403;20/09/24;00:00:03;1.008;0.011;0.155;-0.0024434609804302454;-0.010995574295520782;0.0024434609804302454
01:00:0A:00:00:00:00;1726790404;20/09/24;00:00:04;1.008;0.008;0.157;-0.0024434609804302454;-0.009773843921720982;0.0073303827084600925
01:00:0A:00:00:00:00;1726790405;20/09/24;00:00:05;1.008;0.008;0.154;-0.0012217304902151227;-0.013439035043120384;0.0
01:00:0A:00:00:00:00;1726790406;20/09/24;00:00:06;1.008;0.012;0.155;-0.0012217304902151227;-0.009773843921720982;0.0012217304902151227
01:00:0A:00:00:00:00;1726790407;20/09/24;00:00:07;1.009;0.009;0.157;-0.0012217304902151227;-0.009773843921720982;0.0024434609804302454
01:00:0A:00:00:00:00;1726790408;20/09/24;00:00:08;1.009;0.023;0.159;-0.0036651913542300463;-0.015882495790719986;0.0073303827084600925
01:00:0A:00:00:00:00;1726790409;20/09/24;00:00:09;1.008;0.008;0.156;-0.0024434609804302454;-0.0012217304902151227;-0.0012217304902151227
01:00:0A:00:00:00:00;1726790410;20/09/24;00:00:10;1.008;0.016;0.16;-0.0036651913542300463;-0.018325956538319588;0.006108652334660292
01:00:0A:00:00:00:00;1726790411;20/09/24;00:00:11;1.008;0.005;0.151;-0.0036651913542300463;-0.015882495790719986;0.009773843921720982
01:00:0A:00:00:00:00;1726790412;20/09/24;00:00:12;1.009;0.01;0.156;0.0;-0.0024434609804302454;-0.006108652334660292
01:00:0A:00:00:00:00;1726790413;20/09/24;00:00:13;1.008;0.014;0.16;-0.0012217304902151227;-0.018325956538319588;0.006108652334660292
01:00:0A:00:00:00:00;1726790414;20/09/24;00:00:14;1.011;0.007;0.151;-0.0012217304902151227;-0.014660765416920185;0.0073303827084600925
01:00:0A:00:00:00:00;1726790415;20/09/24;00:00:15;1.009;0.009;0.157;0.0012217304902151227;-0.0012217304902151227;-0.0036651913542300463
01:00:0A:00:00:00:00;1726790416;20/09/24;00:00:16;1.009;0.013;0.157;0.0012217304902151227;-0.019547687843441963;0.006108652334660292
01:00:0A:00:00:00:00;1726790417;20/09/24;00:00:17;1.008;0.007;0.152;0.0012217304902151227;-0.010995574295520782;0.006108652334660292
01:00:0A:00:00:00:00;1726790418;20/09/24;00:00:18;1.008;0.009;0.158;0.0036651913542300463;-0.006108652334660292;-0.0036651913542300463
01:00:0A:00:00:00:00;1726790419;20/09/24;00:00:19;1.009;0.013;0.156;0.0036651913542300463;-0.015882495790719986;0.0073303827084600925
01:00:0A:00:00:00:00;1726790420;20/09/24;00:00:20;1.01;0.006;0.154;0.0036651913542300463;-0.009773843921720982;0.006108652334660292
01:00:0A:00:00:00:00;1726790421;20/09/24;00:00:21;1.009;0.011;0.157;0.0073303827084600925;-0.0073303827084600925;-0.0024434609804302454
01:00:0A:00:00:00:00;1726790422;20/09/24;00:00:22;1.008;0.011;0.156;0.004886921960860491;-0.015882495790719986;0.00855211354792118
01:00:0A:00:00:00:00;1726790423;20/09/24;00:00:23;1.009;0.006;0.154;0.0073303827084600925;-0.009773843921720982;0.0036651913542300463
01:00:0A:00:00:00:00;1726790424;20/09/24;00:00:24;1.008;0.011;0.157;0.00855211354792118;-0.00855211354792118;0.0
01:00:0A:00:00:00:00;1726790425;20/09/24;00:00:25;1.009;0.01;0.155;0.0073303827084600925;-0.014660765416920185;0.00855211354792118
01:00:0A:00:00:00:00;1726790426;20/09/24;00:00:26;1.008;0.009;0.153;0.009773843921720982;-0.010995574295520782;0.0024434609804302454
01:00:0A:00:00:00:00;1726790427;20/09/24;00:00:27;1.008;0.011;0.158;0.009773843921720982;-0.00855211354792118;0.0024434609804302454
01:00:0A:00:00:00:00;1726790428;20/09/24;00:00:28;1.008;0.01;0.156;0.009773843921720982;-0.014660765416920185;0.006108652334660292
01:00:0A:00:00:00:00;1726790429;20/09/24;00:00:29;1.009;0.008;0.153;0.010995574295520782;-0.00855211354792118;0.004886921960860491
01:00:0A:00:00:00:00;1726790430;20/09/24;00:00:30;1.008;0.011;0.157;0.012217304669320583;-0.009773843921720982;0.0024434609804302454
01:00:0A:00:00:00:00;1726790431;20/09/24;00:00:31;1.009;0.011;0.154;0.012217304669320583;-0.015882495790719986;0.006108652334660292
01:00:0A:00:00:00:00;1726790432;20/09/24;00:00:32;1.008;0.009;0.155;0.012217304669320583;-0.0073303827084600925;0.0036651913542300463
01:00:0A:00:00:00:00;1726790433;20/09/24;00:00:33;1.008;0.011;0.156;0.013439035043120384;-0.012217304669320583;0.0024434609804302454
01:00:0A:00:00:00:00;1726790434;20/09/24;00:00:34;1.009;0.01;0.155;0.013439035043120384;-0.012217304669320583;0.0073303827084600925
01:00:0A:00:00:00:00;1726790435;20/09/24;00:00:35;1.009;0.008;0.155;0.014660765416920185;-0.010995574295520782;0.0036651913542300463
01:00:0A:00:00:00:00;1726790436;20/09/24;00:00:36;1.007;0.012;0.156;0.014660765416920185;-0.010995574295520782;0.0036651913542300463
01:00:0A:00:00:00:00;1726790437;20/09/24;00:00:37;1.008;0.009;0.156;0.013439035043120384;-0.010995574295520782;0.00855211354792118
01:00:0A:00:00:00:00;1726790438;20/09/24;00:00:38;1.009;0.01;0.155;0.015882495790719986;-0.009773843921720982;0.0012217304902151227
01:00:0A:00:00:00:00;1726790439;20/09/24;00:00:39;1.008;0.01;0.155;0.014660765416920185;-0.010995574295520782;0.0073303827084600925
01:00:0A:00:00:00:00;1726790440;20/09/24;00:00:40;1.007;0.009;0.156;0.015882495790719986;-0.012217304669320583;0.004886921960860491
01:00:0A:00:00:00:00;1726790441;20/09/24;00:00:41;1.007;0.01;0.155;0.015882495790719986;-0.009773843921720982;0.0036651913542300463
01:00:0A:00:00:00:00;1726790442;20/09/24;00:00:42;1.009;0.011;0.156;0.015882495790719986;-0.009773843921720982;0.004886921960860491
01:00:0A:00:00:00:00;1726790443;20/09/24;00:00:43;1.009;0.009;0.156;0.015882495790719986;-0.012217304669320583;0.004886921960860491
01:00:0A:00:00:00:00;1726790444;20/09/24;00:00:44;1.009;0.01;0.156;0.015882495790719986;-0.00855211354792118;0.004886921960860491
01:00:0A:00:00:00:00;1726790445;20/09/24;00:00:45;1.009;0.009;0.156;0.015882495790719986;-0.012217304669320583;0.0036651913542300463
01:00:0A:00:00:00:00;1726790446;20/09/24;00:00:46;1.009;0.01;0.154;0.015882495790719986;-0.009773843921720982;0.006108652334660292
01:00:0A:00:00:00:00;1726790447;20/09/24;00:00:47;1.008;0.009;0.156;0.015882495790719986;-0.009773843921720982;0.0036651913542300463
01:00:0A:00:00:00:00;1726790448;20/09/24;00:00:48;1.009;0.01;0.155;0.015882495790719986;-0.012217304669320583;0.004886921960860491
01:00:0A:00:00:00:00;1726790449;20/09/24;00:00:49;1.009;0.009;0.155;0.015882495790719986;-0.009773843921720982;0.0073303827084600925
01:00:0A:00:00:00:00;1726790450;20/09/24;00:00:50;1.008;0.009;0.156;0.01710422709584236;-0.012217304669320583;0.0024434609804302454
01:00:0A:00:00:00:00;1726790451;20/09/24;00:00:51;1.009;0.009;0.155;0.015882495790719986;-0.009773843921720982;0.006108652334660292
01:00:0A:00:00:00:00;1726790452;20/09/24;00:00:52;1.009;0.008;0.156;0.015882495790719986;-0.012217304669320583;0.004886921960860491
01:00:0A:00:00:00:00;1726790453;20/09/24;00:00:53;1.009;0.01;0.154;0.015882495790719986;-0.010995574295520782;0.004886921960860491
01:00:0A:00:00:00:00;1726790454;20/09/24;00:00:54;1.008;0.009;0.156;0.015882495790719986;-0.010995574295520782;0.006108652334660292
01:00:0A:00:00:00:00;1726790455;20/09/24;00:00:55;1.008;0.008;0.155;0.015882495790719986;-0.010995574295520782;0.0036651913542300463
01:00:0A:00:00:00:00;1726790456;20/09/24;00:00:56;1.009;0.01;0.155;0.015882495790719986;-0.009773843921720982;0.006108652334660292
01:00:0A:00:00:00:00;1726790457;20/09/24;00:00:57;1.009;0.008;0.155;0.015882495790719986;-0.012217304669320583;0.004886921960860491
01:00:0A:00:00:00:00;1726790458;20/09/24;00:00:58;1.008;0.01;0.155;0.015882495790719986;-0.009773843921720982;0.004886921960860491
01:00:0A:00:00:00:00;1726790459;20/09/24;00:00:59;1.009;0.008;0.156;0.015882495790719986;-0.010995574295520782;0.004886921960860491
01:00:0A:00:00:00:00;1726790460;20/09/24;00:01:00;1.008;0.01;0.154;0.014660765416920185;-0.010995574295520782;0.004886921960860491
01:00:0A:00:00:00:00;1726790461;20/09/24;00:01:01;1.009;0.009;0.155;0.014660765416920185;-0.009773843921720982;0.006108652334660292
01:00:0A:00:00:00:00;1726790462;20/09/24;00:01:02;1.008;0.01;0.157;0.014660765416920185;-0.010995574295520782;0.0036651913542300463
01:00:0A:00:00:00:00;1726790463;20/09/24;00:01:03;1.009;0.01;0.155;0.014660765416920185;-0.010995574295520782;0.006108652334660292
01:00:0A:00:00:00:00;1726790464;20/09/24;00:01:04;1.008;0.009;0.156;0.014660765416920185;-0.009773843921720982;0.0036651913542300463
01:00:0A:00:00:00:00;1726790465;20/09/24;00:01:05;1.008;0.009;0.155;0.014660765416920185;-0.010995574295520782;0.004886921960860491
01:00:0A:00:00:00:00;1726790466;20/09/24;00:01:06;1.008;0.01;0.156;0.014660765416920185;-0.009773843921720982;0.006108652334660292
01:00:0A:00:00:00:00;1726790467;20/09/24;00:01:07;1.008;0.009;0.155;0.014660765416920185;-0.012217304669320583;0.004886921960860491
01:00:0A:00:00:00:00;1726790468;20/09/24;00:01:08;1.01;0.011;0.154;0.013439035043120384;-0.009773843921720982;0.004886921960860491
01:00:0A:00:00:00:00;1726790469;20/09/24;00:01:09;1.009;0.01;0.155;0.013439035043120384;-0.012217304669320583;0.004886921960860491
01:00:0A:00:00:00:00;1726790470;20/09/24;00:01:10;1.01;0.009;0.156;0.013439035043120384;-0.010995574295520782;0.0036651913542300463
01:00:0A:00:00:00:00;1726790471;20/09/24;00:01:11;1.009;0.01;0.156;0.012217304669320583;-0.010995574295520782;0.006108652334660292
01:00:0A:00:00:00:00;1726790472;20/09/24;00:01:12;1.009;0.009;0.156;0.013439035043120384;-0.010995574295520782;0.0036651913542300463
01:00:0A:00:00:00:00;1726790473;20/09/24;00:01:13;1.008;0.01;0.155;0.012217304669320583;-0.010995574295520782;0.004886921960860491
01:00:0A:00:00:00:00;1726790474;20/09/24;00:01:14;1.007;0.009;0.155;0.012217304669320583;-0.010995574295520782;0.0036651913542300463
01:00:0A:00:00:00:00;1726790475;20/09/24;00:01:15;1.01;0.01;0.156;0.012217304669320583;-0.010995574295520782;0.006108652334660292
01:00:0A:00:00:00:00;1726790476;20/09/24;00:01:16;1.009;0.01;0.156;0.010995574295520782;-0.010995574295520782;0.0036651913542300463
01:00:0A:00:00:00:00;1726790477;20/09/24;00:01:17;1.009;0.01;0.156;0.010995574295520782;-0.010995574295520782;0.0036651913542300463
01:00:0A:00:00:00:00;1726790478;20/09/24;00:01:18;1.008;0.009;0.156;0.010995574295520782;-0.009773843921720982;0.004886921960860491
01:00:0A:00:00:00:00;1726790479;20/09/24;00:01:19;1.009;0.008;0.156;0.010995574295520782;-0.010995574295520782;0.0036651913542300463
01:00:0A:00:00:00:00;1726790480;20/09/24;00:01:20;1.008;0.01;0.156;0.009773843921720982;-0.010995574295520782;0.004886921960860491
01:00:0A:00:00:00:00;1726790481;20/09/24;00:01:21;1.008;0.01;0.156;0.009773843921720982;-0.010995574295520782;0.0036651913542300463
01:00:0A:00:00:00:00;1726790482;20/09/24;00:01:22;1.008;0.011;0.155;0.009773843921720982;-0.010995574295520782;0.0036651913542300463
01:00:0A:00:00:00:00;1726790483;20/09/24;00:01:23;1.008;0.01;0.155;0.00855211354792118;-0.010995574295520782;0.004886921960860491
01:00:0A:00:00:00:00;1726790484;20/09/24;00:01:24;1.009;0.009;0.155;0.00855211354792118;-0.010995574295520782;0.0036651913542300463
01:00:0A:00:00:00:00;1726790485;20/09/24;00:01:25;1.008;0.01;0.155;0.0073303827084600925;-0.010995574295520782;0.004886921960860491
01:00:0A:00:00:00:00;1726790486;20/09/24;00:01:26;1.009;0.009;0.156;0.0073303827084600925;-0.010995574295520782;0.0036651913542300463
01:00:0A:00:00:00:00;1726790487;20/09/24;00:01:27;1.008;0.009;0.155;0.0073303827084600925;-0.010995574295520782;0.0036651913542300463
01:00:0A:00:00:00:00;1726790488;20/09/24;00:01:28;1.008;0.01;0.155;0.0073303827084600925;-0.010995574295520782;0.004886921960860491
01:00:0A:00:00:00:00;1726790489;20/09/24;00:01:29;1.008;0.01;0.156;0.0073303827084600925;-0.010995574295520782;0.0036651913542300463
01:00:0A:00:00:00:00;1726790490;20/09/24;00:01:30;1.009;0.01;0.155;0.006108652334660292;-0.010995574295520782;0.0036651913542300463
01:00:0A:00:00:00:00;1726790491;20/09/24;00:01:31;1.009;0.009;0.155;0.006108652334660292;-0.010995574295520782;0.0036651913542300463
01:00:0A:00:00:00:00;1726790492;20/09/24;00:01:32;1.009;0.009;0.155;0.006108652334660292;-0.010995574295520782;0.0036651913542300463
01:00:0A:00:00:00:00;1726790493;20/09/24;00:01:33;1.008;0.008;0.156;0.006108652334660292;-0.010995574295520782;0.0036651913542300463
01:00:0A:00:00:00:00;1726790494;20/09/24;00:01:34;1.008;0.009;0.156;0.006108652334660292;-0.010995574295520782;0.0036651913542300463
01:00:0A:00:00:00:00;1726790495;20/09/24;00:01:35;1.009;0.008;0.156;0.004886921960860491;-0.010995574295520782;0.0036651913542300463
01:00:0A:00:00:00:00;1726790496;20/09/24;00:01:36;1.008;0.01;0.157;0.004886921960860491;-0.010995574295520782;0.0024434609804302454
01:00:0A:00:00:00:00;1726790497;20/09/24;00:01:37;1.009;0.01;0.155;0.004886921960860491;-0.012217304669320583;0.0036651913542300463
01:00:0A:00:00:00:00;1726790498;20/09/24;00:01:38;1.008;0.009;0.156;0.004886921960860491;-0.010995574295520782;0.0024434609804302454
01:00:0A:00:00:00:00;1726790499;20/09/24;00:01:39;1.01;0.009;0.156;0.004886921960860491;-0.010995574295520782;0.0036651913542300463
01:00:0A:00:00:00:00;1726790500;20/09/24;00:01:40;1.009;0.01;0.157;0.004886921960860491;-0.010995574295520782;0.0024434609804302454
01:00:0A:00:00:00:00;1726790501;20/09/24;00:01:41;1.009;0.009;0.156;0.0036651913542300463;-0.012217304669320583;0.0036651913542300463
01:00:0A:00:00:00:00;1726790502;20/09/24;00:01:42;1.008;0.01;0.155;0.0036651913542300463;-0.010995574295520782;0.0036651913542300463
01:00:0A:00:00:00:00;1726790503;20/09/24;00:01:43;1.008;0.009;0.155;0.0036651913542300463;-0.012217304669320583;0.0036651913542300463
01:00:0A:00:00:00:00;1726790504;20/09/24;00:01:44;1.009;0.01;0.156;0.0036651913542300463;-0.010995574295520782;0.0024434609804302454
01:00:0A:00:00:00:00;1726790505;20/09/24;00:01:45;1.009;0.009;0.155;0.0024434609804302454;-0.010995574295520782;0.0036651913542300463
01:00:0A:00:00:00:00;1726790506;20/09/24;00:01:46;1.009;0.011;0.155;0.0024434609804302454;-0.010995574295520782;0.0024434609804302454
01:00:0A:00:00:00:00;1726790507;20/09/24;00:01:47;1.008;0.01;0.156;0.0024434609804302454;-0.010995574295520782;0.0036651913542300463
01:00:0A:00:00:00:00;1726790508;20/09/24;00:01:48;1.009;0.01;0.156;0.0024434609804302454;-0.010995574295520782;0.0024434609804302454
01:00:0A:00:00:00:00;1726790509;20/09/24;00:01:49;1.009;0.01;0.155;0.0024434609804302454;-0.010995574295520782;0.0036651913542300463
01:00:0A:00:00:00:00;1726790510;20/09/24;00:01:50;1.009;0.008;0.155;0.0024434609804302454;-0.010995574295520782;0.0024434609804302454
01:00:0A:00:00:00:00;1726790511;20/09/24;00:01:51;1.009;0.01;0.155;0.0024434609804302454;-0.012217304669320583;0.0036651913542300463
01:00:0A:00:00:00:00;1726790512;20/09/24;00:01:52;1.008;0.011;0.155;0.0012217304902151227;-0.010995574295520782;0.0036651913542300463
01:00:0A:00:00:00:00;1726790513;20/09/24;00:01:53;1.01;0.01;0.157;0.0012217304902151227;-0.010995574295520782;0.0036651913542300463
01:00:0A:00:00:00:00;1726790514;20/09/24;00:01:54;1.009;0.01;0.154;0.0012217304902151227;-0.010995574295520782;0.0036651913542300463
01:00:0A:00:00:00:00;1726790515;20/09/24;00:01:55;1.008;0.01;0.157;0.0012217304902151227;-0.010995574295520782;0.0036651913542300463
01:00:0A:00:00:00:00;1726790516;20/09/24;00:01:56;1.009;0.01;0.155;0.0012217304902151227;-0.010995574295520782;0.0036651913542300463
01:00:0A:00:00:00:00;1726790517;20/09/24;00:01:57;1.008;0.01;0.155;0.0012217304902151227;-0.010995574295520782;0.0036651913542300463
01:00:0A:00:00:00:00;1726790518;20/09/24;00:01:58;1.008;0.011;0.156;0.0012217304902151227;-0.010995574295520782;0.0036651913542300463
01:00:0A:00:00:00:00;1726790519;20/09/24;00:01:59;1.009;0.011;0.156;0.0012217304902151227;-0.010995574295520782;0.0036651913542300463
01:00:0A:00:00:00:00;1726790520;20/09/24;00:02:00;1.008;0.009;0.155;0.0;-0.010995574295520782;0.0036651913542300463
01:00:0A:00:00:00:00;1726790521;20/09/24;00:02:01;1.009;0.011;0.155;0.0012217304902151227;-0.010995574295520782;0.0024434609804302454
01:00:0A:00:00:00:00;1726790522;20/09/24;00:02:02;1.009;0.01;0.155;0.0;-0.010995574295520782;0.0036651913542300463
01:00:0A:00:00:00:00;1726790523;20/09/24;00:02:03;1.008;0.01;0.154;0.0;-0.010995574295520782;0.0024434609804302454
01:00:0A:00:00:00:00;1726790524;20/09/24;00:02:04;1.009;0.011;0.156;0.0;-0.010995574295520782;0.0024434609804302454
01:00:0A:00:00:00:00;1726790525;20/09/24;00:02:05;1.009;0.01;0.155;0.0;-0.010995574295520782;0.0036651913542300463
01:00:0A:00:00:00:00;1726790526;20/09/24;00:02:06;1.008;0.01;0.155;0.0;-0.010995574295520782;0.0024434609804302454
01:00:0A:00:00:00:00;1726790527;20/09/24;00:02:07;1.009;0.01;0.155;0.0;-0.010995574295520782;0.0036651913542300463
01:00:0A:00:00:00:00;1726790528;20/09/24;00:02:08;1.008;0.011;0.156;0.0;-0.010995574295520782;0.0024434609804302454
01:00:0A:00:00:00:00;1726790529;20/09/24;00:02:09;1.009;0.01;0.155;0.0;-0.010995574295520782;0.0036651913542300463
01:00:0A:00:00:00:00;1726790530;20/09/24;00:02:10;1.009;0.01;0.156;0.0;-0.010995574295520782;0.0024434609804302454
01:00:0A:00:00:00:00;1726790531;20/09/24;00:02:11;1.009;0.011;0.154;0.0;-0.010995574295520782;0.0036651913542300463
01:00:0A:00:00:00:00;1726790532;20/09/24;00:02:12;1.008;0.011;0.156;0.0;-0.010995574295520782;0.0024434609804302454
01:00:0A:00:00:00:00;1726790533;20/09/24;00:02:13;1.008;0.01;0.155;0.0;-0.012217304669320583;0.0036651913542300463
01:00:0A:00:00:00:00;1726790534;20/09/24;00:02:14;1.009;0.01;0.156;0.0;-0.010995574295520782;0.0024434609804302454
01:00:0A:00:00:00:00;1726790535;20/09/24;00:02:15;1.009;0.009;0.155;0.0;-0.012217304669320583;0.0036651913542300463
01:00:0A:00:00:00:00;1726790536;20/09/24;00:02:16;1.008;0.01;0.155;0.0;-0.010995574295520782;0.0024434609804302454
01:00:0A:00:00:00:00;1726790537;20/09/24;00:02:17;1.009;0.01;0.156;0.0;-0.012217304669320583;0.0036651913542300463
01:00:0A:00:00:00:00;1726790538;20/09/24;00:02:18;1.007;0.01;0.154;0.0;-0.010995574295520782;0.0024434609804302454
01:00:0A:00:00:00:00;1726790539;20/09/24;00:02:19;1.01;0.01;0.156;0.0;-0.010995574295520782;0.0036651913542300463
01:00:0A:00:00:00:00;1726790540;20/09/24;00:02:20;1.009;0.01;0.155;0.0;-0.010995574295520782;0.0024434609804302454
01:00:0A:00:00:00:00;1726790541;20/09/24;00:02:21;1.009;0.01;0.155;0.0;-0.010995574295520782;0.0036651913542300463
01:00:0A:00:00:00:00;1726790542;20/09/24;00:02:22;1.008;0.01;0.155;0.0;-0.010995574295520782;0.0024434609804302454
01:00:0A:00:00:00:00;1726790543;20/09/24;00:02:23;1.009;0.01;0.156;0.0;-0.012217304669320583;0.0036651913542300463
01:00:0A:00:00:00:00;1726790544;20/09/24;00:02:24;1.009;0.011;0.154;0.0;-0.010995574295520782;0.0024434609804302454
01:00:0A:00:00:00:00;1726790545;20/09/24;00:02:25;1.008;0.01;0.155;0.0;-0.012217304669320583;0.0036651913542300463
01:00:0A:00:00:00:00;1726790546;20/09/24;00:02:26;1.009;0.01;0.156;0.0;-0.010995574295520782;0.0024434609804302454
01:00:0A:00:00:00:00;1726790547;20/09/24;00:02:27;1.009;0.01;0.155;0.0012217304902151227;-0.012217304669320583;0.0024434609804302454
01:00:0A:00:00:00:00;1726790548;20/09/24;00:02:28;1.008;0.011;0.155;0.0012217304902151227;-0.010995574295520782;0.0024434609804302454
01:00:0A:00:00:00:00;1726790549;20/09/24;00:02:29;1.008;0.01;0.155;0.0012217304902151227;-0.010995574295520782;0.0024434609804302454
01:00:0A:00:00:00:00;1726790550;20/09/24;00:02:30;1.01;0.011;0.155;0.0012217304902151227;-0.012217304669320583;0.0024434609804302454
01:00:0A:00:00:00:00;1726790551;20/09/24;00:02:31;1.008;0.01;0.155;0.0012217304902151227;-0.010995574295520782;0.0036651913542300463
01:00:0A:00:00:00:00;1726790552;20/09/24;00:02:32;1.008;0.009;0.156;0.0012217304902151227;-0.010995574295520782;0.0024434609804302454
01:00:0A:00:00:00:00;1726790553;20/09/24;00:02:33;1.008;0.009;0.156;0.0012217304902151227;-0.010995574295520782;0.0036651913542300463
01:00:0A:00:00:00:00;1726790554;20/09/24;00:02:34;1.008;0.01;0.155;0.0012217304902151227;-0.010995574295520782;0.0036651913542300463
01:00:0A:00:00:00:00;1726790555;20/09/24;00:02:35;1.008;0.009;0.155;0.0012217304902151227;-0.010995574295520782;0.0024434609804302454
01:00:0A:00:00:00:00;1726790556;20/09/24;00:02:36;1.008;0.011;0.155;0.0012217304902151227;-0.010995574295520782;0.0036651913542300463
01:00:0A:00:00:00:00;1726790557;20/09/24;00:02:37;1.008;0.01;0.155;0.0024434609804302454;-0.012217304669320583;0.0024434609804302454
01:00:0A:00:00:00:00;1726790558;20/09/24;00:02:38;1.009;0.01;0.156;0.0024434609804302454;-0.010995574295520782;0.0036651913542300463
01:00:0A:00:00:00:00;1726790559;20/09/24;00:02:39;1.008;0.01;0.155;0.0024434609804302454;-0.010995574295520782;0.0024434609804302454
01:00:0A:00:00:00:00;1726790560;20/09/24;00:02:40;1.008;0.01;0.154;0.0024434609804302454;-0.010995574295520782;0.0024434609804302454
01:00:0A:00:00:00:00;1726790561;20/09/24;00:02:41;1.009;0.01;0.155;0.0024434609804302454;-0.010995574295520782;0.0036651913542300463
01:00:0A:00:00:00:00;1726790562;20/09/24;00:02:42;1.009;0.01;0.155;0.0024434609804302454;-0.010995574295520782;0.0024434609804302454
01:00:0A:00:00:00:00;1726790563;20/09/24;00:02:43;1.01;0.009;0.154;0.0012217304902151227;-0.010995574295520782;0.0036651913542300463
01:00:0A:00:00:00:00;1726790564;20/09/24;00:02:44;1.008;0.01;0.155;0.0024434609804302454;-0.010995574295520782;0.0024434609804302454
01:00:0A:00:00:00:00;1726790565;20/09/24;00:02:45;1.01;0.009;0.155;0.0024434609804302454;-0.010995574295520782;0.0036651913542300463
01:00:0A:00:00:00:00;1726790566;20/09/24;00:02:46;1.008;0.009;0.155;0.0024434609804302454;-0.010995574295520782;0.0036651913542300463
01:00:0A:00:00:00:00;1726790567;20/09/24;00:02:47;1.009;0.01;0.155;0.0024434609804302454;-0.012217304669320583;0.0036651913542300463
01:00:0A:00:00:00:00;1726790568;20/09/24;00:02:48;1.009;0.01;0.155;0.0024434609804302454;-0.010995574295520782;0.0036651913542300463
01:00:0A:00:00:00:00;1726790569;20/09/24;00:02:49;1.01;0.01;0.155;0.0024434609804302454;-0.012217304669320583;0.0036651913542300463
01:00:0A:00:00:00:00;1726790570;20/09/24;00:02:50;1.009;0.01;0.154;0.0024434609804302454;-0.010995574295520782;0.0036651913542300463
01:00:0A:00:00:00:00;1726790571;20/09/24;00:02:51;1.009;0.011;0.155;0.0024434609804302454;-0.012217304669320583;0.0036651913542300463
01:00:0A:00:00:00:00;1726790572;20/09/24;00:02:52;1.008;0.009;0.156;0.0024434609804302454;-0.010995574295520782;0.0024434609804302454
01:00:0A:00:00:00:00;1726790573;20/09/24;00:02:53;1.008;0.01;0.156;0.0024434609804302454;-0.010995574295520782;0.0036651913542300463
01:00:0A:00:00:00:00;1726790574;20/09/24;00:02:54;1.01;0.009;0.155;0.0024434609804302454;-0.010995574295520782;0.0024434609804302454
01:00:0A:00:00:00:00;1726790575;20/09/24;00:02:55;1.009;0.01;0.155;0.0024434609804302454;-0.010995574295520782;0.0036651913542300463
01:00:0A:00:00:00:00;1726790576;20/09/24;00:02:56;1.009;0.01;0.155;0.0024434609804302454;-0.010995574295520782;0.0024434609804302454
01:00:0A:00:00:00:00;1726790577;20/09/24;00:02:57;1.008;0.011;0.156;0.0024434609804302454;-0.010995574295520782;0.0036651913542300463
01:00:0A:00:00:00:00;1726790578;20/09/24;00:02:58;1.008;0.01;0.155;0.0024434609804302454;-0.010995574295520782;0.0024434609804302454
01:00:0A:00:00:00:00;1726790579;20/09/24;00:02:59;1.008;0.011;0.156;0.0024434609804302454;-0.010995574295520782;0.0024434609804302454
01:00:0A:00:00:00:00;1726790580;20/09/24;00:03:00;1.009;0.009;0.154;0.0024434609804302454;-0.010995574295520782;0.0036651913542300463
01:00:0A:00:00:00:00;1726790581;20/09/24;00:03:01;1.008;0.009;0.156;0.0024434609804302454;-0.012217304669320583;0.0024434609804302454
01:00:0A:00:00:00:00;1726790582;20/09/24;00:03:02;1.01;0.011;0.155;0.0024434609804302454;-0.010995574295520782;0.0036651913542300463
01:00:0A:00:00:00:00;1726790583;20/09/24;00:03:03;1.008;0.009;0.155;0.0024434609804302454;-0.010995574295520782;0.0036651913542300463
01:00:0A:00:00:00:00;1726790584;20/09/24;00:03:04;1.009;0.01;0.154;0.0024434609804302454;-0.010995574295520782;0.0036651913542300463
01:00:0A:00:00:00:00;1726790585;20/09/24;00:03:05;1.007;0.009;0.155;0.0024434609804302454;-0.010995574295520782;0.0036651913542300463
01:00:0A:00:00:00:00;1726790586;20/09/24;00:03:06;1.009;0.01;0.155;0.0024434609804302454;-0.010995574295520782;0.0036651913542300463
01:00:0A:00:00:00:00;1726790587;20/09/24;00:03:07;1.007;0.009;0.155;0.0024434609804302454;-0.010995574295520782;0.0036651913542300463
01:00:0A:00:00:00:00;1726790588;20/09/24;00:03:08;1.009;0.009;0.154;0.0024434609804302454;-0.010995574295520782;0.0036651913542300463
01:00:0A:00:00:00:00;1726790589;20/09/24;00:03:09;1.008;0.01;0.154;0.0024434609804302454;-0.010995574295520782;0.0036651913542300463
01:00:0A:00:00:00:00;1726790590;20/09/24;00:03:10;1.009;0.011;0.156;0.0012217304902151227;-0.010995574295520782;0.0036651913542300463
01:00:0A:00:00:00:00;1726790591;20/09/24;00:03:11;1.008;0.01;0.155;0.0012217304902151227;-0.010995574295520782;0.0036651913542300463
01:00:0A:00:00:00:00;1726790592;20/09/24;00:03:12;1.009;0.01;0.155;0.0012217304902151227;-0.010995574295520782;0.0036651913542300463
01:00:0A:00:00:00:00;1726790593;20/09/24;00:03:13;1.009;0.01;0.156;0.0012217304902151227;-0.010995574295520782;0.0024434609804302454
01:00:0A:00:00:00:00;1726790594;20/09/24;00:03:14;1.01;0.01;0.154;0.0012217304902151227;-0.010995574295520782;0.0024434609804302454
01:00:0A:00:00:00:00;1726790595;20/09/24;00:03:15;1.008;0.01;0.155;0.0012217304902151227;-0.010995574295520782;0.0036651913542300463
01:00:0A:00:00:00:00;1726790596;20/09/24;00:03:16;1.008;0.01;0.154;0.0012217304902151227;-0.010995574295520782;0.0024434609804302454
01:00:0A:00:00:00:00;1726790597;20/09/24;00:03:17;1.008;0.01;0.155;0.0;-0.010995574295520782;0.0036651913542300463
01:00:0A:00:00:00:00;1726790598;20/09/24;00:03:18;1.009;0.01;0.155;0.0012217304902151227;-0.010995574295520782;0.0024434609804302454
01:00:0A:00:00:00:00;1726790599;20/09/24;00:03:19;1.009;0.01;0.155;0.0;-0.012217304669320583;0.0036651913542300463
01:00:0A:00:00:00:00;1726790600;20/09/24;00:03:20;1.009;0.01;0.155;0.0;-0.010995574295520782;0.0024434609804302454
01:00:0A:00:00:00:00;1726790601;20/09/24;00:03:21;1.009;0.01;0.154;0.0;-0.012217304669320583;0.0036651913542300463
01:00:0A:00:00:00:00;1726790602;20/09/24;00:03:22;1.009;0.01;0.154;0.0;-0.010995574295520782;0.0024434609804302454
01:00:0A:00:00:00:00;1726790603;20/09/24;00:03:23;1.008;0.01;0.154;0.0;-0.012217304669320583;0.0024434609804302454
01:00:0A:00:00:00:00;1726790604;20/09/24;00:03:24;1.008;0.011;0.156;0.0;-0.010995574295520782;0.0024434609804302454
01:00:0A:00:00:00:00;1726790605;20/09/24;00:03:25;1.009;0.01;0.154;-0.0012217304902151227;-0.012217304669320583;0.0024434609804302454
01:00:0A:00:00:00:00;1726790606;20/09/24;00:03:26;1.009;0.01;0.154;-0.0012217304902151227;-0.010995574295520782;0.0024434609804302454
01:00:0A:00:00:00:00;1726790607;20/09/24;00:03:27;1.009;0.01;0.155;-0.0012217304902151227;-0.012217304669320583;0.0024434609804302454
01:00:0A:00:00:00:00;1726790608;20/09/24;00:03:28;1.009;0.009;0.155;-0.0012217304902151227;-0.010995574295520782;0.0024434609804302454
01:00:0A:00:00:00:00;1726790609;20/09/24;00:03:29;1.009;0.01;0.154;-0.0012217304902151227;-0.010995574295520782;0.0036651913542300463
01:00:0A:00:00:00:00;1726790610;20/09/24;00:03:30;1.008;0.009;0.155;-0.0024434609804302454;-0.010995574295520782;0.0024434609804302454
01:00:0A:00:00:00:00;1726790611;20/09/24;00:03:31;1.009;0.011;0.155;-0.0024434609804302454;-0.012217304669320583;0.0024434609804302454
01:00:0A:00:00:00:00;1726790612;20/09/24;00:03:32;1.009;0.011;0.156;-0.0024434609804302454;-0.010995574295520782;0.0024434609804302454
01:00:0A:00:00:00:00;1726790613;20/09/24;00:03:33;1.009;0.01;0.155;-0.0024434609804302454;-0.010995574295520782;0.0024434609804302454
01:00:0A:00:00:00:00;1726790614;20/09/24;00:03:34;1.008;0.009;0.155;-0.0024434609804302454;-0.010995574295520782;0.0024434609804302454
01:00:0A:00:00:00:00;1726790615;20/09/24;00:03:35;1.009;0.01;0.154;-0.0024434609804302454;-0.012217304669320583;0.0024434609804302454
01:00:0A:00:00:00:00;1726790616;20/09/24;00:03:36;1.009;0.01;0.155;-0.0024434609804302454;-0.010995574295520782;0.0036651913542300463
01:00:0A:00:00:00:00;1726790617;20/09/24;00:03:37;1.008;0.011;0.155;-0.0024434609804302454;-0.010995574295520782;0.0024434609804302454
01:00:0A:00:00:00:00;1726790618;20/09/24;00:03:38;1.009;0.01;0.155;-0.0024434609804302454;-0.010995574295520782;0.0024434609804302454
01:00:0A:00:00:00:00;1726790619;20/09/24;00:03:39;1.008;0.011;0.155;-0.0036651913542300463;-0.010995574295520782;0.0024434609804302454
01:00:0A:00:00:00:00;1726790620;20/09/24;00:03:40;1.009;0.011;0.155;-0.0036651913542300463;-0.010995574295520782;0.0024434609804302454
01:00:0A:00:00:00:00;1726790621;20/09/24;00:03:41;1.01;0.011;0.156;-0.0036651913542300463;-0.010995574295520782;0.0024434609804302454
01:00:0A:00:00:00:00;1726790622;20/09/24;00:03:42;1.009;0.01;0.155;-0.0036651913542300463;-0.012217304669320583;0.0024434609804302454
01:00:0A:00:00:00:00;1726790623;20/09/24;00:03:43;1.008;0.01;0.155;-0.0036651913542300463;-0.010995574295520782;0.0024434609804302454
01:00:0A:00:00:00:00;1726790624;20/09/24;00:03:44;1.008;0.01;0.156;-0.0036651913542300463;-0.010995574295520782;0.0024434609804302454
01:00:0A:00:00:00:00;1726790625;20/09/24;00:03:45;1.008;0.01;0.156;-0.0036651913542300463;-0.010995574295520782;0.0024434609804302454
01:00:0A:00:00:00:00;1726790626;20/09/24;00:03:46;1.009;0.009;0.156;-0.0036651913542300463;-0.010995574295520782;0.0024434609804302454
01:00:0A:00:00:00:00;1726790627;20/09/24;00:03:47;1.008;0.01;0.155;-0.0036651913542300463;-0.010995574295520782;0.0024434609804302454
01:00:0A:00:00:00:00;1726790628;20/09/24;00:03:48;1.008;0.01;0.155;-0.0036651913542300463;-0.010995574295520782;0.0024434609804302454
01:00:0A:00:00:00:00;1726790629;20/09/24;00:03:49;1.009;0.009;0.155;-0.0036651913542300463;-0.012217304669320583;0.0024434609804302454
01:00:0A:00:00:00:00;1726790630;20/09/24;00:03:50;1.008;0.01;0.155;-0.0036651913542300463;-0.010995574295520782;0.0024434609804302454
01:00:0A:00:00:00:00;1726790631;20/09/24;00:03:51;1.008;0.01;0.155;-0.004886921960860491;-0.012217304669320583;0.0024434609804302454
01:00:0A:00:00:00:00;1726790632;20/09/24;00:03:52;1.009;0.009;0.155;-0.004886921960860491;-0.010995574295520782;0.0024434609804302454
01:00:0A:00:00:00:00;1726790633;20/09/24;00:03:53;1.007;0.01;0.155;-0.004886921960860491;-0.010995574295520782;0.0024434609804302454
01:00:0A:00:00:00:00;1726790634;20/09/24;00:03:54;1.009;0.009;0.154;-0.004886921960860491;-0.010995574295520782;0.0024434609804302454
01:00:0A:00:00:00:00;1726790635;20/09/24;00:03:55;1.01;0.01;0.156;-0.004886921960860491;-0.010995574295520782;0.0024434609804302454
01:00:0A:00:00:00:00;1726790636;20/09/24;00:03:56;1.009;0.011;0.155;-0.004886921960860491;-0.010995574295520782;0.0024434609804302454
01:00:0A:00:00:00:00;1726790637;20/09/24;00:03:57;1.009;0.011;0.155;-0.004886921960860491;-0.012217304669320583;0.0012217304902151227
01:00:0A:00:00:00:00;1726790638;20/09/24;00:03:58;1.008;0.011;0.155;-0.004886921960860491;-0.010995574295520782;0.0024434609804302454
01:00:0A:00:00:00:00;1726790639;20/09/24;00:03:59;1.009;0.009;0.155;-0.004886921960860491;-0.012217304669320583;0.0024434609804302454
01:00:0A:00:00:00:00;1726790640;20/09/24;00:04:00;1.008;0.01;0.156;-0.004886921960860491;-0.010995574295520782;0.0024434609804302454
01:00:0A:00:00:00:00;1726790641;20/09/24;00:04:01;1.008;0.009;0.155;-0.004886921960860491;-0.012217304669320583;0.0024434609804302454
01:00:0A:00:00:00:00;1726790642;20/09/24;00:04:02;1.009;0.01;0.155;-0.006108652334660292;-0.010995574295520782;0.0024434609804302454
01:00:0A:00:00:00:00;1726790643;20/09/24;00:04:03;1.009;0.01;0.155;-0.006108652334660292;-0.010995574295520782;0.0024434609804302454
01:00:0A:00:00:00:00;1726790644;20/09/24;00:04:04;1.008;0.01;0.155;-0.006108652334660292;-0.010995574295520782;0.0012217304902151227
01:00:0A:00:00:00:00;1726790645;20/09/24;00:04:05;1.009;0.01;0.156;-0.006108652334660292;-0.012217304669320583;0.0024434609804302454
01:00:0A:00:00:00:00;1726790646;20/09/24;00:04:06;1.009;0.01;0.156;-0.006108652334660292;-0.010995574295520782;0.0024434609804302454
01:00:0A:00:00:00:00;1726790647;20/09/24;00:04:07;1.009;0.01;0.155;-0.006108652334660292;-0.012217304669320583;0.0012217304902151227
01:00:0A:00:00:00:00;1726790648;20/09/24;00:04:08;1.008;0.01;0.156;-0.006108652334660292;-0.010995574295520782;0.0024434609804302454
01:00:0A:00:00:00:00;1726790649;20/09/24;00:04:09;1.009;0.01;0.157;-0.006108652334660292;-0.010995574295520782;0.0012217304902151227
01:00:0A:00:00:00:00;1726790650;20/09/24;00:04:10;1.008;0.011;0.157;-0.006108652334660292;-0.010995574295520782;0.0024434609804302454
01:00:0A:00:00:00:00;1726790651;20/09/24;00:04:11;1.009;0.009;0.156;-0.006108652334660292;-0.010995574295520782;0.0024434609804302454
01:00:0A:00:00:00:00;1726790652;20/09/24;00:04:12;1.009;0.01;0.156;-0.006108652334660292;-0.010995574295520782;0.0024434609804302454
01:00:0A:00:00:00:00;1726790653;20/09/24;00:04:13;1.009;0.01;0.155;-0.0073303827084600925;-0.010995574295520782;0.0024434609804302454
01:00:0A:00:00:00:00;1726790654;20/09/24;00:04:14;1.009;0.011;0.156;-0.0073303827084600925;-0.010995574295520782;0.0024434609804302454
01:00:0A:00:00:00:00;1726790655;20/09/24;00:04:15;1.009;0.011;0.156;-0.0073303827084600925;-0.010995574295520782;0.0024434609804302454
01:00:0A:00:00:00:00;1726790656;20/09/24;00:04:16;1.009;0.009;0.155;-0.0073303827084600925;-0.012217304669320583;0.0012217304902151227
01:00:0A:00:00:00:00;1726790657;20/09/24;00:04:17;1.009;0.01;0.155;-0.0073303827084600925;-0.010995574295520782;0.0012217304902151227
01:00:0A:00:00:00:00;1726790658;20/09/24;00:04:18;1.009;0.009;0.155;-0.0073303827084600925;-0.012217304669320583;0.0024434609804302454
01:00:0A:00:00:00:00;1726790659;20/09/24;00:04:19;1.01;0.01;0.156;-0.0073303827084600925;-0.010995574295520782;0.0012217304902151227
01:00:0A:00:00:00:00;1726790660;20/09/24;00:04:20;1.008;0.01;0.155;-0.0073303827084600925;-0.010995574295520782;0.0024434609804302454
01:00:0A:00:00:00:00;1726790661;20/09/24;00:04:21;1.009;0.01;0.155;-0.0073303827084600925;-0.010995574295520782;0.0012217304902151227
01:00:0A:00:00:00:00;1726790662;20/09/24;00:04:22;1.01;0.01;0.156;-0.0073303827084600925;-0.012217304669320583;0.0024434609804302454
01:00:0A:00:00:00:00;1726790663;20/09/24;00:04:23;1.008;0.011;0.155;-0.0073303827084600925;-0.012217304669320583;0.0012217304902151227
01:00:0A:00:00:00:00;1726790664;20/09/24;00:04:24;1.008;0.01;0.155;-0.0073303827084600925;-0.010995574295520782;0.0024434609804302454
01:00:0A:00:00:00:00;1726790665;20/09/24;00:04:25;1.009;0.01;0.155;-0.0073303827084600925;-0.012217304669320583;0.0024434609804302454
01:00:0A:00:00:00:00;1726790666;20/09/24;00:04:26;1.009;0.011;0.156;-0.0073303827084600925;-0.010995574295520782;0.0012217304902151227
01:00:0A:00:00:00:00;1726790667;20/09/24;00:04:27;1.009;0.011;0.156;-0.0073303827084600925;-0.010995574295520782;0.0024434609804302454
01:00:0A:00:00:00:00;1726790668;20/09/24;00:04:28;1.009;0.011;0.156;-0.0073303827084600925;-0.010995574295520782;0.0012217304902151227
01:00:0A:00:00:00:00;1726790669;20/09/24;00:04:29;1.008;0.011;0.156;-0.0073303827084600925;-0.010995574295520782;0.0012217304902151227
01:00:0A:00:00:00:00;1726790670;20/09/24;00:04:30;1.008;0.01;0.155;-0.0073303827084600925;-0.010995574295520782;0.0024434609804302454
01:00:0A:00:00:00:00;1726790671;20/09/24;00:04:31;1.008;0.011;0.155;-0.0073303827084600925;-0.012217304669320583;0.0012217304902151227
01:00:0A:00:00:00:00;1726790672;20/09/24;00:04:32;1.009;0.01;0.155;-0.0073303827084600925;-0.010995574295520782;0.0024434609804302454
01:00:0A:00:00:00:00;1726790673;20/09/24;00:04:33;1.008;0.009;0.155;-0.0073303827084600925;-0.010995574295520782;0.0012217304902151227
01:00:0A:00:00:00:00;1726790674;20/09/24;00:04:34;1.008;0.01;0.155;-0.00855211354792118;-0.010995574295520782;0.0012217304902151227
01:00:0A:00:00:00:00;1726790675;20/09/24;00:04:35;1.009;0.01;0.156;-0.0073303827084600925;-0.012217304669320583;0.0024434609804302454
01:00:0A:00:00:00:00;1726790676;20/09/24;00:04:36;1.009;0.01;0.155;-0.0073303827084600925;-0.010995574295520782;0.0012217304902151227
01:00:0A:00:00:00:00;1726790677;20/09/24;00:04:37;1.009;0.01;0.155;-0.0073303827084600925;-0.012217304669320583;0.0024434609804302454
01:00:0A:00:00:00:00;1726790678;20/09/24;00:04:38;1.009;0.011;0.155;-0.0073303827084600925;-0.010995574295520782;0.0012217304902151227
01:00:0A:00:00:00:00;1726790679;20/09/24;00:04:39;1.008;0.01;0.155;-0.0073303827084600925;-0.010995574295520782;0.0024434609804302454
01:00:0A:00:00:00:00;1726790680;20/09/24;00:04:40;1.008;0.01;0.156;-0.0073303827084600925;-0.010995574295520782;0.0012217304902151227
01:00:0A:00:00:00:00;1726790681;20/09/24;00:04:41;1.008;0.01;0.156;-0.0073303827084600925;-0.010995574295520782;0.0012217304902151227
01:00:0A:00:00:00:00;1726790682;20/09/24;00:04:42;1.009;0.011;0.156;-0.0073303827084600925;-0.012217304669320583;0.0024434609804302454
01:00:0A:00:00:00:00;1726790683;20/09/24;00:04:43;1.009;0.01;0.156;-0.0073303827084600925;-0.010995574295520782;0.0012217304902151227
01:00:0A:00:00:00:00;1726790684;20/09/24;00:04:44;1.009;0.01;0.155;-0.0073303827084600925;-0.012217304669320583;0.0024434609804302454
01:00:0A:00:00:00:00;1726790685;20/09/24;00:04:45;1.009;0.01;0.156;-0.0073303827084600925;-0.010995574295520782;0.0012217304902151227
01:00:0A:00:00:00:00;1726790686;20/09/24;00:04:46;1.01;0.011;0.156;-0.0073303827084600925;-0.010995574295520782;0.0024434609804302454
01:00:0A:00:00:00:00;1726790687;20/09/24;00:04:47;1.009;0.011;0.155;-0.0073303827084600925;-0.010995574295520782;0.0024434609804302454
01:00:0A:00:00:00:00;1726790688;20/09/24;00:04:48;1.008;0.01;0.156;-0.0073303827084600925;-0.010995574295520782;0.0024434609804302454
01:00:0A:00:00:00:00;1726790689;20/09/24;00:04:49;1.009;0.009;0.156;-0.0073303827084600925;-0.010995574295520782;0.0024434609804302454
01:00:0A:00:00:00:00;1726790690;20/09/24;00:04:50;1.007;0.011;0.156;-0.0073303827084600925;-0.010995574295520782;0.0024434609804302454
01:00:0A:00:00:00:00;1726790691;20/09/24;00:04:51;1.008;0.01;0.156;-0.0073303827084600925;-0.010995574295520782;0.0024434609804302454
01:00:0A:00:00:00:00;1726790692;20/09/24;00:04:52;1.009;0.01;0.156;-0.0073303827084600925;-0.010995574295520782;0.0024434609804302454
01:00:0A:00:00:00:00;1726790693;20/09/24;00:04:53;1.009;0.01;0.155;-0.006108652334660292;-0.010995574295520782;0.0012217304902151227
01:00:0A:00:00:00:00;1726790694;20/09/24;00:04:54;1.008;0.01;0.156;-0.006108652334660292;-0.012217304669320583;0.0024434609804302454
01:00:0A:00:00:00:00;1726790695;20/09/24;00:04:55;1.009;0.01;0.154;-0.006108652334660292;-0.010995574295520782;0.0012217304902151227
01:00:0A:00:00:00:00;1726790696;20/09/24;00:04:56;1.008;0.01;0.155;-0.006108652334660292;-0.010995574295520782;0.0024434609804302454
01:00:0A:00:00:00:00;1726790696;20/09/24;00:04:56;1.009;0.008;0.155;-0.006108652334660292;-0.010995574295520782;0.0024434609804302454
01:00:0A:00:00:00:00;1726790697;20/09/24;00:04:57;1.009;0.01;0.155;-0.006108652334660292;-0.010995574295520782;0.0024434609804302454
01:00:0A:00:00:00:00;1726790698;20/09/24;00:04:58;1.009;0.01;0.156;-0.006108652334660292;-0.012217304669320583;0.0024434609804302454
01:00:0A:00:00:00:00;1726790699;20/09/24;00:04:59;1.008;0.01;0.155;-0.006108652334660292;-0.010995574295520782;0.0024434609804302454
01:00:0A:00:00:00:00;1726790700;20/09/24;00:05:00;1.009;0.009;0.155;-0.006108652334660292;-0.012217304669320583;0.0012217304902151227
01:00:0A:00:00:00:00;1726790701;20/09/24;00:05:01;1.008;0.009;0.155;-0.004886921960860491;-0.010995574295520782;0.0024434609804302454
01:00:0A:00:00:00:00;1726790702;20/09/24;00:05:02;1.008;0.01;0.155;-0.004886921960860491;-0.010995574295520782;0.0024434609804302454
01:00:0A:00:00:00:00;1726790703;20/09/24;00:05:03;1.009;0.01;0.155;-0.004886921960860491;-0.010995574295520782;0.0024434609804302454
01:00:0A:00:00:00:00;1726790704;20/09/24;00:05:04;1.009;0.011;0.156;-0.004886921960860491;-0.010995574295520782;0.0024434609804302454
01:00:0A:00:00:00:00;1726790705;20/09/24;00:05:05;1.008;0.009;0.156;-0.004886921960860491;-0.010995574295520782;0.0024434609804302454
01:00:0A:00:00:00:00;1726790706;20/09/24;00:05:06;1.007;0.01;0.156;-0.004886921960860491;-0.010995574295520782;0.0024434609804302454
01:00:0A:00:00:00:00;1726790707;20/09/24;00:05:07;1.008;0.009;0.155;-0.004886921960860491;-0.010995574295520782;0.0024434609804302454
01:00:0A:00:00:00:00;1726790708;20/09/24;00:05:08;1.009;0.011;0.156;-0.004886921960860491;-0.010995574295520782;0.0024434609804302454
01:00:0A:00:00:00:00;1726790709;20/09/24;00:05:09;1.009;0.01;0.155;-0.004886921960860491;-0.010995574295520782;0.0024434609804302454
01:00:0A:00:00:00:00;1726790710;20/09/24;00:05:10;1.009;0.009;0.156;-0.004886921960860491;-0.012217304669320583;0.0024434609804302454
01:00:0A:00:00:00:00;1726790711;20/09/24;00:05:11;1.008;0.01;0.155;-0.004886921960860491;-0.010995574295520782;0.0024434609804302454
01:00:0A:00:00:00:00;1726790712;20/09/24;00:05:12;1.01;0.01;0.155;-0.0036651913542300463;-0.010995574295520782;0.0024434609804302454
01:00:0A:00:00:00:00;1726790713;20/09/24;00:05:13;1.007;0.009;0.156;-0.0036651913542300463;-0.010995574295520782;0.0024434609804302454
01:00:0A:00:00:00:00;1726790714;20/09/24;00:05:14;1.009;0.01;0.155;-0.0036651913542300463;-0.010995574295520782;0.0024434609804302454
01:00:0A:00:00:00:00;1726790715;20/09/24;00:05:15;1.008;0.009;0.156;-0.0036651913542300463;-0.010995574295520782;0.0024434609804302454
01:00:0A:00:00:00:00;1726790716;20/09/24;00:05:16;1.009;0.011;0.155;-0.0036651913542300463;-0.010995574295520782;0.0024434609804302454
01:00:0A:00:00:00:00;1726790717;20/09/24;00:05:17;1.008;0.011;0.155;-0.0036651913542300463;-0.010995574295520782;0.0024434609804302454
01:00:0A:00:00:00:00;1726790718;20/09/24;00:05:18;1.008;0.009;0.156;-0.0036651913542300463;-0.010995574295520782;0.0024434609804302454
01:00:0A:00:00:00:00;1726790719;20/09/24;00:05:19;1.009;0.01;0.156;-0.0036651913542300463;-0.010995574295520782;0.0024434609804302454
01:00:0A:00:00:00:00;1726790720;20/09/24;00:05:20;1.008;0.009;0.156;-0.0036651913542300463;-0.010995574295520782;0.0024434609804302454
01:00:0A:00:00:00:00;1726790721;20/09/24;00:05:21;1.008;0.01;0.155;-0.0024434609804302454;-0.010995574295520782;0.0024434609804302454
01:00:0A:00:00:00:00;1726790722;20/09/24;00:05:22;1.008;0.01;0.155;-0.0036651913542300463;-0.010995574295520782;0.0024434609804302454
01:00:0A:00:00:00:00;1726790723;20/09/24;00:05:23;1.009;0.01;0.154;-0.0024434609804302454;-0.010995574295520782;0.0024434609804302454
01:00:0A:00:00:00:00;1726790724;20/09/24;00:05:24;1.009;0.01;0.155;-0.0024434609804302454;-0.010995574295520782;0.0024434609804302454
01:00:0A:00:00:00:00;1726790725;20/09/24;00:05:25;1.008;0.01;0.155;-0.0024434609804302454;-0.010995574295520782;0.0024434609804302454
01:00:0A:00:00:00:00;1726790726;20/09/24;00:05:26;1.009;0.01;0.156;-0.0024434609804302454;-0.010995574295520782;0.0024434609804302454
01:00:0A:00:00:00:00;1726790727;20/09/24;00:05:27;1.009;0.01;0.156;-0.0024434609804302454;-0.010995574295520782;0.0024434609804302454
01:00:0A:00:00:00:00;1726790728;20/09/24;00:05:28;1.009;0.01;0.156;-0.0024434609804302454;-0.010995574295520782;0.0024434609804302454
01:00:0A:00:00:00:00;1726790729;20/09/24;00:05:29;1.008;0.01;0.155;-0.0024434609804302454;-0.010995574295520782;0.0024434609804302454
01:00:0A:00:00:00:00;1726790730;20/09/24;00:05:30;1.01;0.01;0.155;-0.0024434609804302454;-0.010995574295520782;0.0024434609804302454
01:00:0A:00:00:00:00;1726790731;20/09/24;00:05:31;1.009;0.009;0.155;-0.0024434609804302454;-0.010995574295520782;0.0024434609804302454
01:00:0A:00:00:00:00;1726790732;20/09/24;00:05:32;1.009;0.01;0.156;-0.0024434609804302454;-0.010995574295520782;0.0024434609804302454
01:00:0A:00:00:00:00;1726790733;20/09/24;00:05:33;1.008;0.01;0.155;-0.0024434609804302454;-0.010995574295520782;0.0024434609804302454
01:00:0A:00:00:00:00;1726790734;20/09/24;00:05:34;1.007;0.01;0.155;-0.0024434609804302454;-0.010995574295520782;0.0024434609804302454
01:00:0A:00:00:00:00;1726790735;20/09/24;00:05:35;1.008;0.01;0.156;-0.0012217304902151227;-0.010995574295520782;0.0024434609804302454
01:00:0A:00:00:00:00;1726790736;20/09/24;00:05:36;1.009;0.01;0.156;-0.0012217304902151227;-0.010995574295520782;0.0024434609804302454
01:00:0A:00:00:00:00;1726790737;20/09/24;00:05:37;1.008;0.011;0.156;-0.0024434609804302454;-0.010995574295520782;0.0024434609804302454
01:00:0A:00:00:00:00;1726790738;20/09/24;00:05:38;1.008;0.01;0.156;-0.0012217304902151227;-0.010995574295520782;0.0024434609804302454
01:00:0A:00:00:00:00;1726790739;20/09/24;00:05:39;1.009;0.01;0.156;-0.0012217304902151227;-0.012217304669320583;0.0024434609804302454
01:00:0A:00:00:00:00;1726790740;20/09/24;00:05:40;1.009;0.009;0.155;-0.0012217304902151227;-0.010995574295520782;0.0024434609804302454
01:00:0A:00:00:00:00;1726790741;20/09/24;00:05:41;1.009;0.01;0.155;-0.0012217304902151227;-0.010995574295520782;0.0024434609804302454
01:00:0A:00:00:00:00;1726790742;20/09/24;00:05:42;1.009;0.01;0.155;-0.0012217304902151227;-0.010995574295520782;0.0024434609804302454
01:00:0A:00:00:00:00;1726790743;20/09/24;00:05:43;1.009;0.011;0.156;-0.0012217304902151227;-0.010995574295520782;0.0024434609804302454
01:00:0A:00:00:00:00;1726790744;20/09/24;00:05:44;1.01;0.009;0.155;-0.0012217304902151227;-0.012217304669320583;0.0024434609804302454
01:00:0A:00:00:00:00;1726790745;20/09/24;00:05:45;1.008;0.011;0.155;-0.0012217304902151227;-0.010995574295520782;0.0024434609804302454
01:00:0A:00:00:00:00;1726790746;20/09/24;00:05:46;1.008;0.01;0.155;-0.0012217304902151227;-0.010995574295520782;0.0024434609804302454
01:00:0A:00:00:00:00;1726790747;20/09/24;00:05:47;1.009;0.01;0.155;-0.0012217304902151227;-0.010995574295520782;0.0024434609804302454
01:00:0A:00:00:00:00;1726790748;20/09/24;00:05:48;1.011;0.008;0.156;-0.0012217304902151227;-0.010995574295520782;0.0024434609804302454
01:00:0A:00:00:00:00;1726790749;20/09/24;00:05:49;1.007;0.01;0.156;0.0;-0.010995574295520782;0.0024434609804302454
01:00:0A:00:00:00:00;1726790750;20/09/24;00:05:50;1.008;0.01;0.156;0.0;-0.010995574295520782;0.0024434609804302454
01:00:0A:00:00:00:00;1726790751;20/09/24;00:05:51;1.01;0.009;0.156;0.0;-0.010995574295520782;0.0024434609804302454
01:00:0A:00:00:00:00;1726790752;20/09/24;00:05:52;1.009;0.01;0.155;0.0;-0.010995574295520782;0.0024434609804302454
01:00:0A:00:00:00:00;1726790753;20/09/24;00:05:53;1.009;0.009;0.156;0.0;-0.010995574295520782;0.0024434609804302454
01:00:0A:00:00:00:00;1726790754;20/09/24;00:05:54;1.008;0.01;0.155;0.0;-0.010995574295520782;0.0024434609804302454
01:00:0A:00:00:00:00;1726790755;20/09/24;00:05:55;1.008;0.009;0.154;0.0;-0.010995574295520782;0.0024434609804302454
01:00:0A:00:00:00:00;1726790756;20/09/24;00:05:56;1.008;0.01;0.155;0.0;-0.010995574295520782;0.0036651913542300463
01:00:0A:00:00:00:00;1726790757;20/09/24;00:05:57;1.008;0.01;0.155;0.0;-0.010995574295520782;0.0024434609804302454
01:00:0A:00:00:00:00;1726790758;20/09/24;00:05:58;1.009;0.01;0.155;0.0;-0.010995574295520782;0.0024434609804302454
01:00:0A:00:00:00:00;1726790759;20/09/24;00:05:59;1.007;0.009;0.155;0.0;-0.010995574295520782;0.0024434609804302454
01:00:0A:00:00:00:00;1726790760;20/09/24;00:06:00;1.008;0.012;0.155;0.0;-0.010995574295520782;0.0024434609804302454
01:00:0A:00:00:00:00;1726790761;20/09/24;00:06:01;1.008;0.01;0.156;0.0012217304902151227;-0.010995574295520782;0.0024434609804302454
01:00:0A:00:00:00:00;1726790762;20/09/24;00:06:02;1.009;0.01;0.156;0.0;-0.010995574295520782;0.0024434609804302454
01:00:0A:00:00:00:00;1726790763;20/09/24;00:06:03;1.009;0.01;0.156;0.0012217304902151227;-0.010995574295520782;0.0024434609804302454
01:00:0A:00:00:00:00;1726790764;20/09/24;00:06:04;1.009;0.01;0.156;0.0012217304902151227;-0.010995574295520782;0.0024434609804302454
01:00:0A:00:00:00:00;1726790765;20/09/24;00:06:05;1.007;0.01;0.156;0.0012217304902151227;-0.010995574295520782;0.0024434609804302454
01:00:0A:00:00:00:00;1726790766;20/09/24;00:06:06;1.009;0.01;0.156;0.0012217304902151227;-0.010995574295520782;0.0024434609804302454
01:00:0A:00:00:00:00;1726790767;20/09/24;00:06:07;1.008;0.01;0.156;0.0012217304902151227;-0.010995574295520782;0.0036651913542300463
01:00:0A:00:00:00:00;1726790768;20/09/24;00:06:08;1.01;0.01;0.156;0.0012217304902151227;-0.010995574295520782;0.0024434609804302454
01:00:0A:00:00:00:00;1726790769;20/09/24;00:06:09;1.009;0.01;0.156;0.0012217304902151227;-0.010995574295520782;0.0036651913542300463
01:00:0A:00:00:00:00;1726790770;20/09/24;00:06:10;1.009;0.009;0.156;0.0012217304902151227;-0.010995574295520782;0.0024434609804302454
01:00:0A:00:00:00:00;1726790771;20/09/24;00:06:11;1.008;0.009;0.155;0.0012217304902151227;-0.010995574295520782;0.0024434609804302454
01:00:0A:00:00:00:00;1726790772;20/09/24;00:06:12;1.01;0.01;0.156;0.0012217304902151227;-0.010995574295520782;0.0024434609804302454
01:00:0A:00:00:00:00;1726790773;20/09/24;00:06:13;1.009;0.01;0.156;0.0012217304902151227;-0.010995574295520782;0.0024434609804302454
01:00:0A:00:00:00:00;1726790774;20/09/24;00:06:14;1.009;0.01;0.155;0.0012217304902151227;-0.010995574295520782;0.0024434609804302454
01:00:0A:00:00:00:00;1726790775;20/09/24;00:06:15;1.009;0.009;0.155;0.0012217304902151227;-0.010995574295520782;0.0036651913542300463
01:00:0A:00:00:00:00;1726790776;20/09/24;00:06:16;1.009;0.01;0.155;0.0012217304902151227;-0.012217304669320583;0.0024434609804302454
01:00:0A:00:00:00:00;1726790777;20/09/24;00:06:17;1.009;0.01;0.155;0.0012217304902151227;-0.010995574295520782;0.0024434609804302454
01:00:0A:00:00:00:00;1726790778;20/09/24;00:06:18;1.008;0.01;0.155;0.0012217304902151227;-0.010995574295520782;0.0024434609804302454
01:00:0A:00:00:00:00;1726790779;20/09/24;00:06:19;1.009;0.01;0.155;0.0012217304902151227;-0.010995574295520782;0.0024434609804302454
01:00:0A:00:00:00:00;1726790780;20/09/24;00:06:20;1.009;0.011;0.156;0.0012217304902151227;-0.010995574295520782;0.0024434609804302454
01:00:0A:00:00:00:00;1726790781;20/09/24;00:06:21;1.009;0.009;0.156;0.0012217304902151227;-0.010995574295520782;0.0024434609804302454
01:00:0A:00:00:00:00;1726790782;20/09/24;00:06:22;1.008;0.011;0.156;0.0012217304902151227;-0.010995574295520782;0.0024434609804302454
01:00:0A:00:00:00:00;1726790783;20/09/24;00:06:23;1.008;0.01;0.156;0.0012217304902151227;-0.010995574295520782;0.0024434609804302454
01:00:0A:00:00:00:00;1726790784;20/09/24;00:06:24;1.008;0.009;0.156;0.0012217304902151227;-0.010995574295520782;0.0024434609804302454
01:00:0A:00:00:00:00;1726790785;20/09/24;00:06:25;1.009;0.01;0.155;0.0012217304902151227;-0.010995574295520782;0.0024434609804302454
01:00:0A:00:00:00:00;1726790786;20/09/24;00:06:26;1.009;0.01;0.155;0.0012217304902151227;-0.010995574295520782;0.0024434609804302454
01:00:0A:00:00:00:00;1726790787;20/09/24;00:06:27;1.009;0.011;0.156;0.0012217304902151227;-0.010995574295520782;0.0024434609804302454
01:00:0A:00:00:00:00;1726790788;20/09/24;00:06:28;1.008;0.009;0.154;0.0012217304902151227;-0.010995574295520782;0.0024434609804302454
01:00:0A:00:00:00:00;1726790789;20/09/24;00:06:29;1.009;0.01;0.155;0.0012217304902151227;-0.010995574295520782;0.0024434609804302454
01:00:0A:00:00:00:00;1726790790;20/09/24;00:06:30;1.008;0.009;0.155;0.0012217304902151227;-0.010995574295520782;0.0036651913542300463
01:00:0A:00:00:00:00;1726790791;20/09/24;00:06:31;1.009;0.01;0.155;0.0012217304902151227;-0.010995574295520782;0.0024434609804302454
01:00:0A:00:00:00:00;1726790792;20/09/24;00:06:32;1.007;0.01;0.155;0.0012217304902151227;-0.010995574295520782;0.0024434609804302454
01:00:0A:00:00:00:00;1726790793;20/09/24;00:06:33;1.009;0.01;0.155;0.0012217304902151227;-0.010995574295520782;0.0024434609804302454
01:00:0A:00:00:00:00;1726790794;20/09/24;00:06:34;1.009;0.01;0.154;0.0012217304902151227;-0.010995574295520782;0.0024434609804302454
01:00:0A:00:00:00:00;1726790795;20/09/24;00:06:35;1.009;0.009;0.155;0.0012217304902151227;-0.010995574295520782;0.0036651913542300463
01:00:0A:00:00:00:00;1726790796;20/09/24;00:06:36;1.009;0.011;0.155;0.0012217304902151227;-0.010995574295520782;0.0036651913542300463
01:00:0A:00:00:00:00;1726790797;20/09/24;00:06:37;1.009;0.009;0.155;0.0012217304902151227;-0.010995574295520782;0.0024434609804302454
01:00:0A:00:00:00:00;1726790798;20/09/24;00:06:38;1.009;0.01;0.155;0.0012217304902151227;-0.010995574295520782;0.0024434609804302454
01:00:0A:00:00:00:00;1726790799;20/09/24;00:06:39;1.009;0.01;0.154;0.0012217304902151227;-0.010995574295520782;0.0024434609804302454
01:00:0A:00:00:00:00;1726790800;20/09/24;00:06:40;1.008;0.01;0.155;0.0012217304902151227;-0.010995574295520782;0.0024434609804302454
01:00:0A:00:00:00:00;1726790801;20/09/24;00:06:41;1.01;0.01;0.155;0.0012217304902151227;-0.010995574295520782;0.0024434609804302454
01:00:0A:00:00:00:00;1726790802;20/09/24;00:06:42;1.01;0.01;0.155;0.0012217304902151227;-0.010995574295520782;0.0024434609804302454
01:00:0A:00:00:00:00;1726790803;20/09/24;00:06:43;1.008;0.01;0.155;0.0012217304902151227;-0.010995574295520782;0.0024434609804302454
01:00:0A:00:00:00:00;1726790804;20/09/24;00:06:44;1.009;0.009;0.155;0.0012217304902151227;-0.010995574295520782;0.0024434609804302454
01:00:0A:00:00:00:00;1726790805;20/09/24;00:06:45;1.008;0.01;0.155;0.0012217304902151227;-0.010995574295520782;0.0024434609804302454
01:00:0A:00:00:00:00;1726790806;20/09/24;00:06:46;1.009;0.01;0.155;0.0012217304902151227;-0.010995574295520782;0.0024434609804302454
01:00:0A:00:00:00:00;1726790807;20/09/24;00:06:47;1.009;0.011;0.155;0.0012217304902151227;-0.010995574295520782;0.0024434609804302454
01:00:0A:00:00:00:00;1726790808;20/09/24;00:06:48;1.009;0.01;0.155;0.0012217304902151227;-0.010995574295520782;0.0024434609804302454
01:00:0A:00:00:00:00;1726790809;20/09/24;00:06:49;1.01;0.011;0.156;0.0012217304902151227;-0.010995574295520782;0.0036651913542300463
01:00:0A:00:00:00:00;1726790810;20/09/24;00:06:50;1.01;0.01;0.155;0.0012217304902151227;-0.010995574295520782;0.0024434609804302454
01:00:0A:00:00:00:00;1726790811;20/09/24;00:06:51;1.009;0.011;0.156;0.0012217304902151227;-0.010995574295520782;0.0024434609804302454
01:00:0A:00:00:00:00;1726790812;20/09/24;00:06:52;1.009;0.01;0.155;0.0012217304902151227;-0.010995574295520782;0.0036651913542300463
01:00:0A:00:00:00:00;1726790813;20/09/24;00:06:53;1.009;0.01;0.156;0.0012217304902151227;-0.010995574295520782;0.0036651913542300463
01:00:0A:00:00:00:00;1726790814;20/09/24;00:06:54;1.009;0.01;0.155;0.0012217304902151227;-0.010995574295520782;0.0024434609804302454
01:00:0A:00:00:00:00;1726790815;20/09/24;00:06:55;1.009;0.011;0.155;0.0012217304902151227;-0.010995574295520782;0.0036651913542300463
01:00:0A:00:00:00:00;1726790816;20/09/24;00:06:56;1.009;0.009;0.155;0.0012217304902151227;-0.010995574295520782;0.0024434609804302454
01:00:0A:00:00:00:00;1726790817;20/09/24;00:06:57;1.008;0.009;0.156;0.0012217304902151227;-0.010995574295520782;0.0024434609804302454
01:00:0A:00:00:00:00;1726790818;20/09/24;00:06:58;1.01;0.01;0.155;0.0012217304902151227;-0.010995574295520782;0.0036651913542300463
01:00:0A:00:00:00:00;1726790819;20/09/24;00:06:59;1.009;0.01;0.156;0.0012217304902151227;-0.010995574295520782;0.0024434609804302454
01:00:0A:00:00:00:00;1726790820;20/09/24;00:07:00;1.009;0.008;0.155;0.0024434609804302454;-0.010995574295520782;0.0024434609804302454
01:00:0A:00:00:00:00;1726790821;20/09/24;00:07:01;1.009;0.01;0.156;0.0024434609804302454;-0.010995574295520782;0.0024434609804302454
01:00:0A:00:00:00:00;1726790822;20/09/24;00:07:02;1.009;0.01;0.155;0.0024434609804302454;-0.010995574295520782;0.0024434609804302454
01:00:0A:00:00:00:00;1726790823;20/09/24;00:07:03;1.008;0.009;0.156;0.0024434609804302454;-0.010995574295520782;0.0036651913542300463
01:00:0A:00:00:00:00;1726790824;20/09/24;00:07:04;1.009;0.009;0.155;0.0012217304902151227;-0.010995574295520782;0.0036651913542300463
01:00:0A:00:00:00:00;1726790825;20/09/24;00:07:05;1.008;0.01;0.155;0.0024434609804302454;-0.010995574295520782;0.0036651913542300463
01:00:0A:00:00:00:00;1726790826;20/09/24;00:07:06;1.009;0.01;0.156;0.0024434609804302454;-0.010995574295520782;0.0036651913542300463
01:00:0A:00:00:00:00;1726790827;20/09/24;00:07:07;1.009;0.011;0.156;0.0024434609804302454;-0.010995574295520782;0.0024434609804302454
01:00:0A:00:00:00:00;1726790828;20/09/24;00:07:08;1.008;0.009;0.154;0.0024434609804302454;-0.010995574295520782;0.0036651913542300463
01:00:0A:00:00:00:00;1726790829;20/09/24;00:07:09;1.008;0.009;0.155;0.0024434609804302454;-0.010995574295520782;0.0036651913542300463
01:00:0A:00:00:00:00;1726790830;20/09/24;00:07:10;1.009;0.011;0.155;0.0024434609804302454;-0.010995574295520782;0.0036651913542300463
01:00:0A:00:00:00:00;1726790831;20/09/24;00:07:11;1.009;0.01;0.156;0.0024434609804302454;-0.010995574295520782;0.0036651913542300463
01:00:0A:00:00:00:00;1726790832;20/09/24;00:07:12;1.008;0.011;0.155;0.0024434609804302454;-0.010995574295520782;0.0036651913542300463
01:00:0A:00:00:00:00;1726790833;20/09/24;00:07:13;1.008;0.01;0.156;0.0024434609804302454;-0.010995574295520782;0.0024434609804302454
01:00:0A:00:00:00:00;1726790834;20/09/24;00:07:14;1.008;0.01;0.156;0.0024434609804302454;-0.010995574295520782;0.0036651913542300463
01:00:0A:00:00:00:00;1726790835;20/09/24;00:07:15;1.008;0.01;0.154;0.0024434609804302454;-0.010995574295520782;0.0024434609804302454
01:00:0A:00:00:00:00;1726790836;20/09/24;00:07:16;1.009;0.01;0.155;0.0024434609804302454;-0.010995574295520782;0.0036651913542300463
01:00:0A:00:00:00:00;1726790837;20/09/24;00:07:17;1.008;0.01;0.155;0.0024434609804302454;-0.010995574295520782;0.0024434609804302454
01:00:0A:00:00:00:00;1726790838;20/09/24;00:07:18;1.01;0.009;0.155;0.0012217304902151227;-0.010995574295520782;0.0024434609804302454
01:00:0A:00:00:00:00;1726790839;20/09/24;00:07:19;1.009;0.009;0.154;0.0024434609804302454;-0.010995574295520782;0.0024434609804302454
01:00:0A:00:00:00:00;1726790840;20/09/24;00:07:20;1.009;0.01;0.156;0.0024434609804302454;-0.010995574295520782;0.0036651913542300463
01:00:0A:00:00:00:00;1726790841;20/09/24;00:07:21;1.008;0.01;0.156;0.0024434609804302454;-0.010995574295520782;0.0036651913542300463
01:00:0A:00:00:00:00;1726790842;20/09/24;00:07:22;1.01;0.01;0.154;0.0024434609804302454;-0.010995574295520782;0.0036651913542300463
01:00:0A:00:00:00:00;1726790843;20/09/24;00:07:23;1.009;0.011;0.155;0.0012217304902151227;-0.010995574295520782;0.0036651913542300463
01:00:0A:00:00:00:00;1726790844;20/09/24;00:07:24;1.008;0.011;0.156;0.0012217304902151227;-0.010995574295520782;0.0024434609804302454
01:00:0A:00:00:00:00;1726790845;20/09/24;00:07:25;1.01;0.009;0.155;0.0024434609804302454;-0.010995574295520782;0.0036651913542300463
01:00:0A:00:00:00:00;1726790846;20/09/24;00:07:26;1.009;0.011;0.154;0.0012217304902151227;-0.010995574295520782;0.0024434609804302454
01:00:0A:00:00:00:00;1726790847;20/09/24;00:07:27;1.009;0.011;0.155;0.0012217304902151227;-0.010995574295520782;0.0024434609804302454
01:00:0A:00:00:00:00;1726790848;20/09/24;00:07:28;1.009;0.009;0.154;0.0012217304902151227;-0.010995574295520782;0.0024434609804302454
01:00:0A:00:00:00:00;1726790849;20/09/24;00:07:29;1.01;0.01;0.156;0.0012217304902151227;-0.010995574295520782;0.0036651913542300463
01:00:0A:00:00:00:00;1726790850;20/09/24;00:07:30;1.009;0.01;0.154;0.0012217304902151227;-0.010995574295520782;0.0024434609804302454
01:00:0A:00:00:00:00;1726790851;20/09/24;00:07:31;1.008;0.01;0.156;0.0012217304902151227;-0.010995574295520782;0.0024434609804302454
01:00:0A:00:00:00:00;1726790852;20/09/24;00:07:32;1.008;0.01;0.155;0.0012217304902151227;-0.010995574295520782;0.0036651913542300463
01:00:0A:00:00:00:00;1726790853;20/09/24;00:07:33;1.012;0.014;0.164;0.0;0.0024434609804302454;0.006108652334660292
01:00:0A:00:00:00:00;1726790854;20/09/24;00:07:34;1.016;0.037;0.225;0.00855211354792118;0.1014036238193512;-0.05742133408784866
01:00:0A:00:00:00:00;1726790855;20/09/24;00:07:35;1.034;0.052;0.197;-0.06230825558304787;-0.00855211354792118;0.08307767659425735
01:00:0A:00:00:00:00;1726790856;20/09/24;00:07:36;0.996;-0.21;0.163;-0.21135938167572021;-0.313984751701355;0.2724458873271942
01:00:0A:00:00:00:00;1726790857;20/09/24;00:07:37;0.766;0.513;0.356;0.02687807008624077;0.7098253965377808;-0.7733554244041443
01:00:0A:00:00:00:00;1726790858;20/09/24;00:07:38;0.86;0.12;0.6;-0.31154125928878784;-0.36529743671417236;0.6902776956558228
01:00:0A:00:00:00:00;1726790859;20/09/24;00:07:39;0.993;0.328;-0.244;0.4813618063926697;-0.8906415700912476;-0.7293730974197388
01:00:0A:00:00:00:00;1726790860;20/09/24;00:07:40;1.131;0.132;0.001;0.07330382615327835;0.740368664264679;-0.03298672288656235
01:00:0A:00:00:00:00;1726790861;20/09/24;00:07:41;0.726;0.319;0.473;0.06963863223791122;0.5656611919403076;-0.7586946487426758
01:00:0A:00:00:00:00;1726790862;20/09/24;00:07:42;1.03;-0.101;-0.19;-0.2638937830924988;-1.529606580734253;0.7220427393913269
01:00:0A:00:00:00:00;1726790863;20/09/24;00:07:43;0.863;0.608;-0.023;-0.3433062732219696;0.375071257352829;-0.6218608021736145
01:00:0A:00:00:00:00;1726790864;20/09/24;00:07:44;0.94;-0.113;0.547;-0.445931613445282;-0.4190535545349121;0.10995574295520782
01:00:0A:00:00:00:00;1726790865;20/09/24;00:07:45;1.002;0.09;-0.369;-0.1258382350206375;-0.2528982162475586;-0.09162978082895279
01:00:0A:00:00:00:00;1726790866;20/09/24;00:07:46;1.031;-0.199;0.266;-0.040317103266716;0.46303585171699524;0.33597588539123535
01:00:0A:00:00:00:00;1726790867;20/09/24;00:07:47;1.097;0.079;0.066;-0.042760565876960754;-0.2125810980796814;0.08552113175392151
01:00:0A:00:00:00:00;1726790868;20/09/24;00:07:48;0.879;-0.312;0.056;-0.080634206533432;0.025656338781118393;0.5558874011039734
01:00:0A:00:00:00:00;1726790869;20/09/24;00:07:49;0.515;0.525;0.634;2.0146336555480957;-0.9859364628791809;0.2174680233001709
01:00:0A:00:00:00:00;1726790870;20/09/24;00:07:50;0.994;-0.353;-0.02;1.1472049951553345;-0.03298672288656235;0.38240164518356323
01:00:0A:00:00:00:00;1726790871;20/09/24;00:07:51;1.085;-0.113;0.026;1.1850786209106445;-0.35552355647087097;-0.38728854060173035
01:00:0A:00:00:00:00;1726790872;20/09/24;00:07:52;0.966;-0.229;0.325;0.7354817390441895;0.0354301817715168;0.2321287840604782
01:00:0A:00:00:00:00;1726790873;20/09/24;00:07:53;0.894;0.23;0.176;0.41783180832862854;0.11484266817569733;0.3787364363670349
01:00:0A:00:00:00:00;1726790874;20/09/24;00:07:54;1.058;-0.078;0.082;0.23457224667072296;-0.33108896017074585;0.04886921867728233
01:00:0A:00:00:00:00;1726790875;20/09/24;00:07:55;1.048;0.122;0.039;0.1417207270860672;0.04886921867728233;-0.09896016865968704
01:00:0A:00:00:00:00;1726790876;20/09/24;00:07:56;0.936;-0.149;-0.081;-0.5155702233314514;0.4190535545349121;-1.0958921909332275
01:00:0A:00:00:00:00;1726790877;20/09/24;00:07:57;0.893;-0.191;0.212;-0.49846604466438293;0.10018189996480942;0.7648032903671265
01:00:0A:00:00:00:00;1726790878;20/09/24;00:07:58;0.969;-0.205;0.102;0.10751228034496307;-0.16249015927314758;-0.9749408960342407
01:00:0A:00:00:00:00;1726790879;20/09/24;00:07:59;0.686;-0.599;0.708;-1.9633208513259888;0.11239919811487198;0.8112289905548096
01:00:0A:00:00:00:00;1726790880;20/09/24;00:08:00;0.947;0.28;-0.052;-0.8796459436416626;1.6395622491836548;-0.14905111491680145
01:00:0A:00:00:00:00;1726790881;20/09/24;00:08:01;0.906;-0.364;0.163;-0.4703662395477295;-1.0409142971038818;0.16249015927314758
01:00:0A:00:00:00:00;1726790882;20/09/24;00:08:02;0.969;0.216;0.203;-0.07819075137376785;0.6731734871864319;-1.0934487581253052
01:00:0A:00:00:00:00;1726790883;20/09/24;00:08:03;0.769;0.289;0.625;-0.322536826133728;-0.7012733221054077;-0.41783180832862854
01:00:0A:00:00:00:00;1726790884;20/09/24;00:08:04;0.969;0.28;-0.263;-0.5473352670669556;-0.44715335965156555;0.6194173693656921
01:00:0A:00:00:00:00;1726790885;20/09/24;00:08:05;1.041;-0.062;0.143;-0.6719517707824707;0.6743952035903931;0.46303585171699524
01:00:0A:00:00:00:00;1726790886;20/09/24;00:08:06;0.928;0.044;0.387;-0.5632177591323853;-0.46303585171699524;-0.42760565876960754
01:00:0A:00:00:00:00;1726790887;20/09/24;00:08:07;0.624;0.654;0.577;-0.039095375686883926;0.778242290019989;-0.3090977966785431
01:00:0A:00:00:00:00;1726790888;20/09/24;00:08:08;0.738;0.249;0.592;-0.09773843735456467;-1.6627751588821411;-0.39095374941825867
01:00:0A:00:00:00:00;1726790889;20/09/24;00:08:09;0.971;-0.058;0.014;-0.485027015209198;0.18081611394882202;0.5106833577156067
01:00:0A:00:00:00:00;1726790890;20/09/24;00:08:10;0.918;-0.17;-0.039;0.7415903806686401;1.8582520484924316;0.6572909951210022
01:00:0A:00:00:00:00;1726790891;20/09/24;00:08:11;0.861;0.307;0.365;0.6817255616188049;-1.4672983884811401;0.24068090319633484
01:00:0A:00:00:00:00;1726790892;20/09/24;00:08:12;0.926;-0.267;0.111;0.2626720666885376;0.27000245451927185;0.2724458873271942
01:00:0A:00:00:00:00;1726790893;20/09/24;00:08:13;0.97;0.108;0.266;0.4251621961593628;-0.10506881773471832;-0.4239404499530792
01:00:0A:00:00:00:00;1726790894;20/09/24;00:08:14;0.976;0.148;0.129;-0.059864792972803116;0.024434609338641167;0.7672467231750488
01:00:0A:00:00:00:00;1726790895;20/09/24;00:08:15;0.866;-0.494;-0.17;-0.9651670455932617;-0.24923302233219147;-0.06719517707824707
01:00:0A:00:00:00:00;1726790896;20/09/24;00:08:16;0.958;0.117;-0.032;-0.8405505418777466;0.6756169199943542;0.8637634515762329
01:00:0A:00:00:00:00;1726790897;20/09/24;00:08:17;0.979;-0.407;0.016;-0.2895500957965851;0.5632177591323853;-0.6010913848876953
01:00:0A:00:00:00:00;1726790898;20/09/24;00:08:18;0.824;-0.011;0.694;-0.0659734457731247;-0.4715879559516907;-0.6389650106430054
01:00:0A:00:00:00:00;1726790899;20/09/24;00:08:19;0.856;0.318;-0.416;-1.1472049951553345;-1.7336355447769165;0.7623597979545593
01:00:0A:00:00:00:00;1726790900;20/09/24;00:08:20;1.022;-0.116;0.195;-1.4123203754425049;1.0458012819290161;0.5192354917526245
01:00:0A:00:00:00:00;1726790901;20/09/24;00:08:21;1.028;-0.118;0.192;-1.303586483001709;0.11239919811487198;-0.02321287989616394
01:00:0A:00:00:00:00;1726790902;20/09/24;00:08:22;0.986;0.133;0.304;-1.3426817655563354;0.20402899384498596;-0.3335324227809906
01:00:0A:00:00:00:00;1726790903;20/09/24;00:08:23;0.965;0.151;0.215;-1.340238332748413;-0.6401867866516113;-0.26633724570274353
01:00:0A:00:00:00:00;1726790904;20/09/24;00:08:24;0.688;0.123;0.575;-1.1398744583129883;-1.4025466442108154;-0.4141666293144226
01:00:0A:00:00:00:00;1726790905;20/09/24;00:08:25;0.977;-0.281;-0.005;-1.0445796251296997;-0.22113320231437683;0.38240164518356323
01:00:0A:00:00:00:00;1726790906;20/09/24;00:08:26;1.018;-0.045;0.288;-0.5644394755363464;0.4202752709388733;-0.9480628371238708
01:00:0A:00:00:00:00;1726790907;20/09/24;00:08:27;0.609;0.283;0.816;-0.6255260109901428;-0.1319468915462494;-0.2993239760398865
01:00:0A:00:00:00:00;1726790908;20/09/24;00:08:28;1.025;-0.028;-0.053;-0.5803219676017761;-1.0580185651779175;0.2919935882091522
01:00:0A:00:00:00:00;1726790909;20/09/24;00:08:29;0.92;0.18;0.246;-0.45692718029022217;0.6181955933570862;-0.3127630054950714
01:00:0A:00:00:00:00;1726790910;20/09/24;00:08:30;0.94;-0.038;0.121;-0.37751471996307373;-0.6133087277412415;0.1722639948129654
01:00:0A:00:00:00:00;1726790911;20/09/24;00:08:31;0.896;-0.016;0.289;-0.3836233615875244;0.8552113175392151;0.24678954482078552
01:00:0A:00:00:00:00;1726790912;20/09/24;00:08:32;0.906;-0.047;0.23;-0.018325956538319588;-0.6902776956558228;-0.46547931432724
01:00:0A:00:00:00:00;1726790913;20/09/24;00:08:33;0.995;0.068;-0.045;-0.11484266817569733;0.28588491678237915;-0.1014036238193512
01:00:0A:00:00:00:00;1726790914;20/09/24;00:08:34;0.97;0.226;0.164;-0.3604104816913605;-0.20647244155406952;0.33108896017074585
01:00:0A:00:00:00:00;1726790915;20/09/24;00:08:35;0.912;-0.249;0.29;0.22602014243602753;-0.5082398653030396;-1.6224579811096191
01:00:0A:00:00:00:00;1726790916;20/09/24;00:08:36;0.854;0.082;-0.267;-0.4190535545349121;0.0708603635430336;0.6609562039375305
01:00:0A:00:00:00:00;1726790917;20/09/24;00:08:37;0.911;-0.366;0.166;-0.2785545289516449;1.016479730606079;0.33964109420776367
01:00:0A:00:00:00:00;1726790918;20/09/24;00:08:38;0.986;-0.008;0.162;0.013439035043120384;-0.7757988572120667;-0.797789990901947
01:00:0A:00:00:00:00;1726790919;20/09/24;00:08:39;0.878;0.447;-0.127;-0.20036379992961884;0.08429940044879913;-0.513126790523529
01:00:0A:00:00:00:00;1726790920;20/09/24;00:08:40;0.937;-0.271;0.234;-0.41783180832862854;0.44226640462875366;0.9798278212547302
01:00:0A:00:00:00:00;1726790921;20/09/24;00:08:41;0.878;0.521;-0.113;-0.08185594528913498;-0.5253441333770752;-1.3939944505691528
01:00:0A:00:00:00:00;1726790922;20/09/24;00:08:42;0.83;0.637;0.04;-0.50335294008255;-0.05375614017248154;-0.1270599663257599
01:00:0A:00:00:00:00;1726790923;20/09/24;00:08:43;0.959;-0.414;-0.023;-0.4703662395477295;0.38728854060173035;0.3897320330142975
01:00:0A:00:00:00:00;1726790924;20/09/24;00:08:44;1.07;0.198;0.226;-0.26022857427597046;-0.4190535545349121;-0.7929030656814575
01:00:0A:00:00:00:00;1726790925;20/09/24;00:08:45;1.027;0.254;-0.21;-0.5595525503158569;0.5998696088790894;0.10873401165008545
01:00:0A:00:00:00:00;1726790926;20/09/24;00:08:46;0.708;-0.64;0.531;-0.1576032191514969;-0.28099802136421204;-0.15882496535778046
01:00:0A:00:00:00:00;1726790927;20/09/24;00:08:47;0.997;-0.042;0.402;0.5644394755363464;-0.1966986060142517;-1.2461650371551514
01:00:0A:00:00:00:00;1726790928;20/09/24;00:08:48;0.849;0.58;0.284;0.17348572611808777;0.4141666293144226;0.2370157092809677
01:00:0A:00:00:00:00;1726790929;20/09/24;00:08:49;0.999;-0.344;0.277;0.06108652427792549;-0.2883284091949463;0.8014551997184753
01:00:0A:00:00:00:00;1726790930;20/09/24;00:08:50;1.046;-0.162;0.183;0.3286454975605011;0.2028072476387024;-0.5241223573684692
01:00:0A:00:00:00:00;1726790931;20/09/24;00:08:51;0.914;-0.472;-0.519;0.48747044801712036;0.080634206533432;0.20525071024894714
01:00:0A:00:00:00:00;1726790932;20/09/24;00:08:52;0.935;0.144;0.534;0.3445279896259308;-0.2480112910270691;0.0012217304902151227
01:00:0A:00:00:00:00;1726790933;20/09/24;00:08:53;1.061;-0.126;0.151;0.27122414112091064;-0.39095374941825867;-0.22113320231437683
01:00:0A:00:00:00:00;1726790934;20/09/24;00:08:54;0.654;-0.385;0.615;2.869844913482666;-0.6206390857696533;0.5510004162788391
01:00:0A:00:00:00:00;1726790935;20/09/24;00:08:55;0.981;-0.336;0.256;1.898569107055664;-0.014660765416920185;1.0885618925094604
01:00:0A:00:00:00:00;1726790936;20/09/24;00:08:56;0.883;0.109;0.638;1.6175711154937744;-0.5045746564865112;-0.0036651913542300463
01:00:0A:00:00:00:00;1726790937;20/09/24;00:08:57;0.992;-0.42;-0.232;1.2950342893600464;0.040317103266716;0.2223549485206604
01:00:0A:00:00:00:00;1726790938;20/09/24;00:08:58;0.873;0.421;0.559;1.264491081237793;-0.6291911602020264;-0.38117989897727966
01:00:0A:00:00:00:00;1726790939;20/09/24;00:08:59;1.013;-0.077;0.081;0.7367035150527954;0.24068090319633484;-0.7562511563301086
01:00:0A:00:00:00:00;1726790940;20/09/24;00:09:00;0.855;0.527;0.089;0.3885102868080139;0.18448130786418915;-0.5448917746543884
01:00:0A:00:00:00:00;1726790941;20/09/24;00:09:01;1.042;-0.127;0.268;-0.05009094998240471;0.7965682148933411;0.080634206533432
01:00:0A:00:00:00:00;1726790942;20/09/24;00:09:02;1.077;0.087;0.204;-0.21013763546943665;-0.5827654600143433;0.3799581527709961
01:00:0A:00:00:00:00;1726790943;20/09/24;00:09:03;0.958;-0.009;-0.239;-0.18448130786418915;0.5387831330299377;0.10751228034496307
01:00:0A:00:00:00:00;1726790944;20/09/24;00:09:04;0.849;0.008;0.521;-0.12095131725072861;0.3494149148464203;-0.14049901068210602
01:00:0A:00:00:00:00;1726790945;20/09/24;00:09:05;0.895;-0.024;-0.018;-0.09896016865968704;-0.9175195693969727;-0.7147123217582703
01:00:0A:00:00:00:00;1726790946;20/09/24;00:09:06;0.892;-0.389;0.359;-0.7806857824325562;0.5412266254425049;0.7171557545661926
01:00:0A:00:00:00:00;1726790947;20/09/24;00:09:07;0.842;-0.395;0.266;-1.556484580039978;1.5625932216644287;-1.5735888481140137
01:00:0A:00:00:00:00;1726790948;20/09/24;00:09:08;0.959;0.235;0.312;-1.5027284622192383;-0.15882496535778046;-1.4062117338180542
01:00:0A:00:00:00:00;1726790949;20/09/24;00:09:09;1.009;0.178;0.203;-1.7776178121566772;-0.76846843957901;-0.18570303916931152
01:00:0A:00:00:00:00;1726790950;20/09/24;00:09:10;0.932;-0.342;-0.04;-1.3866640329360962;-0.4764748811721802;0.5253441333770752
01:00:0A:00:00:00:00;1726790951;20/09/24;00:09:11;0.92;0.263;0.362;-1.1826351881027222;0.5534439086914062;-0.08796459436416626
01:00:0A:00:00:00:00;1726790952;20/09/24;00:09:12;1.066;-0.074;0.102;-0.9859364628791809;-0.3738495111465454;-0.3347541391849518
01:00:0A:00:00:00:00;1726790953;20/09/24;00:09:13;0.969;0.049;0.404;-0.8894197940826416;0.1820378452539444;0.21013763546943665
01:00:0A:00:00:00:00;1726790954;20/09/24;00:09:14;0.78;0.157;0.052;0.04153883829712868;-1.7006487846374512;-1.9046778678894043
01:00:0A:00:00:00:00;1726790955;20/09/24;00:09:15;0.849;-0.141;0.414;-1.016479730606079;1.623679757118225;0.25534167885780334
01:00:0A:00:00:00:00;1726790956;20/09/24;00:09:16;0.682;-0.384;0.782;-0.4312708377838135;0.03420845419168472;-0.32498031854629517
01:00:0A:00:00:00:00;1726790957;20/09/24;00:09:17;0.945;0.234;-0.195;-0.5302309989929199;0.6817255616188049;0.18814648687839508
01:00:0A:00:00:00:00;1726790958;20/09/24;00:09:18;0.952;0.284;-0.264;-0.8038986325263977;1.0983357429504395;0.513126790523529
01:00:0A:00:00:00:00;1726790959;20/09/24;00:09:19;0.974;-0.17;-0.117;-0.06719517707824707;-0.22357667982578278;-0.45692718029022217
01:00:0A:00:00:00:00;1726790960;20/09/24;00:09:20;0.637;-0.507;0.19;0.6218608021736145;1.2192870378494263;-1.1789698600769043
01:00:0A:00:00:00:00;1726790961;20/09/24;00:09:21;0.953;0.148;0.049;0.12339477241039276;-1.2363911867141724;0.06475171446800232
01:00:0A:00:00:00:00;1726790962;20/09/24;00:09:22;0.858;-0.513;0.303;-0.1918116807937622;1.725083351135254;0.6597344279289246
01:00:0A:00:00:00:00;1726790963;20/09/24;00:09:23;0.77;-0.579;0.452;0.06475171446800232;-0.2590068578720093;0.045204028487205505
01:00:0A:00:00:00:00;1726790964;20/09/24;00:09:24;1.034;0.234;-0.039;0.2480112910270691;-0.1771509200334549;-0.445931613445282
01:00:0A:00:00:00:00;1726790965;20/09/24;00:09:25;1.061;0.175;0.147;0.036651913076639175;0.19792033731937408;0.42271876335144043
01:00:0A:00:00:00:00;1726790966;20/09/24;00:09:26;0.945;-0.427;0.383;0.10384709388017654;0.09040805697441101;0.22479839622974396
01:00:0A:00:00:00:00;1726790967;20/09/24;00:09:27;0.896;0.396;-0.138;0.3042108714580536;-0.44104471802711487;-0.8747590184211731
01:00:0A:00:00:00:00;1726790968;20/09/24;00:09:28;0.969;-0.147;0.311;0.10506881773471832;0.5681046843528748;0.2125810980796814
01:00:0A:00:00:00:00;1726790969;20/09/24;00:09:29;0.871;-0.007;0.529;0.23335053026676178;1.1740829944610596;0.779464066028595
01:00:0A:00:00:00:00;1726790970;20/09/24;00:09:30;0.981;-0.037;0.417;-1.3878858089447021;0.2015855312347412;-1.0897835493087769
01:00:0A:00:00:00:00;1726790971;20/09/24;00:09:31;0.876;0.435;-0.26;-1.3341296911239624;-0.7452555894851685;-0.7745770812034607
01:00:0A:00:00:00:00;1726790972;20/09/24;00:09:32;0.982;-0.396;-0.147;-1.3451251983642578;-0.09896016865968704;0.5607742667198181
01:00:0A:00:00:00:00;1726790973;20/09/24;00:09:33;1.042;-0.148;0.181;-0.862541675567627;0.901637077331543;-0.30054569244384766
01:00:0A:00:00:00:00;1726790974;20/09/24;00:09:34;0.917;0.079;0.48;-0.7073819637298584;0.02687807008624077;-0.4349360466003418
01:00:0A:00:00:00:00;1726790975;20/09/24;00:09:35;0.991;0.144;-0.135;-0.7281513810157776;-0.4996877610683441;-0.15393804013729095
01:00:0A:00:00:00:00;1726790976;20/09/24;00:09:36;0.979;0.284;0.017;-0.817337691783905;0.23335053026676178;0.2577851116657257
01:00:0A:00:00:00:00;1726790977;20/09/24;00:09:37;0.982;-0.289;0.129;-0.6023131012916565;-0.05742133408784866;0.24190263450145721
01:00:0A:00:00:00:00;1726790978;20/09/24;00:09:38;1.023;-0.021;0.145;-0.29565879702568054;0.21380282938480377;-0.45692718029022217
01:00:0A:00:00:00:00;1726790979;20/09/24;00:09:39;0.971;0.043;0.29;-0.39095374941825867;-0.06230825558304787;0.1661553531885147
01:00:0A:00:00:00:00;1726790980;20/09/24;00:09:40;0.986;-0.122;0.121;-0.2993239760398865;-0.15393804013729095;-0.03298672288656235
01:00:0A:00:00:00:00;1726790981;20/09/24;00:09:41;1.001;0.027;0.171;-0.2321287840604782;0.18570303916931152;-0.19547687470912933
01:00:0A:00:00:00:00;1726790982;20/09/24;00:09:42;1.012;-0.059;0.225;-0.2981022298336029;-0.06475171446800232;0.18814648687839508
01:00:0A:00:00:00:00;1726790983;20/09/24;00:09:43;1.019;-0.133;0.036;-0.1771509200334549;-0.07208210229873657;-0.09896016865968704
01:00:0A:00:00:00:00;1726790984;20/09/24;00:09:44;0.97;0.086;0.229;-0.22846359014511108;0.10262535512447357;-0.1062905490398407
01:00:0A:00:00:00:00;1726790985;20/09/24;00:09:45;0.955;-0.124;0.093;-0.2687807083129883;-0.30054569244384766;0.22602014243602753
01:00:0A:00:00:00:00;1726790986;20/09/24;00:09:46;0.985;-0.048;0.098;-0.1258382350206375;0.3604104816913605;-0.42638394236564636
01:00:0A:00:00:00:00;1726790987;20/09/24;00:09:47;0.989;0.061;0.234;-0.27488934993743896;-0.50335294008255;0.5253441333770752
01:00:0A:00:00:00:00;1726790988;20/09/24;00:09:48;1.037;-0.248;-0.117;-0.08674286305904388;0.313984751701355;-0.3946189284324646
01:00:0A:00:00:00:00;1726790989;20/09/24;00:09:49;0.922;0.427;0.32;-0.26511549949645996;-0.27000245451927185;0.2272418737411499
01:00:0A:00:00:00:00;1726790990;20/09/24;00:09:50;1.06;-0.133;-0.015;-0.29077184200286865;-0.09529497474431992;0.08796459436416626
01:00:0A:00:00:00:00;1726790991;20/09/24;00:09:51;1.01;0.131;0.257;-0.23457224667072296;0.2565633952617645;-0.2431243658065796
01:00:0A:00:00:00:00;1726790992;20/09/24;00:09:52;1.004;-0.002;0.239;-0.3335324227809906;-0.12217304855585098;0.10384709388017654
01:00:0A:00:00:00:00;1726790993;20/09/24;00:09:53;1.01;-0.038;0.07;-0.28099802136421204;-0.06475171446800232;-0.0659734457731247
01:00:0A:00:00:00:00;1726790994;20/09/24;00:09:54;0.967;0.002;0.235;-0.28588491678237915;0.18570303916931152;-0.05497787147760391
01:00:0A:00:00:00:00;1726790995;20/09/24;00:09:55;0.98;-0.036;0.162;-0.3042108714580536;-0.294437050819397;0.018325956538319588
01:00:0A:00:00:00:00;1726790996;20/09/24;00:09:56;0.988;-0.041;0.086;-0.3029891550540924;0.06230825558304787;-0.06475171446800232
01:00:0A:00:00:00:00;1726790997;20/09/24;00:09:57;0.99;-0.047;0.21;-0.313984751701355;-0.0073303827084600925;-0.06108652427792549
01:00:0A:00:00:00:00;1726790998;20/09/24;00:09:58;1.008;-0.016;0.121;-0.32131510972976685;-0.24678954482078552;-0.11484266817569733
01:00:0A:00:00:00:00;1726790999;20/09/24;00:09:59;1.023;0.039;0.055;-0.3836233615875244;0.1319468915462494;-0.00855211354792118
01:00:0A:00:00:00:00;1726791000;20/09/24;00:10:00;1.015;-0.009;0.232;-0.4056144952774048;-0.0354301817715168;0.025656338781118393
01:00:0A:00:00:00:00;1726791001;20/09/24;00:10:01;1.048;0.003;0.147;-0.3628539443016052;-0.06841690838336945;-0.1160643920302391
01:00:0A:00:00:00:00;1726791002;20/09/24;00:10:02;1.039;0.073;0.199;-0.40194931626319885;0.015882495790719986;-0.014660765416920185
01:00:0A:00:00:00:00;1726791003;20/09/24;00:10:03;1.012;-0.033;0.213;-0.4251621961593628;0.015882495790719986;0.0036651913542300463
01:00:0A:00:00:00:00;1726791004;20/09/24;00:10:04;0.963;0.052;0.145;-0.39828410744667053;-0.07819075137376785;-0.1661553531885147
01:00:0A:00:00:00:00;1726791005;20/09/24;00:10:05;0.941;-0.04;0.171;-0.4752531349658966;0.015882495790719986;0.19425514340400696
01:00:0A:00:00:00:00;1726791006;20/09/24;00:10:06;0.962;-0.121;0.122;-0.1466076523065567;-0.20402899384498596;0.14782939851284027
01:00:0A:00:00:00:00;1726791007;20/09/24;00:10:07;1.001;-0.148;0.031;-0.03176499158143997;0.12828169763088226;-0.11484266817569733
01:00:0A:00:00:00:00;1726791008;20/09/24;00:10:08;1.025;0.023;0.161;-0.08185594528913498;0.05375614017248154;-0.1466076523065567
01:00:0A:00:00:00:00;1726791009;20/09/24;00:10:09;1.011;0.058;0.191;-0.12339477241039276;-0.02687807008624077;0.01710422709584236
01:00:0A:00:00:00:00;1726791010;20/09/24;00:10:10;1.019;-0.065;0.143;-0.12950342893600464;-0.013439035043120384;0.03176499158143997
01:00:0A:00:00:00:00;1726791011;20/09/24;00:10:11;1.021;0.032;0.182;-0.08796459436416626;0.05619959905743599;-0.1417207270860672
01:00:0A:00:00:00:00;1726791012;20/09/24;00:10:12;1.015;0.037;0.201;-0.14782939851284027;-0.019547687843441963;0.039095375686883926
01:00:0A:00:00:00:00;1726791013;20/09/24;00:10:13;1.011;-0.058;0.04;-0.07330382615327835;-0.13805554807186127;0.0708603635430336
01:00:0A:00:00:00:00;1726791014;20/09/24;00:10:14;1.015;-0.05;0.0;-0.2015855312347412;-0.013439035043120384;-0.059864792972803116
01:00:0A:00:00:00:00;1726791015;20/09/24;00:10:15;0.985;0.026;0.218;-0.27977627515792847;0.2834414541721344;-0.1111774742603302
01:00:0A:00:00:00:00;1726791016;20/09/24;00:10:16;0.976;-0.01;0.218;-0.24678954482078552;-0.2638937830924988;-0.0757472887635231
01:00:0A:00:00:00:00;1726791017;20/09/24;00:10:17;0.998;-0.009;0.079;-0.2272418737411499;-0.0036651913542300463;-0.04398229718208313
01:00:0A:00:00:00:00;1726791018;20/09/24;00:10:18;0.992;-0.042;0.202;-0.21624629199504852;0.05864306166768074;0.06719517707824707
01:00:0A:00:00:00:00;1726791019;20/09/24;00:10:19;1.013;-0.035;0.215;-0.1661553531885147;-0.16249015927314758;-0.02932153083384037
01:00:0A:00:00:00:00;1726791020;20/09/24;00:10:20;1.025;0.056;0.105;-0.17104226350784302;0.009773843921720982;0.06352998316287994
01:00:0A:00:00:00:00;1726791021;20/09/24;00:10:21;0.985;0.059;0.237;-0.10873401165008545;0.1417207270860672;-0.2871066629886627
01:00:0A:00:00:00:00;1726791022;20/09/24;00:10:22;0.984;0.122;0.232;-0.2223549485206604;-0.004886921960860491;-0.06719517707824707
01:00:0A:00:00:00:00;1726791023;20/09/24;00:10:23;1.003;0.065;0.146;-0.012217304669320583;-0.021991148591041565;0.0036651913542300463
01:00:0A:00:00:00:00;1726791024;20/09/24;00:10:24;1.004;-0.029;0.146;-0.05497787147760391;-0.018325956538319588;0.02687807008624077
01:00:0A:00:00:00:00;1726791025;20/09/24;00:10:25;0.995;0.0;0.192;-0.028099799528717995;-0.014660765416920185;-0.1062905490398407
01:00:0A:00:00:00:00;1726791026;20/09/24;00:10:26;1.01;0.018;0.173;-0.08552113175392151;-0.04153883829712868;0.04642575979232788
01:00:0A:00:00:00:00;1726791027;20/09/24;00:10:27;1.013;-0.018;0.154;-0.08185594528913498;0.05864306166768074;-0.025656338781118393
01:00:0A:00:00:00:00;1726791028;20/09/24;00:10:28;1.021;0.019;0.19;-0.0708603635430336;-0.014660765416920185;-0.040317103266716
01:00:0A:00:00:00:00;1726791029;20/09/24;00:10:29;1.007;0.008;0.162;-0.09162978082895279;0.05375614017248154;-0.018325956538319588
01:00:0A:00:00:00:00;1726791030;20/09/24;00:10:30;0.987;0.017;0.21;-0.11850785464048386;-0.17837265133857727;0.05864306166768074
01:00:0A:00:00:00:00;1726791031;20/09/24;00:10:31;0.999;-0.012;0.222;-0.09773843735456467;-0.03420845419168472;-0.042760565876960754
01:00:0A:00:00:00:00;1726791032;20/09/24;00:10:32;1.005;0.002;0.165;-0.10018189996480942;-0.08674286305904388;-0.036651913076639175
01:00:0A:00:00:00:00;1726791033;20/09/24;00:10:33;1.008;-0.001;0.157;-0.1319468915462494;0.07330382615327835;0.05497787147760391
01:00:0A:00:00:00:00;1726791034;20/09/24;00:10:34;1.0;-0.006;0.19;-0.11484266817569733;0.025656338781118393;-0.0024434609804302454
01:00:0A:00:00:00:00;1726791035;20/09/24;00:10:35;1.005;0.034;0.162;-0.10751228034496307;-0.0012217304902151227;-0.040317103266716
01:00:0A:00:00:00:00;1726791036;20/09/24;00:10:36;1.012;0.01;0.15;-0.0757472887635231;-0.04398229718208313;-0.028099799528717995
01:00:0A:00:00:00:00;1726791037;20/09/24;00:10:37;1.01;-0.007;0.161;-0.07941248267889023;-0.05497787147760391;-0.028099799528717995
01:00:0A:00:00:00:00;1726791038;20/09/24;00:10:38;1.005;0.002;0.201;-0.07941248267889023;0.03420845419168472;0.0
01:00:0A:00:00:00:00;1726791039;20/09/24;00:10:39;1.023;-0.001;0.169;-0.08552113175392151;-0.07819075137376785;0.0024434609804302454
01:00:0A:00:00:00:00;1726791040;20/09/24;00:10:40;1.009;-0.007;0.175;-0.07941248267889023;0.06352998316287994;0.059864792972803116
01:00:0A:00:00:00:00;1726791041;20/09/24;00:10:41;1.005;0.007;0.176;-0.04764748737215996;-0.042760565876960754;-0.0659734457731247
01:00:0A:00:00:00:00;1726791042;20/09/24;00:10:42;1.0;0.009;0.189;-0.05619959905743599;0.015882495790719986;0.014660765416920185
01:00:0A:00:00:00:00;1726791043;20/09/24;00:10:43;1.006;-0.012;0.14;-0.05497787147760391;-0.0354301817715168;0.0012217304902151227
01:00:0A:00:00:00:00;1726791044;20/09/24;00:10:44;1.002;0.005;0.146;-0.05497787147760391;0.04398229718208313;0.00855211354792118
01:00:0A:00:00:00:00;1726791045;20/09/24;00:10:45;0.994;0.008;0.177;-0.059864792972803116;-0.039095375686883926;0.021991148591041565
01:00:0A:00:00:00:00;1726791046;20/09/24;00:10:46;1.007;0.005;0.147;-0.04642575979232788;-0.03420845419168472;-0.03420845419168472
01:00:0A:00:00:00:00;1726791047;20/09/24;00:10:47;1.012;0.01;0.166;-0.045204028487205505;0.0;-0.042760565876960754
01:00:0A:00:00:00:00;1726791048;20/09/24;00:10:48;1.013;-0.009;0.169;-0.04398229718208313;-0.006108652334660292;-0.039095375686883926
01:00:0A:00:00:00:00;1726791049;20/09/24;00:10:49;1.016;-0.015;0.156;-0.04764748737215996;-0.03420845419168472;-0.012217304669320583
01:00:0A:00:00:00:00;1726791050;20/09/24;00:10:50;1.007;-0.013;0.167;-0.05009094998240471;0.06230825558304787;0.09896016865968704
01:00:0A:00:00:00:00;1726791051;20/09/24;00:10:51;1.0;-0.045;0.193;-0.014660765416920185;-0.080634206533432;-0.009773843921720982
01:00:0A:00:00:00:00;1726791052;20/09/24;00:10:52;1.01;0.039;0.139;-0.024434609338641167;-0.03298672288656235;0.02932153083384037
01:00:0A:00:00:00:00;1726791053;20/09/24;00:10:53;1.013;0.003;0.168;-0.04153883829712868;0.06841690838336945;0.080634206533432
01:00:0A:00:00:00:00;1726791054;20/09/24;00:10:54;1.012;-0.006;0.179;-0.0024434609804302454;-0.04398229718208313;-0.04153883829712868
01:00:0A:00:00:00:00;1726791055;20/09/24;00:10:55;1.011;0.033;0.131;-0.00855211354792118;-0.03787364438176155;-0.024434609338641167
01:00:0A:00:00:00:00;1726791056;20/09/24;00:10:56;1.001;-0.008;0.167;-0.025656338781118393;0.036651913076639175;0.05375614017248154
01:00:0A:00:00:00:00;1726791057;20/09/24;00:10:57;1.001;-0.011;0.181;0.006108652334660292;-0.06719517707824707;-0.04153883829712868
01:00:0A:00:00:00:00;1726791058;20/09/24;00:10:58;1.008;0.023;0.136;-0.0036651913542300463;0.0024434609804302454;-0.0073303827084600925
01:00:0A:00:00:00:00;1726791059;20/09/24;00:10:59;1.004;-0.022;0.179;-0.015882495790719986;0.030543262138962746;0.051312677562236786
01:00:0A:00:00:00:00;1726791060;20/09/24;00:11:00;1.017;-0.011;0.166;0.0036651913542300463;-0.03298672288656235;-0.0012217304902151227
01:00:0A:00:00:00:00;1726791061;20/09/24;00:11:01;1.02;0.029;0.139;-0.0073303827084600925;-0.0012217304902151227;0.02076941914856434
01:00:0A:00:00:00:00;1726791062;20/09/24;00:11:02;1.0;-0.004;0.167;-0.013439035043120384;0.02932153083384037;0.045204028487205505
01:00:0A:00:00:00:00;1726791063;20/09/24;00:11:03;0.991;0.0;0.149;0.014660765416920185;-0.059864792972803116;-0.04886921867728233
01:00:0A:00:00:00:00;1726791064;20/09/24;00:11:04;0.999;0.014;0.149;-0.004886921960860491;-0.0073303827084600925;0.019547687843441963
01:00:0A:00:00:00:00;1726791065;20/09/24;00:11:05;1.011;-0.006;0.176;-0.0036651913542300463;0.010995574295520782;0.00855211354792118
01:00:0A:00:00:00:00;1726791066;20/09/24;00:11:06;1.015;0.004;0.162;0.006108652334660292;-0.040317103266716;-0.01710422709584236
01:00:0A:00:00:00:00;1726791067;20/09/24;00:11:07;1.016;0.013;0.15;-0.0012217304902151227;-0.013439035043120384;0.0036651913542300463
01:00:0A:00:00:00:00;1726791068;20/09/24;00:11:08;1.011;-0.004;0.174;0.0024434609804302454;0.009773843921720982;-0.0024434609804302454
01:00:0A:00:00:00:00;1726791069;20/09/24;00:11:09;1.003;0.0;0.16;0.012217304669320583;-0.03420845419168472;-0.03298672288656235
01:00:0A:00:00:00:00;1726791070;20/09/24;00:11:10;1.006;0.0;0.145;0.0012217304902151227;0.0024434609804302454;0.010995574295520782
01:00:0A:00:00:00:00;1726791071;20/09/24;00:11:11;1.007;-0.007;0.167;0.0036651913542300463;-0.03176499158143997;0.018325956538319588
01:00:0A:00:00:00:00;1726791072;20/09/24;00:11:12;1.013;0.011;0.158;0.0073303827084600925;-0.0354301817715168;0.0012217304902151227
01:00:0A:00:00:00:00;1726791073;20/09/24;00:11:13;1.013;0.007;0.16;0.0024434609804302454;0.014660765416920185;0.015882495790719986
01:00:0A:00:00:00:00;1726791074;20/09/24;00:11:14;1.008;0.005;0.166;0.009773843921720982;-0.010995574295520782;-0.004886921960860491
01:00:0A:00:00:00:00;1726791075;20/09/24;00:11:15;1.008;0.002;0.151;0.010995574295520782;-0.02076941914856434;-0.009773843921720982
01:00:0A:00:00:00:00;1726791076;20/09/24;00:11:16;1.005;0.004;0.159;0.006108652334660292;0.0012217304902151227;0.009773843921720982
01:00:0A:00:00:00:00;1726791077;20/09/24;00:11:17;1.004;-0.004;0.163;0.00855211354792118;-0.019547687843441963;0.006108652334660292
01:00:0A:00:00:00:00;1726791078;20/09/24;00:11:18;1.004;0.014;0.16;0.006108652334660292;-0.021991148591041565;0.012217304669320583
01:00:0A:00:00:00:00;1726791079;20/09/24;00:11:19;1.002;0.01;0.169;0.009773843921720982;0.00855211354792118;-0.0012217304902151227
01:00:0A:00:00:00:00;1726791080;20/09/24;00:11:20;1.013;0.009;0.162;0.015882495790719986;0.0036651913542300463;-0.02076941914856434
01:00:0A:00:00:00:00;1726791081;20/09/24;00:11:21;1.017;-0.002;0.16;0.015882495790719986;-0.009773843921720982;-0.014660765416920185
01:00:0A:00:00:00:00;1726791082;20/09/24;00:11:22;1.018;-0.003;0.159;0.010995574295520782;0.004886921960860491;0.013439035043120384
01:00:0A:00:00:00:00;1726791083;20/09/24;00:11:23;1.003;0.0;0.163;0.009773843921720982;-0.013439035043120384;0.025656338781118393
01:00:0A:00:00:00:00;1726791084;20/09/24;00:11:24;0.996;0.01;0.157;0.012217304669320583;-0.025656338781118393;0.014660765416920185
01:00:0A:00:00:00:00;1726791085;20/09/24;00:11:25;0.993;0.01;0.163;0.012217304669320583;-0.0036651913542300463;0.009773843921720982
01:00:0A:00:00:00:00;1726791086;20/09/24;00:11:26;1.005;0.009;0.171;0.018325956538319588;-0.02687807008624077;-0.012217304669320583
01:00:0A:00:00:00:00;1726791087;20/09/24;00:11:27;1.025;0.002;0.16;0.014660765416920185;-0.004886921960860491;0.0
01:00:0A:00:00:00:00;1726791088;20/09/24;00:11:28;1.024;0.005;0.169;0.012217304669320583;-0.004886921960860491;0.0036651913542300463
01:00:0A:00:00:00:00;1726791089;20/09/24;00:11:29;1.011;-0.003;0.166;0.013439035043120384;-0.018325956538319588;0.00855211354792118
01:00:0A:00:00:00:00;1726791090;20/09/24;00:11:30;1.0;0.01;0.16;0.015882495790719986;-0.00855211354792118;-0.0036651913542300463
01:00:0A:00:00:00:00;1726791091;20/09/24;00:11:31;1.0;0.0;0.16;0.012217304669320583;-0.006108652334660292;0.009773843921720982
01:00:0A:00:00:00:00;1726791092;20/09/24;00:11:32;1.003;0.0;0.156;0.01710422709584236;-0.019547687843441963;-0.004886921960860491
01:00:0A:00:00:00:00;1726791093;20/09/24;00:11:33;1.003;0.003;0.158;0.015882495790719986;-0.014660765416920185;-0.0012217304902151227
01:00:0A:00:00:00:00;1726791094;20/09/24;00:11:34;1.005;0.003;0.154;0.012217304669320583;-0.013439035043120384;0.019547687843441963
01:00:0A:00:00:00:00;1726791095;20/09/24;00:11:35;0.999;0.003;0.157;0.015882495790719986;-0.019547687843441963;0.0
01:00:0A:00:00:00:00;1726791096;20/09/24;00:11:36;0.999;0.007;0.162;0.013439035043120384;-0.009773843921720982;0.004886921960860491
01:00:0A:00:00:00:00;1726791097;20/09/24;00:11:37;1.005;0.003;0.163;0.012217304669320583;-0.0073303827084600925;0.0073303827084600925
01:00:0A:00:00:00:00;1726791098;20/09/24;00:11:38;1.02;0.003;0.167;0.014660765416920185;-0.0073303827084600925;-0.006108652334660292
01:00:0A:00:00:00:00;1726791099;20/09/24;00:11:39;1.028;0.005;0.158;0.009773843921720982;-0.0073303827084600925;0.009773843921720982
01:00:0A:00:00:00:00;1726791100;20/09/24;00:11:40;1.017;0.003;0.165;0.0073303827084600925;-0.0024434609804302454;0.009773843921720982
01:00:0A:00:00:00:00;1726791101;20/09/24;00:11:41;0.994;0.0;0.154;0.00855211354792118;-0.01710422709584236;0.0024434609804302454
01:00:0A:00:00:00:00;1726791102;20/09/24;00:11:42;0.982;0.007;0.158;0.006108652334660292;-0.006108652334660292;0.0012217304902151227
01:00:0A:00:00:00:00;1726791103;20/09/24;00:11:43;0.991;0.0;0.166;0.004886921960860491;-0.018325956538319588;0.006108652334660292
01:00:0A:00:00:00:00;1726791104;20/09/24;00:11:44;1.011;0.003;0.162;0.004886921960860491;-0.018325956538319588;0.0
01:00:0A:00:00:00:00;1726791105;20/09/24;00:11:45;1.025;0.003;0.166;0.0036651913542300463;-0.00855211354792118;-0.0036651913542300463
01:00:0A:00:00:00:00;1726791106;20/09/24;00:11:46;1.021;0.007;0.167;-0.0024434609804302454;-0.013439035043120384;0.010995574295520782
01:00:0A:00:00:00:00;1726791107;20/09/24;00:11:47;1.009;-0.001;0.168;0.0;-0.013439035043120384;-0.0024434609804302454
01:00:0A:00:00:00:00;1726791108;20/09/24;00:11:48;1.002;0.005;0.16;-0.0036651913542300463;-0.006108652334660292;0.0012217304902151227
01:00:0A:00:00:00:00;1726791109;20/09/24;00:11:49;1.005;0.002;0.16;-0.00855211354792118;-0.0073303827084600925;0.010995574295520782
01:00:0A:00:00:00:00;1726791110;20/09/24;00:11:50;1.007;0.004;0.161;-0.010995574295520782;-0.014660765416920185;0.004886921960860491
01:00:0A:00:00:00:00;1726791111;20/09/24;00:11:51;1.008;0.005;0.156;-0.010995574295520782;-0.015882495790719986;-0.004886921960860491
01:00:0A:00:00:00:00;1726791112;20/09/24;00:11:52;1.004;0.006;0.162;-0.015882495790719986;-0.015882495790719986;-0.0036651913542300463
01:00:0A:00:00:00:00;1726791113;20/09/24;00:11:53;1.002;0.0;0.16;-0.01710422709584236;-0.028099799528717995;-0.004886921960860491
01:00:0A:00:00:00:00;1726791114;20/09/24;00:11:54;1.003;0.005;0.162;-0.019547687843441963;-0.013439035043120384;-0.004886921960860491
01:00:0A:00:00:00:00;1726791115;20/09/24;00:11:55;1.006;0.0;0.166;-0.025656338781118393;-0.004886921960860491;0.010995574295520782
01:00:0A:00:00:00:00;1726791116;20/09/24;00:11:56;1.015;0.003;0.158;-0.02321287989616394;-0.010995574295520782;-0.0012217304902151227
01:00:0A:00:00:00:00;1726791117;20/09/24;00:11:57;1.016;0.006;0.163;-0.025656338781118393;-0.010995574295520782;-0.0012217304902151227
01:00:0A:00:00:00:00;1726791118;20/09/24;00:11:58;1.014;0.008;0.161;-0.02687807008624077;-0.010995574295520782;-0.0012217304902151227
01:00:0A:00:00:00:00;1726791119;20/09/24;00:11:59;1.008;-0.001;0.161;-0.02687807008624077;-0.004886921960860491;-0.0073303827084600925
01:00:0A:00:00:00:00;1726791120;20/09/24;00:12:00;1.002;0.006;0.161;-0.02932153083384037;-0.013439035043120384;-0.004886921960860491
01:00:0A:00:00:00:00;1726791121;20/09/24;00:12:01;1.002;0.001;0.158;-0.03298672288656235;-0.010995574295520782;0.009773843921720982
01:00:0A:00:00:00:00;1726791122;20/09/24;00:12:02;1.002;0.005;0.162;-0.030543262138962746;-0.00855211354792118;-0.0012217304902151227
01:00:0A:00:00:00:00;1726791123;20/09/24;00:12:03;1.008;0.008;0.158;-0.030543262138962746;-0.018325956538319588;-0.0073303827084600925
01:00:0A:00:00:00:00;1726791124;20/09/24;00:12:04;1.008;0.004;0.164;-0.030543262138962746;-0.00855211354792118;-0.0073303827084600925
01:00:0A:00:00:00:00;1726791125;20/09/24;00:12:05;1.011;0.0;0.162;-0.02932153083384037;-0.009773843921720982;-0.00855211354792118
01:00:0A:00:00:00:00;1726791126;20/09/24;00:12:06;1.01;0.005;0.16;-0.030543262138962746;-0.009773843921720982;-0.0024434609804302454
01:00:0A:00:00:00:00;1726791127;20/09/24;00:12:07;1.009;0.001;0.163;-0.03176499158143997;-0.009773843921720982;0.0073303827084600925
01:00:0A:00:00:00:00;1726791128;20/09/24;00:12:08;1.009;0.007;0.157;-0.02687807008624077;-0.010995574295520782;-0.006108652334660292
01:00:0A:00:00:00:00;1726791129;20/09/24;00:12:09;1.008;0.004;0.162;-0.02932153083384037;-0.009773843921720982;0.006108652334660292
01:00:0A:00:00:00:00;1726791130;20/09/24;00:12:10;1.007;0.003;0.159;-0.02687807008624077;-0.018325956538319588;-0.0012217304902151227
01:00:0A:00:00:00:00;1726791131;20/09/24;00:12:11;1.009;0.001;0.16;-0.025656338781118393;-0.013439035043120384;-0.0012217304902151227
01:00:0A:00:00:00:00;1726791132;20/09/24;00:12:12;1.007;0.001;0.164;-0.02687807008624077;-0.012217304669320583;0.004886921960860491
01:00:0A:00:00:00:00;1726791133;20/09/24;00:12:13;1.008;0.003;0.157;-0.025656338781118393;-0.014660765416920185;0.0036651913542300463
01:00:0A:00:00:00:00;1726791134;20/09/24;00:12:14;1.006;0.003;0.164;-0.024434609338641167;-0.0073303827084600925;0.0024434609804302454
01:00:0A:00:00:00:00;1726791135;20/09/24;00:12:15;1.009;0.003;0.16;-0.021991148591041565;-0.018325956538319588;-0.006108652334660292
01:00:0A:00:00:00:00;1726791136;20/09/24;00:12:16;1.009;0.0;0.162;-0.024434609338641167;-0.0073303827084600925;0.0073303827084600925
01:00:0A:00:00:00:00;1726791137;20/09/24;00:12:17;1.009;0.003;0.162;-0.021991148591041565;-0.00855211354792118;0.0
01:00:0A:00:00:00:00;1726791138;20/09/24;00:12:18;1.01;0.002;0.161;-0.021991148591041565;-0.013439035043120384;0.0
01:00:0A:00:00:00:00;1726791139;20/09/24;00:12:19;1.01;0.0;0.161;-0.02321287989616394;-0.013439035043120384;0.006108652334660292
01:00:0A:00:00:00:00;1726791140;20/09/24;00:12:20;1.009;0.007;0.16;-0.021991148591041565;-0.01710422709584236;-0.0012217304902151227
01:00:0A:00:00:00:00;1726791141;20/09/24;00:12:21;1.01;0.001;0.162;-0.02321287989616394;-0.00855211354792118;0.006108652334660292
01:00:0A:00:00:00:00;1726791142;20/09/24;00:12:22;1.008;0.006;0.161;-0.02076941914856434;-0.013439035043120384;-0.0036651913542300463
01:00:0A:00:00:00:00;1726791143;20/09/24;00:12:23;1.008;0.004;0.161;-0.021991148591041565;-0.009773843921720982;-0.0012217304902151227
01:00:0A:00:00:00:00;1726791144;20/09/24;00:12:24;1.002;0.001;0.163;-0.02076941914856434;-0.010995574295520782;-0.0024434609804302454
01:00:0A:00:00:00:00;1726791145;20/09/24;00:12:25;1.003;0.005;0.158;-0.02076941914856434;-0.00855211354792118;-0.0073303827084600925
01:00:0A:00:00:00:00;1726791146;20/09/24;00:12:26;1.005;0.001;0.161;-0.02321287989616394;-0.004886921960860491;0.0036651913542300463
01:00:0A:00:00:00:00;1726791147;20/09/24;00:12:27;1.008;0.001;0.157;-0.02076941914856434;-0.019547687843441963;-0.006108652334660292
01:00:0A:00:00:00:00;1726791148;20/09/24;00:12:28;1.011;0.003;0.162;-0.02321287989616394;-0.01710422709584236;0.006108652334660292
01:00:0A:00:00:00:00;1726791149;20/09/24;00:12:29;1.011;0.003;0.162;-0.021991148591041565;-0.015882495790719986;0.0
01:00:0A:00:00:00:00;1726791150;20/09/24;00:12:30;1.012;0.005;0.162;-0.02076941914856434;-0.0073303827084600925;-0.004886921960860491
01:00:0A:00:00:00:00;1726791151;20/09/24;00:12:31;1.009;0.0;0.161;-0.02321287989616394;-0.006108652334660292;0.004886921960860491
01:00:0A:00:00:00:00;1726791152;20/09/24;00:12:32;1.005;0.004;0.16;-0.019547687843441963;-0.006108652334660292;-0.0036651913542300463
01:00:0A:00:00:00:00;1726791153;20/09/24;00:12:33;1.003;0.002;0.157;-0.021991148591041565;-0.01710422709584236;0.006108652334660292
01:00:0A:00:00:00:00;1726791154;20/09/24;00:12:34;1.002;0.001;0.162;-0.018325956538319588;-0.010995574295520782;-0.0073303827084600925
01:00:0A:00:00:00:00;1726791155;20/09/24;00:12:35;1.005;0.003;0.16;-0.02076941914856434;-0.010995574295520782;0.0036651913542300463
01:00:0A:00:00:00:00;1726791156;20/09/24;00:12:36;1.006;0.0;0.161;-0.018325956538319588;-0.010995574295520782;0.0
01:00:0A:00:00:00:00;1726791157;20/09/24;00:12:37;1.01;0.004;0.159;-0.015882495790719986;-0.012217304669320583;-0.006108652334660292
01:00:0A:00:00:00:00;1726791158;20/09/24;00:12:38;1.011;0.0;0.162;-0.018325956538319588;-0.013439035043120384;0.0036651913542300463
01:00:0A:00:00:00:00;1726791159;20/09/24;00:12:39;1.013;0.002;0.161;-0.015882495790719986;-0.015882495790719986;0.0012217304902151227
01:00:0A:00:00:00:00;1726791160;20/09/24;00:12:40;1.01;0.005;0.162;-0.01710422709584236;-0.012217304669320583;0.004886921960860491
01:00:0A:00:00:00:00;1726791161;20/09/24;00:12:41;1.01;0.0;0.162;-0.014660765416920185;-0.009773843921720982;-0.0012217304902151227
01:00:0A:00:00:00:00;1726791162;20/09/24;00:12:42;1.007;0.002;0.159;-0.013439035043120384;-0.006108652334660292;-0.0012217304902151227
01:00:0A:00:00:00:00;1726791163;20/09/24;00:12:43;1.003;0.003;0.16;-0.014660765416920185;-0.004886921960860491;0.0024434609804302454
01:00:0A:00:00:00:00;1726791164;20/09/24;00:12:44;1.003;0.002;0.156;-0.013439035043120384;-0.012217304669320583;-0.0012217304902151227
01:00:0A:00:00:00:00;1726791165;20/09/24;00:12:45;1.004;0.002;0.157;-0.013439035043120384;-0.02076941914856434;0.0024434609804302454
01:00:0A:00:00:00:00;1726791166;20/09/24;00:12:46;1.009;0.0;0.161;-0.013439035043120384;-0.014660765416920185;0.0024434609804302454
01:00:0A:00:00:00:00;1726791167;20/09/24;00:12:47;1.012;0.004;0.162;-0.013439035043120384;-0.014660765416920185;0.0036651913542300463
01:00:0A:00:00:00:00;1726791168;20/09/24;00:12:48;1.012;0.001;0.161;-0.013439035043120384;-0.006108652334660292;0.0012217304902151227
01:00:0A:00:00:00:00;1726791169;20/09/24;00:12:49;1.011;0.003;0.16;-0.013439035043120384;-0.006108652334660292;0.0036651913542300463
01:00:0A:00:00:00:00;1726791170;20/09/24;00:12:50;1.008;0.002;0.159;-0.014660765416920185;-0.013439035043120384;0.004886921960860491
01:00:0A:00:00:00:00;1726791171;20/09/24;00:12:51;1.008;0.002;0.158;-0.010995574295520782;-0.013439035043120384;-0.006108652334660292
01:00:0A:00:00:00:00;1726791172;20/09/24;00:12:52;1.009;0.003;0.162;-0.012217304669320583;-0.013439035043120384;-0.0012217304902151227
01:00:0A:00:00:00:00;1726791173;20/09/24;00:12:53;1.006;0.0;0.16;-0.013439035043120384;-0.0073303827084600925;0.004886921960860491
01:00:0A:00:00:00:00;1726791174;20/09/24;00:12:54;1.005;0.004;0.159;-0.013439035043120384;-0.010995574295520782;0.0024434609804302454
01:00:0A:00:00:00:00;1726791175;20/09/24;00:12:55;1.005;0.002;0.158;-0.013439035043120384;-0.0073303827084600925;0.0012217304902151227
01:00:0A:00:00:00:00;1726791176;20/09/24;00:12:56;1.007;0.002;0.159;-0.013439035043120384;-0.014660765416920185;0.0
01:00:0A:00:00:00:00;1726791177;20/09/24;00:12:57;1.011;0.005;0.161;-0.013439035043120384;-0.012217304669320583;-0.0024434609804302454
01:00:0A:00:00:00:00;1726791178;20/09/24;00:12:58;1.013;0.003;0.162;-0.014660765416920185;-0.012217304669320583;0.0024434609804302454
01:00:0A:00:00:00:00;1726791189;20/09/24;00:13:09;1.01;0.002;0.16;-0.010995574295520782;-0.010995574295520782;-0.0012217304902151227
01:00:0A:00:00:00:00;1726791190;20/09/24;00:13:10;1.011;0.001;0.159;-0.010995574295520782;-0.010995574295520782;0.0
01:00:0A:00:00:00:00;1726791191;20/09/24;00:13:11;1.008;0.002;0.161;-0.010995574295520782;-0.010995574295520782;0.0
01:00:0A:00:00:00:00;1726791192;20/09/24;00:13:12;1.005;0.002;0.159;-0.010995574295520782;-0.010995574295520782;0.0036651913542300463
01:00:0A:00:00:00:00;1726791193;20/09/24;00:13:13;1.005;0.002;0.161;-0.009773843921720982;-0.013439035043120384;0.0
01:00:0A:00:00:00:00;1726791194;20/09/24;00:13:14;1.006;0.001;0.159;-0.00855211354792118;-0.0073303827084600925;0.0012217304902151227
01:00:0A:00:00:00:00;1726791195;20/09/24;00:13:15;1.008;0.002;0.16;-0.00855211354792118;-0.013439035043120384;0.0012217304902151227
01:00:0A:00:00:00:00;1726791196;20/09/24;00:13:16;1.009;0.002;0.16;-0.0073303827084600925;-0.00855211354792118;0.0012217304902151227
01:00:0A:00:00:00:00;1726791197;20/09/24;00:13:17;1.009;0.002;0.159;-0.0073303827084600925;-0.014660765416920185;0.0024434609804302454
01:00:0A:00:00:00:00;1726791198;20/09/24;00:13:18;1.007;0.004;0.16;-0.006108652334660292;-0.010995574295520782;0.0
01:00:0A:00:00:00:00;1726791199;20/09/24;00:13:19;1.006;0.002;0.159;-0.006108652334660292;-0.009773843921720982;0.0012217304902151227
01:00:0A:00:00:00:00;1726791200;20/09/24;00:13:20;1.007;0.003;0.162;-0.006108652334660292;-0.010995574295520782;0.0012217304902151227
01:00:0A:00:00:00:00;1726791201;20/09/24;00:13:21;1.008;0.003;0.16;-0.006108652334660292;-0.00855211354792118;0.0036651913542300463
01:00:0A:00:00:00:00;1726791202;20/09/24;00:13:22;1.009;0.002;0.158;-0.004886921960860491;-0.014660765416920185;0.0036651913542300463
01:00:0A:00:00:00:00;1726791203;20/09/24;00:13:23;1.008;0.003;0.158;-0.004886921960860491;-0.012217304669320583;0.0024434609804302454
01:00:0A:00:00:00:00;1726791204;20/09/24;00:13:24;1.006;0.002;0.16;-0.0036651913542300463;-0.014660765416920185;0.0
01:00:0A:00:00:00:00;1726791205;20/09/24;00:13:25;1.006;0.002;0.162;-0.0036651913542300463;-0.009773843921720982;0.004886921960860491
01:00:0A:00:00:00:00;1726791206;20/09/24;00:13:26;1.006;0.002;0.158;-0.0036651913542300463;-0.010995574295520782;0.0024434609804302454
01:00:0A:00:00:00:00;1726791207;20/09/24;00:13:27;1.011;0.002;0.159;-0.0024434609804302454;-0.012217304669320583;0.004886921960860491
01:00:0A:00:00:00:00;1726791208;20/09/24;00:13:28;1.01;0.003;0.157;-0.0012217304902151227;-0.009773843921720982;0.0
01:00:0A:00:00:00:00;1726791209;20/09/24;00:13:29;1.009;0.002;0.159;-0.0012217304902151227;-0.013439035043120384;0.0036651913542300463
01:00:0A:00:00:00:00;1726791210;20/09/24;00:13:30;1.008;0.004;0.16;0.0;-0.012217304669320583;0.0024434609804302454
01:00:0A:00:00:00:00;1726791211;20/09/24;00:13:31;1.008;0.0;0.158;0.0;-0.010995574295520782;0.004886921960860491
01:00:0A:00:00:00:00;1726791212;20/09/24;00:13:32;1.008;0.002;0.161;0.0012217304902151227;-0.009773843921720982;0.0036651913542300463
01:00:0A:00:00:00:00;1726791213;20/09/24;00:13:33;1.008;0.002;0.156;0.0024434609804302454;-0.00855211354792118;0.0012217304902151227
01:00:0A:00:00:00:00;1726791214;20/09/24;00:13:34;1.008;0.003;0.162;0.0024434609804302454;-0.012217304669320583;0.0036651913542300463
01:00:0A:00:00:00:00;1726791215;20/09/24;00:13:35;1.008;0.003;0.159;0.0024434609804302454;-0.013439035043120384;0.0036651913542300463
01:00:0A:00:00:00:00;1726791216;20/09/24;00:13:36;1.006;0.001;0.16;0.0036651913542300463;-0.010995574295520782;0.004886921960860491
01:00:0A:00:00:00:00;1726791217;20/09/24;00:13:37;1.007;0.003;0.159;0.0036651913542300463;-0.009773843921720982;0.0036651913542300463
01:00:0A:00:00:00:00;1726791218;20/09/24;00:13:38;1.008;0.002;0.16;0.004886921960860491;-0.00855211354792118;0.0024434609804302454
01:00:0A:00:00:00:00;1726791219;20/09/24;00:13:39;1.009;0.003;0.161;0.004886921960860491;-0.009773843921720982;0.004886921960860491
01:00:0A:00:00:00:00;1726791220;20/09/24;00:13:40;1.009;0.002;0.157;0.006108652334660292;-0.012217304669320583;0.0024434609804302454
01:00:0A:00:00:00:00;1726791221;20/09/24;00:13:41;1.008;0.003;0.159;0.006108652334660292;-0.014660765416920185;0.004886921960860491
01:00:0A:00:00:00:00;1726791222;20/09/24;00:13:42;1.007;0.003;0.161;0.0073303827084600925;-0.010995574295520782;0.0012217304902151227
01:00:0A:00:00:00:00;1726791223;20/09/24;00:13:43;1.016;0.013;0.151;0.0012217304902151227;-0.019547687843441963;-0.010995574295520782
01:00:0A:00:00:00:00;1726791224;20/09/24;00:13:44;1.007;0.043;0.149;-0.036651913076639175;0.0024434609804302454;-0.0073303827084600925
01:00:0A:00:00:00:00;1726791225;20/09/24;00:13:45;1.006;0.042;0.164;-0.080634206533432;0.0024434609804302454;0.0012217304902151227
01:00:0A:00:00:00:00;1726791226;20/09/24;00:13:46;1.008;0.0;0.163;-0.09896016865968704;-0.02932153083384037;0.024434609338641167
01:00:0A:00:00:00:00;1726791227;20/09/24;00:13:47;1.008;-0.003;0.151;-0.07696902006864548;-0.013439035043120384;-0.03176499158143997
01:00:0A:00:00:00:00;1726791228;20/09/24;00:13:48;1.007;0.014;0.167;-0.07819075137376785;-0.0024434609804302454;-0.006108652334660292
01:00:0A:00:00:00:00;1726791229;20/09/24;00:13:49;1.008;-0.002;0.162;-0.07941248267889023;-0.030543262138962746;0.012217304669320583
01:00:0A:00:00:00:00;1726791230;20/09/24;00:13:50;1.01;0.0;0.151;-0.06475171446800232;-0.006108652334660292;-0.02321287989616394
01:00:0A:00:00:00:00;1726791231;20/09/24;00:13:51;1.007;0.011;0.167;-0.06841690838336945;-0.0036651913542300463;-0.0012217304902151227
01:00:0A:00:00:00:00;1726791232;20/09/24;00:13:52;1.009;-0.002;0.158;-0.0659734457731247;-0.030543262138962746;0.0
01:00:0A:00:00:00:00;1726791233;20/09/24;00:13:53;1.007;0.004;0.154;-0.05864306166768074;0.0;-0.01710422709584236
01:00:0A:00:00:00:00;1726791234;20/09/24;00:13:54;1.004;0.006;0.166;-0.06108652427792549;-0.009773843921720982;0.0012217304902151227
01:00:0A:00:00:00:00;1726791235;20/09/24;00:13:55;1.008;-0.002;0.154;-0.05742133408784866;-0.028099799528717995;-0.0024434609804302454
01:00:0A:00:00:00:00;1726791236;20/09/24;00:13:56;1.008;0.004;0.157;-0.05253440886735916;0.0036651913542300463;-0.010995574295520782
01:00:0A:00:00:00:00;1726791237;20/09/24;00:13:57;1.009;0.005;0.166;-0.05497787147760391;-0.014660765416920185;0.004886921960860491
01:00:0A:00:00:00:00;1726791238;20/09/24;00:13:58;1.01;0.002;0.155;-0.05009094998240471;-0.024434609338641167;-0.006108652334660292
01:00:0A:00:00:00:00;1726791239;20/09/24;00:13:59;1.009;0.005;0.158;-0.04642575979232788;0.0012217304902151227;-0.009773843921720982
01:00:0A:00:00:00:00;1726791240;20/09/24;00:14:00;1.007;0.001;0.163;-0.04764748737215996;-0.015882495790719986;0.0036651913542300463
01:00:0A:00:00:00:00;1726791241;20/09/24;00:14:01;1.009;0.0;0.154;-0.042760565876960754;-0.019547687843441963;-0.004886921960860491
01:00:0A:00:00:00:00;1726791242;20/09/24;00:14:02;1.008;0.005;0.16;-0.04153883829712868;0.0;-0.0012217304902151227
01:00:0A:00:00:00:00;1726791243;20/09/24;00:14:03;1.008;0.002;0.164;-0.040317103266716;-0.02076941914856434;0.0
01:00:0A:00:00:00:00;1726791244;20/09/24;00:14:04;1.009;0.003;0.155;-0.03420845419168472;-0.013439035043120384;-0.00855211354792118
01:00:0A:00:00:00:00;1726791245;20/09/24;00:14:05;1.007;0.005;0.161;-0.0354301817715168;-0.0012217304902151227;0.0024434609804302454
01:00:0A:00:00:00:00;1726791246;20/09/24;00:14:06;1.008;0.0;0.162;-0.03176499158143997;-0.019547687843441963;-0.0024434609804302454
01:00:0A:00:00:00:00;1726791247;20/09/24;00:14:07;1.01;0.004;0.155;-0.02932153083384037;-0.014660765416920185;-0.0024434609804302454
01:00:0A:00:00:00:00;1726791248;20/09/24;00:14:08;1.006;0.009;0.175;-0.03298672288656235;0.01710422709584236;-0.0012217304902151227
01:00:0A:00:00:00:00;1726791249;20/09/24;00:14:09;1.005;0.011;0.179;-0.03787364438176155;-0.025656338781118393;-0.012217304669320583
01:00:0A:00:00:00:00;1726791250;20/09/24;00:14:10;1.008;0.016;0.163;-0.045204028487205505;-0.036651913076639175;-0.012217304669320583
01:00:0A:00:00:00:00;1726791251;20/09/24;00:14:11;1.01;0.016;0.151;-0.05253440886735916;0.0;0.00855211354792118
01:00:0A:00:00:00:00;1726791252;20/09/24;00:14:12;1.006;-0.006;0.166;-0.05253440886735916;-0.004886921960860491;0.015882495790719986
01:00:0A:00:00:00:00;1726791253;20/09/24;00:14:13;1.009;0.002;0.157;-0.0354301817715168;-0.02932153083384037;-0.03176499158143997
01:00:0A:00:00:00:00;1726791254;20/09/24;00:14:14;1.009;0.017;0.154;-0.04764748737215996;-0.0036651913542300463;0.012217304669320583
01:00:0A:00:00:00:00;1726791255;20/09/24;00:14:15;1.008;-0.009;0.166;-0.04398229718208313;-0.009773843921720982;0.0073303827084600925
01:00:0A:00:00:00:00;1726791256;20/09/24;00:14:16;1.01;0.005;0.156;-0.03176499158143997;-0.02321287989616394;-0.028099799528717995
01:00:0A:00:00:00:00;1726791257;20/09/24;00:14:17;1.008;0.011;0.156;-0.042760565876960754;-0.0024434609804302454;0.010995574295520782
01:00:0A:00:00:00:00;1726791258;20/09/24;00:14:18;1.008;-0.008;0.162;-0.039095375686883926;-0.013439035043120384;0.0036651913542300463
01:00:0A:00:00:00:00;1726791259;20/09/24;00:14:19;1.008;0.008;0.156;-0.030543262138962746;-0.019547687843441963;-0.02321287989616394
01:00:0A:00:00:00:00;1726791260;20/09/24;00:14:20;1.008;0.006;0.16;-0.04153883829712868;-0.004886921960860491;0.019547687843441963
01:00:0A:00:00:00:00;1726791261;20/09/24;00:14:21;1.008;-0.007;0.162;-0.0354301817715168;-0.015882495790719986;-0.0036651913542300463
01:00:0A:00:00:00:00;1726791262;20/09/24;00:14:22;1.009;0.01;0.157;-0.030543262138962746;-0.012217304669320583;-0.01710422709584236
01:00:0A:00:00:00:00;1726791263;20/09/24;00:14:23;1.008;0.006;0.159;-0.039095375686883926;-0.0073303827084600925;0.01710422709584236
01:00:0A:00:00:00:00;1726791264;20/09/24;00:14:24;1.008;-0.004;0.161;-0.03176499158143997;-0.015882495790719986;-0.004886921960860491
01:00:0A:00:00:00:00;1726791265;20/09/24;00:14:25;1.009;0.009;0.156;-0.030543262138962746;-0.012217304669320583;-0.010995574295520782
01:00:0A:00:00:00:00;1726791266;20/09/24;00:14:26;1.008;0.004;0.162;-0.036651913076639175;-0.00855211354792118;0.013439035043120384
01:00:0A:00:00:00:00;1726791267;20/09/24;00:14:27;1.009;-0.002;0.16;-0.02932153083384037;-0.013439035043120384;-0.010995574295520782
01:00:0A:00:00:00:00;1726791268;20/09/24;00:14:28;1.009;0.009;0.161;-0.030543262138962746;-0.0024434609804302454;-0.0036651913542300463
01:00:0A:00:00:00:00;1726791269;20/09/24;00:14:29;1.008;0.003;0.164;-0.03298672288656235;-0.012217304669320583;0.0036651913542300463
01:00:0A:00:00:00:00;1726791270;20/09/24;00:14:30;1.008;-0.009;0.165;-0.03298672288656235;-0.013439035043120384;0.018325956538319588
01:00:0A:00:00:00:00;1726791271;20/09/24;00:14:31;1.008;-0.012;0.163;-0.014660765416920185;-0.012217304669320583;-0.030543262138962746
01:00:0A:00:00:00:00;1726791272;20/09/24;00:14:32;1.007;0.018;0.162;-0.02076941914856434;-0.00855211354792118;-0.006108652334660292
01:00:0A:00:00:00:00;1726791273;20/09/24;00:14:33;1.008;0.0;0.159;-0.030543262138962746;-0.019547687843441963;0.02687807008624077
01:00:0A:00:00:00:00;1726791274;20/09/24;00:14:34;1.008;-0.004;0.157;-0.015882495790719986;-0.004886921960860491;-0.02076941914856434
01:00:0A:00:00:00:00;1726791275;20/09/24;00:14:35;1.007;0.015;0.162;-0.02076941914856434;-0.010995574295520782;-0.0036651913542300463
01:00:0A:00:00:00:00;1726791276;20/09/24;00:14:36;1.009;-0.002;0.157;-0.02687807008624077;-0.018325956538319588;0.018325956538319588
01:00:0A:00:00:00:00;1726791277;20/09/24;00:14:37;1.009;0.0;0.158;-0.015882495790719986;-0.0073303827084600925;-0.018325956538319588
01:00:0A:00:00:00:00;1726791278;20/09/24;00:14:38;1.008;0.013;0.164;-0.021991148591041565;-0.010995574295520782;0.004886921960860491
01:00:0A:00:00:00:00;1726791279;20/09/24;00:14:39;1.009;-0.003;0.158;-0.024434609338641167;-0.018325956538319588;0.014660765416920185
01:00:0A:00:00:00:00;1726791280;20/09/24;00:14:40;1.007;0.003;0.159;-0.013439035043120384;-0.0024434609804302454;-0.018325956538319588
01:00:0A:00:00:00:00;1726791281;20/09/24;00:14:41;1.007;0.011;0.162;-0.02076941914856434;-0.013439035043120384;0.006108652334660292
01:00:0A:00:00:00:00;1726791282;20/09/24;00:14:42;1.009;-0.001;0.157;-0.021991148591041565;-0.02076941914856434;0.009773843921720982
01:00:0A:00:00:00:00;1726791283;20/09/24;00:14:43;1.008;0.003;0.159;-0.013439035043120384;-0.004886921960860491;-0.014660765416920185
01:00:0A:00:00:00:00;1726791284;20/09/24;00:14:44;1.008;0.008;0.163;-0.02076941914856434;-0.014660765416920185;0.00855211354792118
01:00:0A:00:00:00:00;1726791285;20/09/24;00:14:45;1.01;-0.002;0.157;-0.019547687843441963;-0.012217304669320583;0.0024434609804302454
01:00:0A:00:00:00:00;1726791286;20/09/24;00:14:46;1.008;0.005;0.159;-0.014660765416920185;-0.004886921960860491;-0.009773843921720982
01:00:0A:00:00:00:00;1726791287;20/09/24;00:14:47;1.007;0.006;0.162;-0.02076941914856434;-0.015882495790719986;0.010995574295520782
01:00:0A:00:00:00:00;1726791288;20/09/24;00:14:48;1.007;-0.001;0.157;-0.018325956538319588;-0.014660765416920185;0.0012217304902151227
01:00:0A:00:00:00:00;1726791289;20/09/24;00:14:49;1.008;0.005;0.16;-0.015882495790719986;-0.006108652334660292;-0.00855211354792118
01:00:0A:00:00:00:00;1726791290;20/09/24;00:14:50;1.007;0.005;0.162;-0.02076941914856434;-0.014660765416920185;0.0073303827084600925
01:00:0A:00:00:00:00;1726791291;20/09/24;00:14:51;1.008;0.0;0.158;-0.019547687843441963;-0.012217304669320583;-0.0012217304902151227
01:00:0A:00:00:00:00;1726791292;20/09/24;00:14:52;1.008;0.005;0.162;-0.018325956538319588;-0.006108652334660292;-0.004886921960860491
01:00:0A:00:00:00:00;1726791293;20/09/24;00:14:53;1.009;0.003;0.161;-0.02321287989616394;-0.015882495790719986;0.0073303827084600925
01:00:0A:00:00:00:00;1726791294;20/09/24;00:14:54;1.008;0.0;0.159;-0.02076941914856434;-0.012217304669320583;-0.0036651913542300463
01:00:0A:00:00:00:00;1726791295;20/09/24;00:14:55;1.008;0.007;0.162;-0.019547687843441963;-0.006108652334660292;-0.004886921960860491
01:00:0A:00:00:00:00;1726791296;20/09/24;00:14:56;1.008;0.002;0.162;-0.024434609338641167;-0.018325956538319588;0.0073303827084600925
01:00:0A:00:00:00:00;1726791297;20/09/24;00:14:57;1.008;0.0;0.159;-0.02076941914856434;-0.009773843921720982;-0.0024434609804302454
01:00:0A:00:00:00:00;1726791298;20/09/24;00:14:58;1.007;0.005;0.162;-0.021991148591041565;-0.009773843921720982;-0.0012217304902151227
01:00:0A:00:00:00:00;1726791299;20/09/24;00:14:59;1.008;0.002;0.161;-0.02321287989616394;-0.014660765416920185;0.0036651913542300463
01:00:0A:00:00:00:00;1726791300;20/09/24;00:15:00;1.008;0.003;0.159;-0.02076941914856434;-0.010995574295520782;-0.004886921960860491
01:00:0A:00:00:00:00;1726791301;20/09/24;00:15:01;1.008;0.003;0.162;-0.02076941914856434;-0.012217304669320583;0.0
01:00:0A:00:00:00:00;1726791302;20/09/24;00:15:02;1.008;0.001;0.161;-0.021991148591041565;-0.013439035043120384;0.0036651913542300463
01:00:0A:00:00:00:00;1726791303;20/09/24;00:15:03;1.009;0.002;0.159;-0.018325956538319588;-0.00855211354792118;-0.0036651913542300463
01:00:0A:00:00:00:00;1726791304;20/09/24;00:15:04;1.008;0.005;0.162;-0.019547687843441963;-0.009773843921720982;0.0012217304902151227
01:00:0A:00:00:00:00;1726791305;20/09/24;00:15:05;1.008;0.002;0.16;-0.018325956538319588;-0.015882495790719986;0.0012217304902151227
01:00:0A:00:00:00:00;1726791306;20/09/24;00:15:06;1.009;0.001;0.16;-0.01710422709584236;-0.009773843921720982;-0.0012217304902151227
01:00:0A:00:00:00:00;1726791307;20/09/24;00:15:07;1.009;0.003;0.162;-0.01710422709584236;-0.010995574295520782;0.0
01:00:0A:00:00:00:00;1726791308;20/09/24;00:15:08;1.008;0.002;0.158;-0.01710422709584236;-0.014660765416920185;0.0036651913542300463
01:00:0A:00:00:00:00;1726791309;20/09/24;00:15:09;1.008;0.002;0.159;-0.014660765416920185;-0.0073303827084600925;-0.0024434609804302454
01:00:0A:00:00:00:00;1726791310;20/09/24;00:15:10;1.007;0.003;0.162;-0.015882495790719986;-0.013439035043120384;0.0036651913542300463
01:00:0A:00:00:00:00;1726791311;20/09/24;00:15:11;1.009;0.0;0.159;-0.014660765416920185;-0.013439035043120384;0.0012217304902151227
01:00:0A:00:00:00:00;1726791312;20/09/24;00:15:12;1.008;0.003;0.16;-0.013439035043120384;-0.00855211354792118;-0.0012217304902151227
01:00:0A:00:00:00:00;1726791313;20/09/24;00:15:13;1.008;0.002;0.162;-0.013439035043120384;-0.012217304669320583;0.0024434609804302454
01:00:0A:00:00:00:00;1726791314;20/09/24;00:15:14;1.008;0.0;0.158;-0.012217304669320583;-0.013439035043120384;0.006108652334660292
