Source;Epoch timestamp (UTC);Date;Time (UTC);Accel X (G);Accel Y (G);Accel Z (G);Gyro X (rad/s);Gyro Y (rad/s);Gyro Z (rad/s)
01:00:0A:00:00:00:00;1726764274;19/09/24;16:44:34;0.78;0.502;-0.197;-0.44226640462875366;-0.4789183437824249;0.2174680233001709
01:00:0A:00:00:00:00;1726764274;19/09/24;16:44:34;0.771;0.7;0.122;-0.740368664264679;0.21380282938480377;0.10018189996480942
01:00:0A:00:00:00:00;1726764275;19/09/24;16:44:35;0.747;0.589;-0.338;-0.7586946487426758;-0.4715879559516907;0.3384193480014801
01:00:0A:00:00:00:00;1726764276;19/09/24;16:44:36;0.856;0.277;-0.728;1.7751742601394653;0.6304128766059875;-0.1160643920302391
01:00:0A:00:00:00:00;1726764277;19/09/24;16:44:37;0.882;0.512;-0.442;1.4184291362762451;0.7159340977668762;-0.2638937830924988
01:00:0A:00:00:00:00;1726764278;19/09/24;16:44:38;1.298;0.65;-0.122;0.49357908964157104;0.4300491213798523;0.0024434609804302454
01:00:0A:00:00:00:00;1726764279;19/09/24;16:44:39;0.979;0.186;0.012;-0.24190263450145721;-0.22479839622974396;0.17348572611808777
01:00:0A:00:00:00:00;1726764280;19/09/24;16:44:40;1.25;0.397;-0.091;-0.7415903806686401;0.3946189284324646;-0.03420845419168472
01:00:0A:00:00:00:00;1726764281;19/09/24;16:44:41;0.767;0.323;-0.168;-0.978606104850769;0.15393804013729095;0.4996877610683441
01:00:0A:00:00:00:00;1726764282;19/09/24;16:44:42;1.002;0.542;-0.091;0.051312677562236786;-0.07208210229873657;-0.2590068578720093
01:00:0A:00:00:00:00;1726764283;19/09/24;16:44:43;0.99;0.267;0.09;0.7660250067710876;0.20525071024894714;0.3078760802745819
01:00:0A:00:00:00:00;1726764284;19/09/24;16:44:44;1.043;0.136;0.162;-0.21624629199504852;0.06352998316287994;0.015882495790719986
01:00:0A:00:00:00:00;1726764285;19/09/24;16:44:45;0.962;0.305;-0.033;0.93095862865448;-0.19914205372333527;0.0012217304902151227
01:00:0A:00:00:00:00;1726764286;19/09/24;16:44:46;0.893;0.351;-0.175;0.4703662395477295;1.3133602142333984;-0.16859880089759827
01:00:0A:00:00:00:00;1726764287;19/09/24;16:44:47;1.016;0.333;-0.231;0.17837265133857727;0.1258382350206375;-0.40683624148368835
01:00:0A:00:00:00:00;1726764288;19/09/24;16:44:48;1.293;-0.34;0.278;0.16249015927314758;-0.0036651913542300463;0.1563815027475357
01:00:0A:00:00:00:00;1726764289;19/09/24;16:44:49;0.969;0.171;0.048;1.156978726387024;0.04153883829712868;-0.0708603635430336
01:00:0A:00:00:00:00;1726764290;19/09/24;16:44:50;1.028;-0.085;0.095;-0.051312677562236786;0.1576032191514969;-0.20402899384498596
01:00:0A:00:00:00:00;1726764291;19/09/24;16:44:51;0.941;0.456;-0.235;1.919338583946228;0.7281513810157776;-0.3591887652873993
01:00:0A:00:00:00:00;1726764292;19/09/24;16:44:52;0.636;0.232;-0.006;-0.9822713136672974;0.7330382466316223;0.009773843921720982
01:00:0A:00:00:00:00;1726764293;19/09/24;16:44:53;0.855;0.485;-0.146;-0.06352998316287994;-0.06352998316287994;0.2541199326515198
01:00:0A:00:00:00:00;1726764294;19/09/24;16:44:54;1.154;0.442;0.138;-0.5106833577156067;0.1576032191514969;-0.3286454975605011
01:00:0A:00:00:00:00;1726764295;19/09/24;16:44:55;0.907;0.417;0.23;0.11972958594560623;0.15027284622192383;-0.08307767659425735
01:00:0A:00:00:00:00;1726764296;19/09/24;16:44:56;0.863;0.465;0.215;-0.04398229718208313;-0.012217304669320583;-0.009773843921720982
01:00:0A:00:00:00:00;1726764297;19/09/24;16:44:57;0.88;0.51;0.137;-0.006108652334660292;-0.12095131725072861;0.09896016865968704
01:00:0A:00:00:00:00;1726764298;19/09/24;16:44:58;0.897;0.428;0.146;0.021991148591041565;-0.051312677562236786;-0.03420845419168472
01:00:0A:00:00:00:00;1726764299;19/09/24;16:44:59;0.892;0.461;0.136;-0.06841690838336945;-0.004886921960860491;-0.02321287989616394
01:00:0A:00:00:00:00;1726764300;19/09/24;16:45:00;0.892;0.43;0.106;0.05497787147760391;0.024434609338641167;0.10384709388017654
01:00:0A:00:00:00:00;1726764301;19/09/24;16:45:01;0.904;0.422;0.148;-0.17470745742321014;-0.05497787147760391;0.045204028487205505
01:00:0A:00:00:00:00;1726764302;19/09/24;16:45:02;0.865;0.452;0.179;-0.19058994948863983;-0.039095375686883926;0.0036651913542300463
01:00:0A:00:00:00:00;1726764303;19/09/24;16:45:03;0.892;0.458;0.149;0.05619959905743599;0.015882495790719986;-0.0012217304902151227
01:00:0A:00:00:00:00;1726764304;19/09/24;16:45:04;0.888;0.472;0.126;0.05497787147760391;0.0073303827084600925;-0.0036651913542300463
01:00:0A:00:00:00:00;1726764305;19/09/24;16:45:05;0.886;0.463;0.15;-0.014660765416920185;-0.0012217304902151227;0.012217304669320583
01:00:0A:00:00:00:00;1726764306;19/09/24;16:45:06;0.873;0.474;0.16;-0.02687807008624077;0.02076941914856434;-0.02321287989616394
01:00:0A:00:00:00:00;1726764307;19/09/24;16:45:07;0.889;0.481;0.14;0.021991148591041565;-0.012217304669320583;0.00855211354792118
01:00:0A:00:00:00:00;1726764308;19/09/24;16:45:08;0.853;0.359;0.086;-0.3530800938606262;-0.11239919811487198;0.2076941877603531
01:00:0A:00:00:00:00;1726764309;19/09/24;16:45:09;0.927;0.403;0.133;0.21135938167572021;0.006108652334660292;0.04398229718208313
01:00:0A:00:00:00:00;1726764310;19/09/24;16:45:10;0.898;0.357;0.221;-0.09040805697441101;0.21135938167572021;0.04153883829712868
01:00:0A:00:00:00:00;1726764311;19/09/24;16:45:11;0.919;0.378;0.198;-0.045204028487205505;-0.0073303827084600925;-0.024434609338641167
01:00:0A:00:00:00:00;1726764312;19/09/24;16:45:12;0.928;0.36;0.205;-0.013439035043120384;-0.0012217304902151227;0.0036651913542300463
01:00:0A:00:00:00:00;1726764313;19/09/24;16:45:13;0.924;0.364;0.21;0.08552113175392151;0.004886921960860491;0.014660765416920185
01:00:0A:00:00:00:00;1726764314;19/09/24;16:45:14;0.923;0.368;0.199;-0.010995574295520782;0.0012217304902151227;-0.019547687843441963
01:00:0A:00:00:00:00;1726764315;19/09/24;16:45:15;0.921;0.373;0.221;-0.05009094998240471;-0.04398229718208313;0.018325956538319588
01:00:0A:00:00:00:00;1726764316;19/09/24;16:45:16;0.91;0.366;0.217;-0.02687807008624077;0.013439035043120384;-0.010995574295520782
01:00:0A:00:00:00:00;1726764317;19/09/24;16:45:17;0.932;0.349;0.217;-0.02076941914856434;0.0012217304902151227;0.014660765416920185
01:00:0A:00:00:00:00;1726764318;19/09/24;16:45:18;0.923;0.36;0.227;0.04764748737215996;-0.010995574295520782;0.0036651913542300463
01:00:0A:00:00:00:00;1726764319;19/09/24;16:45:19;0.924;0.366;0.225;0.013439035043120384;-0.04153883829712868;0.02932153083384037
01:00:0A:00:00:00:00;1726764320;19/09/24;16:45:20;0.925;0.359;0.226;-0.015882495790719986;0.009773843921720982;-0.004886921960860491
01:00:0A:00:00:00:00;1726764321;19/09/24;16:45:21;0.924;0.366;0.223;0.0;0.010995574295520782;-0.0036651913542300463
01:00:0A:00:00:00:00;1726764322;19/09/24;16:45:22;0.924;0.355;0.231;-0.03420845419168472;0.024434609338641167;-0.0036651913542300463
01:00:0A:00:00:00:00;1726764323;19/09/24;16:45:23;0.902;0.371;0.194;0.161268413066864;-0.2076941877603531;0.09162978082895279
01:00:0A:00:00:00:00;1726764324;19/09/24;16:45:24;0.965;0.324;0.147;0.16982054710388184;0.004886921960860491;0.0073303827084600925
01:00:0A:00:00:00:00;1726764325;19/09/24;16:45:25;0.969;0.381;0.14;-0.2223549485206604;0.0073303827084600925;-0.019547687843441963
01:00:0A:00:00:00:00;1726764326;19/09/24;16:45:26;0.924;0.338;0.26;-0.02076941914856434;-0.03787364438176155;-0.06719517707824707
01:00:0A:00:00:00:00;1726764327;19/09/24;16:45:27;0.906;0.362;0.273;0.10873401165008545;0.03176499158143997;-0.0036651913542300463
01:00:0A:00:00:00:00;1726764328;19/09/24;16:45:28;0.91;0.335;0.282;0.021991148591041565;0.013439035043120384;0.02076941914856434
01:00:0A:00:00:00:00;1726764329;19/09/24;16:45:29;0.917;0.342;0.274;0.02932153083384037;-0.006108652334660292;0.0
01:00:0A:00:00:00:00;1726764330;19/09/24;16:45:30;0.92;0.346;0.259;0.05375614017248154;-0.019547687843441963;0.014660765416920185
01:00:0A:00:00:00:00;1726764331;19/09/24;16:45:31;0.911;0.355;0.275;0.018325956538319588;0.004886921960860491;-0.01710422709584236
01:00:0A:00:00:00:00;1726764332;19/09/24;16:45:32;0.909;0.361;0.277;0.018325956538319588;0.00855211354792118;-0.00855211354792118
01:00:0A:00:00:00:00;1726764333;19/09/24;16:45:33;0.909;0.358;0.274;0.0073303827084600925;0.006108652334660292;0.0
01:00:0A:00:00:00:00;1726764334;19/09/24;16:45:34;0.914;0.355;0.276;-0.015882495790719986;-0.013439035043120384;0.014660765416920185
01:00:0A:00:00:00:00;1726764335;19/09/24;16:45:35;0.918;0.356;0.265;0.01710422709584236;-0.02687807008624077;0.0073303827084600925
01:00:0A:00:00:00:00;1726764336;19/09/24;16:45:36;0.91;0.361;0.273;0.03176499158143997;0.010995574295520782;0.0012217304902151227
01:00:0A:00:00:00:00;1726764337;19/09/24;16:45:37;0.916;0.346;0.275;0.014660765416920185;0.02687807008624077;-0.014660765416920185
01:00:0A:00:00:00:00;1726764338;19/09/24;16:45:38;0.915;0.349;0.276;-0.01710422709584236;-0.0036651913542300463;0.0036651913542300463
01:00:0A:00:00:00:00;1726764339;19/09/24;16:45:39;0.917;0.358;0.274;-0.004886921960860491;-0.01710422709584236;0.009773843921720982
01:00:0A:00:00:00:00;1726764340;19/09/24;16:45:40;0.914;0.344;0.261;-0.015882495790719986;-0.006108652334660292;0.0
01:00:0A:00:00:00:00;1726764341;19/09/24;16:45:41;0.917;0.346;0.278;0.012217304669320583;0.015882495790719986;-0.012217304669320583
01:00:0A:00:00:00:00;1726764342;19/09/24;16:45:42;0.92;0.341;0.271;-0.021991148591041565;-0.02076941914856434;0.012217304669320583
01:00:0A:00:00:00:00;1726764343;19/09/24;16:45:43;0.921;0.335;0.264;-0.015882495790719986;-0.006108652334660292;0.009773843921720982
01:00:0A:00:00:00:00;1726764344;19/09/24;16:45:44;0.905;0.365;0.273;0.06230825558304787;0.02687807008624077;-0.004886921960860491
01:00:0A:00:00:00:00;1726764345;19/09/24;16:45:45;0.913;0.359;0.264;-0.042760565876960754;-0.009773843921720982;0.0
01:00:0A:00:00:00:00;1726764346;19/09/24;16:45:46;0.91;0.365;0.278;0.02687807008624077;0.013439035043120384;0.0024434609804302454
01:00:0A:00:00:00:00;1726764347;19/09/24;16:45:47;0.91;0.308;0.315;0.4337143301963806;0.16371189057826996;0.16371189057826996
01:00:0A:00:00:00:00;1726764348;19/09/24;16:45:48;0.829;0.459;0.161;0.07208210229873657;0.11850785464048386;0.012217304669320583
01:00:0A:00:00:00:00;1726764349;19/09/24;16:45:49;1.052;0.315;0.244;0.1111774742603302;-0.06352998316287994;0.28099802136421204
01:00:0A:00:00:00:00;1726764350;19/09/24;16:45:50;0.942;0.361;0.201;-0.445931613445282;-0.33964109420776367;0.02321287989616394
01:00:0A:00:00:00:00;1726764351;19/09/24;16:45:51;0.875;0.492;0.18;0.07452555745840073;0.021991148591041565;0.02687807008624077
01:00:0A:00:00:00:00;1726764352;19/09/24;16:45:52;0.86;0.469;0.19;-0.0036651913542300463;0.0012217304902151227;0.018325956538319588
01:00:0A:00:00:00:00;1726764353;19/09/24;16:45:53;0.917;0.394;0.131;-0.21868975460529327;-0.11728612333536148;0.06108652427792549
01:00:0A:00:00:00:00;1726764354;19/09/24;16:45:54;0.882;0.452;0.143;0.025656338781118393;0.10384709388017654;-0.040317103266716
01:00:0A:00:00:00:00;1726764355;19/09/24;16:45:55;0.893;0.447;0.161;0.03420845419168472;0.012217304669320583;0.024434609338641167
01:00:0A:00:00:00:00;1726764356;19/09/24;16:45:56;0.899;0.448;0.161;0.02932153083384037;-0.0073303827084600925;-0.01710422709584236
01:00:0A:00:00:00:00;1726764357;19/09/24;16:45:57;0.891;0.465;0.163;0.09285151958465576;-0.014660765416920185;0.021991148591041565
01:00:0A:00:00:00:00;1726764358;19/09/24;16:45:58;0.88;0.47;0.17;0.013439035043120384;0.03176499158143997;-0.01710422709584236
01:00:0A:00:00:00:00;1726764359;19/09/24;16:45:59;0.873;0.463;0.184;0.004886921960860491;0.019547687843441963;0.013439035043120384
01:00:0A:00:00:00:00;1726764360;19/09/24;16:46:00;0.889;0.45;0.186;-0.014660765416920185;0.018325956538319588;0.0
01:00:0A:00:00:00:00;1726764361;19/09/24;16:46:01;0.888;0.456;0.187;0.0;0.010995574295520782;0.0012217304902151227
01:00:0A:00:00:00:00;1726764362;19/09/24;16:46:02;0.871;0.465;0.187;0.0012217304902151227;-0.0073303827084600925;-0.010995574295520782
01:00:0A:00:00:00:00;1726764363;19/09/24;16:46:03;0.884;0.459;0.185;0.006108652334660292;0.01710422709584236;-0.014660765416920185
01:00:0A:00:00:00:00;1726764364;19/09/24;16:46:04;0.873;0.471;0.194;-0.015882495790719986;-0.0012217304902151227;-0.010995574295520782
01:00:0A:00:00:00:00;1726764365;19/09/24;16:46:05;0.877;0.455;0.193;-0.02321287989616394;0.00855211354792118;0.004886921960860491
01:00:0A:00:00:00:00;1726764366;19/09/24;16:46:06;0.878;0.471;0.194;-0.015882495790719986;-0.004886921960860491;0.00855211354792118
01:00:0A:00:00:00:00;1726764367;19/09/24;16:46:07;0.871;0.468;0.203;0.009773843921720982;0.014660765416920185;0.0
01:00:0A:00:00:00:00;1726764368;19/09/24;16:46:08;0.88;0.464;0.189;0.00855211354792118;0.0;0.0
01:00:0A:00:00:00:00;1726764369;19/09/24;16:46:09;0.864;0.478;0.194;0.06230825558304787;0.0354301817715168;0.0012217304902151227
01:00:0A:00:00:00:00;1726764370;19/09/24;16:46:10;0.869;0.474;0.211;0.012217304669320583;-0.0036651913542300463;-0.009773843921720982
01:00:0A:00:00:00:00;1726764371;19/09/24;16:46:11;0.878;0.465;0.201;0.004886921960860491;-0.0073303827084600925;0.006108652334660292
01:00:0A:00:00:00:00;1726764372;19/09/24;16:46:12;0.87;0.467;0.207;0.012217304669320583;0.0;0.004886921960860491
01:00:0A:00:00:00:00;1726764373;19/09/24;16:46:13;0.877;0.457;0.213;-0.02076941914856434;0.019547687843441963;0.01710422709584236
01:00:0A:00:00:00:00;1726764374;19/09/24;16:46:14;0.874;0.42;0.272;0.05009094998240471;0.040317103266716;0.07941248267889023
01:00:0A:00:00:00:00;1726764375;19/09/24;16:46:15;1.156;0.584;0.138;0.3017674386501312;-0.10018189996480942;-0.294437050819397
01:00:0A:00:00:00:00;1726764376;19/09/24;16:46:16;0.961;0.414;0.016;0.6939429044723511;-0.1270599663257599;-0.38240164518356323
01:00:0A:00:00:00:00;1726764377;19/09/24;16:46:17;0.837;0.372;-0.016;-1.2962559461593628;-0.49357908964157104;-0.045204028487205505
01:00:0A:00:00:00:00;1726764378;19/09/24;16:46:18;1.212;0.071;-0.096;2.7574455738067627;0.051312677562236786;0.08307767659425735
01:00:0A:00:00:00:00;1726764379;19/09/24;16:46:19;0.887;-0.013;-0.174;-0.2883284091949463;0.41294488310813904;-0.44226640462875366
01:00:0A:00:00:00:00;1726764380;19/09/24;16:46:20;0.861;0.184;-0.237;1.2547171115875244;0.31642818450927734;-0.1918116807937622
01:00:0A:00:00:00:00;1726764381;19/09/24;16:46:21;1.057;0.191;-0.081;-0.2125810980796814;0.6902776956558228;0.48258352279663086
01:00:0A:00:00:00:00;1726764382;19/09/24;16:46:22;0.865;-0.326;0.275;-0.3347541391849518;0.26511549949645996;-0.07696902006864548
01:00:0A:00:00:00:00;1726764383;19/09/24;16:46:23;0.899;0.468;-0.534;1.6884315013885498;0.5949827432632446;-1.6982053518295288
01:00:0A:00:00:00:00;1726764384;19/09/24;16:46:24;0.92;-0.057;-0.248;0.10018189996480942;-0.16493360698223114;1.108109474182129
01:00:0A:00:00:00:00;1726764385;19/09/24;16:46:25;0.397;0.252;-0.935;0.0659734457731247;-0.8735373020172119;0.12950342893600464
01:00:0A:00:00:00:00;1726764386;19/09/24;16:46:26;0.537;0.311;-0.81;0.40683624148368835;0.24068090319633484;-0.33964109420776367
01:00:0A:00:00:00:00;1726764387;19/09/24;16:46:27;0.649;0.297;-0.759;0.39828410744667053;0.08674286305904388;-0.02076941914856434
01:00:0A:00:00:00:00;1726764388;19/09/24;16:46:28;0.804;0.395;-0.49;0.16371189057826996;-0.20891590416431427;0.14416420459747314
01:00:0A:00:00:00:00;1726764389;19/09/24;16:46:29;0.518;0.315;-0.811;0.5497786998748779;-0.18081611394882202;-0.10995574295520782
01:00:0A:00:00:00:00;1726764390;19/09/24;16:46:30;0.89;0.149;-0.671;0.11850785464048386;1.312138557434082;1.4844024181365967
01:00:0A:00:00:00:00;1726764391;19/09/24;16:46:31;0.626;-0.646;0.391;-0.09773843735456467;0.11850785464048386;-0.2174680233001709
01:00:0A:00:00:00:00;1726764392;19/09/24;16:46:32;0.639;-0.703;0.405;0.29565879702568054;0.21502456068992615;0.09896016865968704
01:00:0A:00:00:00:00;1726764393;19/09/24;16:46:33;0.686;-0.739;0.22;-0.29688048362731934;-0.2076941877603531;0.13316862285137177
01:00:0A:00:00:00:00;1726764394;19/09/24;16:46:34;0.661;-0.788;0.009;-0.11850785464048386;-0.06352998316287994;-0.533896267414093
01:00:0A:00:00:00:00;1726764395;19/09/24;16:46:35;1.156;-0.009;-0.053;0.3897320330142975;-1.145983099937439;0.33964109420776367
01:00:0A:00:00:00:00;1726764396;19/09/24;16:46:36;1.069;-0.053;-0.046;0.05375614017248154;0.14538592100143433;-0.05619959905743599
01:00:0A:00:00:00:00;1726764397;19/09/24;16:46:37;0.99;-0.141;0.022;0.1576032191514969;0.3530800938606262;-0.1918116807937622
01:00:0A:00:00:00:00;1726764398;19/09/24;16:46:38;1.233;-0.226;0.61;-0.1258382350206375;-1.0348056554794312;0.4349360466003418
01:00:0A:00:00:00:00;1726764399;19/09/24;16:46:39;0.776;-0.683;0.243;-0.051312677562236786;-0.2577851116657257;0.1111774742603302
01:00:0A:00:00:00:00;1726764400;19/09/24;16:46:40;0.721;-0.724;0.115;-0.5558874011039734;0.3591887652873993;0.1820378452539444
01:00:0A:00:00:00:00;1726764401;19/09/24;16:46:41;0.653;-0.746;0.089;0.1771509200334549;-0.30054569244384766;-0.35674530267715454
01:00:0A:00:00:00:00;1726764402;19/09/24;16:46:42;0.8;-0.69;-0.013;-0.15027284622192383;-0.021991148591041565;-0.23335053026676178
01:00:0A:00:00:00:00;1726764403;19/09/24;16:46:43;0.938;-0.338;-0.102;-0.0659734457731247;-0.08674286305904388;0.018325956538319588
01:00:0A:00:00:00:00;1726764404;19/09/24;16:46:44;0.947;-0.345;-0.144;0.00855211354792118;-0.0073303827084600925;0.004886921960860491
01:00:0A:00:00:00:00;1726764405;19/09/24;16:46:45;0.944;-0.152;-0.394;-0.21624629199504852;0.16982054710388184;0.2321287840604782
01:00:0A:00:00:00:00;1726764406;19/09/24;16:46:46;0.796;-0.039;0.15;-1.166752576828003;1.5161675214767456;-1.4379768371582031
01:00:0A:00:00:00:00;1726764407;19/09/24;16:46:47;0.917;0.133;0.305;-0.4153883755207062;0.0024434609804302454;-0.38117989897727966
01:00:0A:00:00:00:00;1726764408;19/09/24;16:46:48;1.128;0.174;0.584;0.0024434609804302454;0.29565879702568054;-0.34208452701568604
01:00:0A:00:00:00:00;1726764409;19/09/24;16:46:49;1.004;0.321;-0.041;-3.7702603340148926;-0.6133087277412415;-0.3274237811565399
01:00:0A:00:00:00:00;1726764410;19/09/24;16:46:50;0.881;0.367;0.522;-1.5503759384155273;-0.5277875661849976;-0.6206390857696533
01:00:0A:00:00:00:00;1726764411;19/09/24;16:46:51;1.027;-0.009;-0.352;1.3475687503814697;1.0922271013259888;0.05253440886735916
01:00:0A:00:00:00:00;1726764412;19/09/24;16:46:52;0.825;-0.534;-0.042;-0.3885102868080139;-0.16371189057826996;0.7452555894851685
01:00:0A:00:00:00:00;1726764413;19/09/24;16:46:53;0.864;-0.576;-0.019;0.1062905490398407;-0.19914205372333527;-0.028099799528717995
01:00:0A:00:00:00:00;1726764414;19/09/24;16:46:54;0.85;-0.564;-0.039;-0.006108652334660292;-0.05619959905743599;0.13561207056045532
01:00:0A:00:00:00:00;1726764415;19/09/24;16:46:55;0.645;-0.762;0.021;-1.4624114036560059;1.214400053024292;0.8393288850784302
01:00:0A:00:00:00:00;1726764416;19/09/24;16:46:56;0.512;-0.751;-0.203;-0.3701843321323395;0.8038986325263977;0.22113320231437683
01:00:0A:00:00:00:00;1726764417;19/09/24;16:46:57;0.629;-1.211;-0.328;-0.1368338167667389;1.1850786209106445;0.6841690540313721
01:00:0A:00:00:00:00;1726764418;19/09/24;16:46:58;0.428;-0.712;-0.122;-0.375071257352829;0.7293730974197388;-0.21502456068992615
01:00:0A:00:00:00:00;1726764419;19/09/24;16:46:59;0.445;-0.824;-0.285;-1.027475357055664;1.3829989433288574;0.3933972120285034
01:00:0A:00:00:00:00;1726764420;19/09/24;16:47:00;0.523;-0.74;-0.572;-0.6597344279289246;1.507615327835083;0.7941248416900635
01:00:0A:00:00:00:00;1726764421;19/09/24;16:47:01;0.612;-0.626;-0.307;-1.0922271013259888;0.3127630054950714;-0.6682865619659424
01:00:0A:00:00:00:00;1726764422;19/09/24;16:47:02;0.944;-0.298;-0.16;0.9346237778663635;-0.036651913076639175;-0.4899139106273651
01:00:0A:00:00:00:00;1726764423;19/09/24;16:47:03;0.729;-0.325;-0.437;0.19425514340400696;0.021991148591041565;-0.4605923891067505
01:00:0A:00:00:00:00;1726764424;19/09/24;16:47:04;0.77;-0.373;-0.008;-0.39828410744667053;1.301142930984497;0.7330382466316223
01:00:0A:00:00:00:00;1726764425;19/09/24;16:47:05;0.685;-0.891;0.06;-0.36651912331581116;0.16004669666290283;0.3237585723400116
01:00:0A:00:00:00:00;1726764426;19/09/24;16:47:06;0.591;-1.063;-0.166;0.3530800938606262;-0.11362093687057495;0.19547687470912933
01:00:0A:00:00:00:00;1726764427;19/09/24;16:47:07;1.12;-0.709;0.128;0.2565633952617645;0.1869247555732727;-1.7812831401824951
01:00:0A:00:00:00:00;1726764428;19/09/24;16:47:08;1.021;-0.325;-0.178;-0.7574728727340698;0.09651670604944229;0.11362093687057495
01:00:0A:00:00:00:00;1726764429;19/09/24;16:47:09;0.948;-0.24;-0.184;-0.750142514705658;0.8197811245918274;0.6548475623130798
01:00:0A:00:00:00:00;1726764430;19/09/24;16:47:10;0.768;-0.594;-0.145;-0.8063421249389648;0.5045746564865112;0.5057964324951172
01:00:0A:00:00:00:00;1726764431;19/09/24;16:47:11;0.637;-0.926;-0.177;0.4899139106273651;-0.6597344279289246;0.37262779474258423
01:00:0A:00:00:00:00;1726764432;19/09/24;16:47:12;0.62;-0.799;-0.166;0.17470745742321014;-0.0024434609804302454;-0.2675589621067047
01:00:0A:00:00:00:00;1726764433;19/09/24;16:47:13;0.66;-0.732;-0.2;-0.19425514340400696;0.0;-0.05253440886735916
01:00:0A:00:00:00:00;1726764434;19/09/24;16:47:14;0.517;-0.653;-0.623;0.6780604124069214;-1.1313223838806152;-0.12095131725072861
01:00:0A:00:00:00:00;1726764435;19/09/24;16:47:15;0.333;-0.96;-0.641;-0.3335324227809906;-0.9737191796302795;-0.4447098970413208
01:00:0A:00:00:00:00;1726764436;19/09/24;16:47:16;-0.119;-0.494;-0.437;0.12461651116609573;-0.13439035415649414;1.4367550611495972
01:00:0A:00:00:00:00;1726764437;19/09/24;16:47:17;0.336;-0.696;-0.273;0.0354301817715168;1.1398744583129883;-0.4288274049758911
01:00:0A:00:00:00:00;1726764438;19/09/24;16:47:18;0.081;-0.956;-0.411;0.4447098970413208;0.3237585723400116;0.10873401165008545
01:00:0A:00:00:00:00;1726764439;19/09/24;16:47:19;0.043;-1.004;-0.21;-0.0073303827084600925;-0.05253440886735916;-0.03787364438176155
01:00:0A:00:00:00:00;1726764440;19/09/24;16:47:20;0.015;-1.024;-0.109;0.03420845419168472;-0.07696902006864548;-0.03176499158143997
01:00:0A:00:00:00:00;1726764441;19/09/24;16:47:21;0.048;-0.941;-0.358;-0.11728612333536148;0.10384709388017654;0.05864306166768074
01:00:0A:00:00:00:00;1726764442;19/09/24;16:47:22;0.045;-0.73;-0.672;-0.03176499158143997;0.009773843921720982;0.03420845419168472
01:00:0A:00:00:00:00;1726764443;19/09/24;16:47:23;0.044;-0.753;-0.656;0.028099799528717995;-0.00855211354792118;0.0036651913542300463
01:00:0A:00:00:00:00;1726764444;19/09/24;16:47:24;0.037;-0.672;-0.744;-0.1918116807937622;0.24068090319633484;0.375071257352829
01:00:0A:00:00:00:00;1726764445;19/09/24;16:47:25;-0.005;-0.461;-0.868;-0.5558874011039734;0.38606682419776917;0.846659243106842
01:00:0A:00:00:00:00;1726764446;19/09/24;16:47:26;0.029;-0.71;-0.805;0.5326744914054871;0.7049384713172913;0.4080579876899719
01:00:0A:00:00:00:00;1726764447;19/09/24;16:47:27;0.549;0.091;0.289;-2.3273963928222656;3.456275463104248;-2.0366246700286865
01:00:0A:00:00:00:00;1726764448;19/09/24;16:47:28;0.435;-0.649;0.858;-0.23457224667072296;0.05009094998240471;0.23457224667072296
01:00:0A:00:00:00:00;1726764449;19/09/24;16:47:29;0.197;-0.75;0.72;0.2480112910270691;0.6377432942390442;-0.05375614017248154
01:00:0A:00:00:00:00;1726764450;19/09/24;16:47:30;0.024;-0.849;0.564;-0.4642575681209564;1.4013248682022095;-0.9957103133201599
01:00:0A:00:00:00:00;1726764451;19/09/24;16:47:31;0.14;-0.836;0.506;0.23945917189121246;-0.7550294399261475;0.5412266254425049
01:00:0A:00:00:00:00;1726764452;19/09/24;16:47:32;0.166;-0.904;0.645;-0.012217304669320583;0.11850785464048386;-0.07330382615327835
01:00:0A:00:00:00:00;1726764453;19/09/24;16:47:33;0.219;-0.979;0.631;0.05253440886735916;-0.18814648687839508;-0.03176499158143997
01:00:0A:00:00:00:00;1726764454;19/09/24;16:47:34;0.273;-1.039;0.745;0.19425514340400696;0.24556782841682434;0.22602014243602753
01:00:0A:00:00:00:00;1726764455;19/09/24;16:47:35;0.285;-0.756;0.508;0.03420845419168472;-0.4544837474822998;0.7342600226402283
01:00:0A:00:00:00:00;1726764456;19/09/24;16:47:36;0.298;-1.04;0.786;0.013439035043120384;0.8662068843841553;-0.5619960427284241
01:00:0A:00:00:00:00;1726764457;19/09/24;16:47:37;0.409;-0.959;0.748;-0.31154125928878784;-0.00855211354792118;-0.30054569244384766
01:00:0A:00:00:00:00;1726764458;19/09/24;16:47:38;0.284;-0.714;0.658;-0.02076941914856434;-0.05619959905743599;0.01710422709584236
01:00:0A:00:00:00:00;1726764459;19/09/24;16:47:39;0.008;-0.156;-0.174;3.7372734546661377;-2.1172587871551514;1.4233160018920898
01:00:0A:00:00:00:00;1726764460;19/09/24;16:47:40;0.587;0.978;-0.03;1.3964378833770752;1.0348056554794312;1.8973474502563477
01:00:0A:00:00:00:00;1726764461;19/09/24;16:47:41;0.933;0.078;0.133;0.5852089524269104;-0.18325956165790558;0.76846843957901
01:00:0A:00:00:00:00;1726764462;19/09/24;16:47:42;0.999;-0.262;0.003;0.5681046843528748;0.4056144952774048;-0.62796950340271
01:00:0A:00:00:00:00;1726764463;19/09/24;16:47:43;0.813;0.409;0.449;0.3494149148464203;0.9834930300712585;-0.4447098970413208
01:00:0A:00:00:00:00;1726764464;19/09/24;16:47:44;1.009;0.014;0.233;0.15271630883216858;-1.0690141916275024;0.8857545852661133
01:00:0A:00:00:00:00;1726764465;19/09/24;16:47:45;1.034;0.289;0.064;-0.13439035415649414;0.35552355647087097;-0.750142514705658
01:00:0A:00:00:00:00;1726764466;19/09/24;16:47:46;0.53;0.851;0.218;0.19914205372333527;1.1117748022079468;0.4495967924594879
01:00:0A:00:00:00:00;1726764467;19/09/24;16:47:47;0.734;-0.025;0.757;-0.4251621961593628;-0.4092797040939331;1.2131783962249756
01:00:0A:00:00:00:00;1726764468;19/09/24;16:47:48;0.737;-0.482;0.447;0.6120869517326355;-0.6902776956558228;-0.10751228034496307
01:00:0A:00:00:00:00;1726764469;19/09/24;16:47:49;0.674;-0.543;0.576;2.372600555419922;0.3347541391849518;1.9254472255706787
01:00:0A:00:00:00:00;1726764470;19/09/24;16:47:50;0.551;0.419;0.613;0.8747590184211731;-0.24923302233219147;1.0836749076843262
01:00:0A:00:00:00:00;1726764471;19/09/24;16:47:51;0.699;0.469;0.48;0.2382374405860901;-0.46547931432724;1.2779300212860107
01:00:0A:00:00:00:00;1726764472;19/09/24;16:47:52;0.818;-0.632;0.247;2.5387558937072754;-1.0323623418807983;-0.15271630883216858
01:00:0A:00:00:00:00;1726764473;19/09/24;16:47:53;0.929;0.353;0.034;1.9144517183303833;-0.31154125928878784;-0.3433062732219696
01:00:0A:00:00:00:00;1726764474;19/09/24;16:47:54;0.826;-0.276;-0.498;1.2131783962249756;0.750142514705658;0.41172316670417786
01:00:0A:00:00:00:00;1726764475;19/09/24;16:47:55;1.038;0.005;-0.13;1.038470983505249;-0.3494149148464203;-0.36651912331581116
01:00:0A:00:00:00:00;1726764476;19/09/24;16:47:56;0.943;-0.362;0.167;0.8588765263557434;0.4789183437824249;0.8796459436416626
01:00:0A:00:00:00:00;1726764477;19/09/24;16:47:57;0.577;-0.355;0.922;0.5803219676017761;0.19303341209888458;-0.07819075137376785
01:00:0A:00:00:00:00;1726764478;19/09/24;16:47:58;0.508;-0.489;1.049;-0.11239919811487198;-0.322536826133728;-0.76846843957901
01:00:0A:00:00:00:00;1726764479;19/09/24;16:47:59;0.845;0.524;0.265;-0.7965682148933411;-1.0042624473571777;0.36529743671417236
01:00:0A:00:00:00:00;1726764480;19/09/24;16:48:00;1.037;0.104;-0.252;-1.0299187898635864;-0.10751228034496307;0.41783180832862854
01:00:0A:00:00:00:00;1726764481;19/09/24;16:48:01;1.062;-0.291;-0.076;-0.7538076639175415;0.3347541391849518;-0.1111774742603302
01:00:0A:00:00:00:00;1726764482;19/09/24;16:48:02;0.976;0.13;0.578;-0.588874101638794;-0.1563815027475357;-0.4544837474822998
01:00:0A:00:00:00:00;1726764483;19/09/24;16:48:03;1.05;0.453;0.049;-0.7916813492774963;-0.35674530267715454;-0.46670106053352356
01:00:0A:00:00:00:00;1726764484;19/09/24;16:48:04;0.931;0.295;0.157;-0.1160643920302391;-0.08552113175392151;-0.41661006212234497
01:00:0A:00:00:00:00;1726764485;19/09/24;16:48:05;0.914;0.234;0.319;-0.34574973583221436;-0.0708603635430336;0.2272418737411499
01:00:0A:00:00:00:00;1726764486;19/09/24;16:48:06;0.937;0.16;0.412;-0.2626720666885376;0.009773843921720982;-0.06108652427792549
01:00:0A:00:00:00:00;1726764487;19/09/24;16:48:07;0.65;-0.866;0.061;-0.09529497474431992;0.16249015927314758;-0.6951646208763123
01:00:0A:00:00:00:00;1726764488;19/09/24;16:48:08;0.919;-0.174;0.601;0.09651670604944229;0.07208210229873657;-0.7330382466316223
01:00:0A:00:00:00:00;1726764489;19/09/24;16:48:09;0.966;0.323;0.383;-0.294437050819397;0.16371189057826996;-0.04153883829712868
01:00:0A:00:00:00:00;1726764490;19/09/24;16:48:10;0.846;-0.691;-0.244;-0.21868975460529327;-0.8686503767967224;0.9480628371238708
01:00:0A:00:00:00:00;1726764491;19/09/24;16:48:11;1.075;-0.151;-0.061;0.6023131012916565;0.4752531349658966;-0.3640756905078888
01:00:0A:00:00:00:00;1726764492;19/09/24;16:48:12;0.841;0.375;0.506;0.4752531349658966;0.7538076639175415;-0.06719517707824707
01:00:0A:00:00:00:00;1726764493;19/09/24;16:48:13;0.476;0.178;0.883;-0.2626720666885376;0.5644394755363464;0.8148941993713379
01:00:0A:00:00:00:00;1726764494;19/09/24;16:48:14;0.528;-0.037;0.916;0.13927726447582245;-0.14416420459747314;-0.6731734871864319
01:00:0A:00:00:00:00;1726764495;19/09/24;16:48:15;0.748;0.745;0.166;-0.3078760802745819;-0.9749408960342407;-0.46181410551071167
01:00:0A:00:00:00:00;1726764496;19/09/24;16:48:16;0.68;0.834;0.184;-1.0152579545974731;-0.37629297375679016;-0.014660765416920185
01:00:0A:00:00:00:00;1726764497;19/09/24;16:48:17;0.991;0.069;0.447;-1.1716395616531372;-0.5546656250953674;0.1368338167667389
01:00:0A:00:00:00:00;1726764498;19/09/24;16:48:18;0.834;0.62;0.021;-3.115412712097168;-2.668259382247925;-0.4605923891067505
01:00:0A:00:00:00:00;1726764499;19/09/24;16:48:19;0.475;0.894;0.085;-1.7996090650558472;-1.567480206489563;0.39706242084503174
01:00:0A:00:00:00:00;1726764500;19/09/24;16:48:20;0.682;0.246;0.734;-1.3805553913116455;-0.6206390857696533;0.48380526900291443
01:00:0A:00:00:00:00;1726764501;19/09/24;16:48:21;0.633;-0.119;0.724;0.5522221922874451;2.919935703277588;-0.9871581792831421
01:00:0A:00:00:00:00;1726764502;19/09/24;16:48:22;0.973;0.37;0.532;0.8686503767967224;0.11850785464048386;1.0005972385406494
01:00:0A:00:00:00:00;1726764503;19/09/24;16:48:23;0.518;-0.823;-0.112;-1.3573424816131592;-2.5864033699035645;3.4074063301086426
01:00:0A:00:00:00:00;1726764504;19/09/24;16:48:24;0.679;-0.793;-0.218;0.9859364628791809;-0.6792821884155273;-1.3585643768310547
01:00:0A:00:00:00:00;1726764505;19/09/24;16:48:25;0.654;-0.501;-0.458;1.1044443845748901;-0.07819075137376785;-1.470963478088379
01:00:0A:00:00:00:00;1726764506;19/09/24;16:48:26;0.768;-0.46;-0.389;1.4233160018920898;-0.2590068578720093;-0.38240164518356323
01:00:0A:00:00:00:00;1726764507;19/09/24;16:48:27;0.611;-0.564;0.59;0.6597344279289246;0.13561207056045532;0.039095375686883926
01:00:0A:00:00:00:00;1726764508;19/09/24;16:48:28;0.595;-0.147;0.836;0.28099802136421204;-0.009773843921720982;-0.13805554807186127
01:00:0A:00:00:00:00;1726764509;19/09/24;16:48:29;0.867;0.148;0.478;-0.33597588539123535;-0.6682865619659424;-0.06230825558304787
01:00:0A:00:00:00:00;1726764510;19/09/24;16:48:30;0.991;-0.297;0.112;-0.16004669666290283;0.2565633952617645;-0.17959438264369965
01:00:0A:00:00:00:00;1726764511;19/09/24;16:48:31;0.504;0.752;-0.249;1.9559904336929321;1.0103710889816284;1.7018704414367676
01:00:0A:00:00:00:00;1726764512;19/09/24;16:48:32;0.854;-0.162;-0.423;2.593733787536621;1.2852604389190674;0.6108652353286743
01:00:0A:00:00:00:00;1726764513;19/09/24;16:48:33;0.91;-0.165;-0.248;4.117231369018555;1.0775662660598755;1.653001308441162
01:00:0A:00:00:00:00;1726764514;19/09/24;16:48:34;0.644;-0.545;-0.658;6.030461311340332;0.6230825185775757;0.6805038452148438
01:00:0A:00:00:00:00;1726764515;19/09/24;16:48:35;0.923;0.062;-0.283;3.8166861534118652;1.027475357055664;1.9559904336929321
01:00:0A:00:00:00:00;1726764516;19/09/24;16:48:36;0.705;0.614;-0.179;2.500882387161255;-0.2687807083129883;-0.09896016865968704
01:00:0A:00:00:00:00;1726764517;19/09/24;16:48:37;0.675;-0.525;-0.535;1.4819591045379639;0.35185837745666504;0.22602014243602753
01:00:0A:00:00:00:00;1726764518;19/09/24;16:48:38;0.458;-0.501;0.789;1.7311919927597046;0.5241223573684692;-0.1319468915462494
01:00:0A:00:00:00:00;1726764519;19/09/24;16:48:39;0.704;0.628;0.359;0.5106833577156067;-1.0103710889816284;0.3078760802745819
01:00:0A:00:00:00:00;1726764520;19/09/24;16:48:40;0.981;-0.133;-0.057;-0.4960225820541382;0.06230825558304787;1.3170254230499268
01:00:0A:00:00:00:00;1726764521;19/09/24;16:48:41;0.896;-0.35;0.079;1.017701506614685;-0.35063666105270386;-0.7269296050071716
01:00:0A:00:00:00:00;1726764522;19/09/24;16:48:42;0.987;0.15;-0.079;0.8283332586288452;-0.15515977144241333;-0.3604104816913605
01:00:0A:00:00:00:00;1726764523;19/09/24;16:48:43;0.911;-0.448;0.202;0.6499606370925903;0.6548475623130798;1.0323623418807983
01:00:0A:00:00:00:00;1726764524;19/09/24;16:48:44;0.885;0.254;0.348;1.0396926403045654;-0.27488934993743896;-0.6866125464439392
01:00:0A:00:00:00:00;1726764525;19/09/24;16:48:45;0.852;-0.606;0.176;5.2888712882995605;0.46670106053352356;1.8264870643615723
01:00:0A:00:00:00:00;1726764526;19/09/24;16:48:46;0.99;-0.143;-0.121;3.3426544666290283;0.6181955933570862;1.6322319507598877
01:00:0A:00:00:00:00;1726764527;19/09/24;16:48:47;0.563;0.495;-0.617;2.1478023529052734;-2.246762275695801;0.2076941877603531
01:00:0A:00:00:00:00;1726764528;19/09/24;16:48:48;0.503;-0.732;-0.474;0.8478808999061584;1.0458012819290161;-0.18570303916931152
01:00:0A:00:00:00:00;1726764529;19/09/24;16:48:49;0.994;-0.178;0.244;-0.0708603635430336;0.4141666293144226;-1.1948524713516235
01:00:0A:00:00:00:00;1726764530;19/09/24;16:48:50;0.956;0.112;0.308;-0.39095374941825867;-0.08307767659425735;0.045204028487205505
01:00:0A:00:00:00:00;1726764531;19/09/24;16:48:51;0.958;-0.157;-0.012;-0.20402899384498596;-0.294437050819397;0.09162978082895279
01:00:0A:00:00:00:00;1726764532;19/09/24;16:48:52;0.946;-0.007;0.197;-0.0354301817715168;0.4764748811721802;-0.4593706727027893
01:00:0A:00:00:00:00;1726764533;19/09/24;16:48:53;0.924;0.043;0.232;-0.28588491678237915;-0.3640756905078888;0.24068090319633484
01:00:0A:00:00:00:00;1726764534;19/09/24;16:48:54;0.998;0.297;-0.016;-0.2895500957965851;-0.0024434609804302454;-0.09162978082895279
01:00:0A:00:00:00:00;1726764535;19/09/24;16:48:55;0.943;0.154;0.323;0.5326744914054871;0.08307767659425735;0.036651913076639175
01:00:0A:00:00:00:00;1726764536;19/09/24;16:48:56;0.991;0.197;0.056;0.8454375267028809;-0.4300491213798523;0.1869247555732727
01:00:0A:00:00:00:00;1726764537;19/09/24;16:48:57;0.583;0.503;0.532;0.2272418737411499;-1.1789698600769043;1.7165312767028809
01:00:0A:00:00:00:00;1726764538;19/09/24;16:48:58;0.831;0.513;-0.01;-0.49724429845809937;-0.41783180832862854;0.8271114826202393
01:00:0A:00:00:00:00;1726764539;19/09/24;16:48:59;0.956;0.234;-0.127;-0.8185594081878662;-0.13805554807186127;0.3848450779914856
01:00:0A:00:00:00:00;1726764540;19/09/24;16:49:00;1.057;-0.036;-0.034;-0.9993755221366882;0.17592918872833252;0.2638937830924988
01:00:0A:00:00:00:00;1726764541;19/09/24;16:49:01;0.955;0.176;0.101;-1.1239920854568481;0.44715335965156555;0.3237585723400116
01:00:0A:00:00:00:00;1726764542;19/09/24;16:49:02;0.955;-0.211;0.336;-0.7037167549133301;-0.1270599663257599;-0.09529497474431992
01:00:0A:00:00:00:00;1726764543;19/09/24;16:49:03;0.954;-0.203;0.316;-0.3933972120285034;0.2590068578720093;-0.04886921867728233
01:00:0A:00:00:00:00;1726764544;19/09/24;16:49:04;0.979;-0.084;0.302;-0.11362093687057495;0.21502456068992615;-0.10873401165008545
01:00:0A:00:00:00:00;1726764545;19/09/24;16:49:05;0.986;0.081;0.258;-0.10506881773471832;-0.1270599663257599;-0.24068090319633484
01:00:0A:00:00:00:00;1726764546;19/09/24;16:49:06;0.99;0.186;0.231;-0.38606682419776917;-0.05375614017248154;-0.059864792972803116
01:00:0A:00:00:00:00;1726764547;19/09/24;16:49:07;0.969;-0.133;0.082;-0.4043927788734436;-0.13805554807186127;0.40194931626319885
01:00:0A:00:00:00:00;1726764548;19/09/24;16:49:08;0.885;0.028;0.256;-0.15393804013729095;0.34574973583221436;-0.3933972120285034
01:00:0A:00:00:00:00;1726764549;19/09/24;16:49:09;0.947;0.017;0.057;-0.2076941877603531;-0.9175195693969727;0.18081611394882202
01:00:0A:00:00:00:00;1726764550;19/09/24;16:49:10;0.97;0.184;-0.085;-0.31031954288482666;1.260825753211975;0.25045475363731384
01:00:0A:00:00:00:00;1726764551;19/09/24;16:49:11;0.894;-0.093;0.468;0.18936821818351746;-1.2131783962249756;0.036651913076639175
01:00:0A:00:00:00:00;1726764552;19/09/24;16:49:12;0.954;-0.098;-0.275;0.32131510972976685;0.13316862285137177;0.1014036238193512
01:00:0A:00:00:00:00;1726764553;19/09/24;16:49:13;0.977;-0.022;0.301;0.27611109614372253;0.4153883755207062;-0.028099799528717995
01:00:0A:00:00:00:00;1726764554;19/09/24;16:49:14;0.986;-0.084;0.231;0.4300491213798523;-0.03787364438176155;-0.2895500957965851
01:00:0A:00:00:00:00;1726764555;19/09/24;16:49:15;0.834;0.538;0.171;0.1661553531885147;-0.251676470041275;-0.1918116807937622
01:00:0A:00:00:00:00;1726764556;19/09/24;16:49:16;0.911;0.408;-0.002;0.7623597979545593;-0.2528982162475586;0.19425514340400696
01:00:0A:00:00:00:00;1726764557;19/09/24;16:49:17;0.685;-0.379;0.651;-0.455705463886261;-1.5980234146118164;0.37262779474258423
01:00:0A:00:00:00:00;1726764558;19/09/24;16:49:18;0.958;-0.226;-0.455;0.37629297375679016;-0.5522221922874451;-0.7721336483955383
01:00:0A:00:00:00:00;1726764559;19/09/24;16:49:19;0.995;0.109;0.157;0.08552113175392151;-0.2028072476387024;0.7831292152404785
01:00:0A:00:00:00:00;1726764560;19/09/24;16:49:20;0.983;-0.19;0.13;0.2638937830924988;0.1160643920302391;0.16493360698223114
01:00:0A:00:00:00:00;1726764561;19/09/24;16:49:21;0.929;0.145;0.138;0.34086278080940247;-0.0659734457731247;-0.5937609672546387
01:00:0A:00:00:00:00;1726764562;19/09/24;16:49:22;0.85;0.241;0.477;-0.018325956538319588;0.5363396406173706;0.2626720666885376
01:00:0A:00:00:00:00;1726764563;19/09/24;16:49:23;0.917;-0.039;0.431;0.40683624148368835;-0.21013763546943665;0.4141666293144226
01:00:0A:00:00:00:00;1726764564;19/09/24;16:49:24;0.918;-0.075;0.556;0.9138543605804443;0.018325956538319588;0.3078760802745819
01:00:0A:00:00:00:00;1726764565;19/09/24;16:49:25;0.427;0.006;0.894;1.2571606636047363;1.1740829944610596;-1.2986994981765747
01:00:0A:00:00:00:00;1726764566;19/09/24;16:49:26;0.646;0.383;0.439;0.3298672139644623;0.7024949789047241;0.27977627515792847
01:00:0A:00:00:00:00;1726764567;19/09/24;16:49:27;0.594;0.29;0.853;0.18081611394882202;0.5534439086914062;0.2174680233001709
01:00:0A:00:00:00:00;1726764568;19/09/24;16:49:28;0.682;0.092;0.843;1.1020008325576782;0.4202752709388733;0.911410927772522
01:00:0A:00:00:00:00;1726764569;19/09/24;16:49:29;0.71;0.539;0.556;1.193630576133728;0.18570303916931152;0.18570303916931152
01:00:0A:00:00:00:00;1726764570;19/09/24;16:49:30;0.799;0.639;-0.019;0.4288274049758911;0.009773843921720982;0.14905111491680145
01:00:0A:00:00:00:00;1726764571;19/09/24;16:49:31;0.828;-0.159;-0.522;0.9859364628791809;-0.015882495790719986;0.7049384713172913
01:00:0A:00:00:00:00;1726764572;19/09/24;16:49:32;0.689;-0.877;0.071;1.1301007270812988;0.028099799528717995;0.08918632566928864
01:00:0A:00:00:00:00;1726764573;19/09/24;16:49:33;0.904;0.16;0.422;2.9834659099578857;-0.35185837745666504;1.441641926765442
01:00:0A:00:00:00:00;1726764574;19/09/24;16:49:34;0.863;0.163;0.408;2.3469443321228027;-0.09773843735456467;0.26633724570274353
01:00:0A:00:00:00:00;1726764575;19/09/24;16:49:35;0.983;0.056;0.289;1.929112434387207;0.7721336483955383;1.204626202583313
01:00:0A:00:00:00:00;1726764576;19/09/24;16:49:36;0.875;0.2;0.365;1.529606580734253;-0.4960225820541382;1.156978726387024
01:00:0A:00:00:00:00;1726764577;19/09/24;16:49:37;0.808;-0.162;0.641;1.6823228597640991;-0.02932153083384037;0.1576032191514969
01:00:0A:00:00:00:00;1726764578;19/09/24;16:49:38;0.767;0.527;0.329;1.976759910583496;0.1062905490398407;0.05009094998240471
01:00:0A:00:00:00:00;1726764579;19/09/24;16:49:39;0.913;0.194;-0.286;2.0916025638580322;-0.27977627515792847;0.32498031854629517
01:00:0A:00:00:00:00;1726764580;19/09/24;16:49:40;0.78;0.128;-0.739;4.2100830078125;-2.289522886276245;-1.6016886234283447
01:00:0A:00:00:00:00;1726764581;19/09/24;16:49:41;0.641;-0.669;0.479;2.4165828227996826;-0.7623597979545593;0.3787364363670349
01:00:0A:00:00:00:00;1726764582;19/09/24;16:49:42;0.937;-0.269;0.259;1.9804250001907349;-1.1924089193344116;1.3072515726089478
01:00:0A:00:00:00:00;1726764583;19/09/24;16:49:43;0.917;-0.315;0.42;2.1392500400543213;-0.2785545289516449;0.5265658497810364
01:00:0A:00:00:00:00;1726764584;19/09/24;16:49:44;1.005;0.116;0.162;1.8191566467285156;-0.46670106053352356;0.14538592100143433
01:00:0A:00:00:00:00;1726764585;19/09/24;16:49:45;0.979;-0.422;0.072;1.6090190410614014;0.2785545289516449;-0.059864792972803116
01:00:0A:00:00:00:00;1726764586;19/09/24;16:49:46;1.026;0.107;0.404;1.2889256477355957;0.1160643920302391;0.39706242084503174
01:00:0A:00:00:00:00;1726764587;19/09/24;16:49:47;0.84;-0.63;0.555;1.056796908378601;0.10995574295520782;0.4337143301963806
01:00:0A:00:00:00:00;1726764588;19/09/24;16:49:48;0.639;0.945;0.016;0.7257078886032104;-0.21380282938480377;-0.7440338730812073
01:00:0A:00:00:00:00;1726764589;19/09/24;16:49:49;0.488;0.843;-0.234;-0.34574973583221436;-0.03420845419168472;-0.3640756905078888
01:00:0A:00:00:00:00;1726764590;19/09/24;16:49:50;0.497;0.802;0.632;-1.1435396671295166;0.04153883829712868;0.5729915499687195
01:00:0A:00:00:00:00;1726764591;19/09/24;16:49:51;0.947;0.261;0.358;-0.6866125464439392;-0.5375614166259766;-0.37629297375679016
01:00:0A:00:00:00:00;1726764592;19/09/24;16:49:52;0.754;0.437;0.583;-0.9370672702789307;-0.15882496535778046;0.09040805697441101
01:00:0A:00:00:00:00;1726764593;19/09/24;16:49:53;0.808;0.184;0.668;-0.455705463886261;-0.5558874011039734;-0.28099802136421204
01:00:0A:00:00:00:00;1726764594;19/09/24;16:49:54;0.882;0.404;-0.094;-0.6670648455619812;-1.0445796251296997;0.20891590416431427
01:00:0A:00:00:00:00;1726764595;19/09/24;16:49:55;0.488;-0.002;-0.71;-0.7648032903671265;-0.588874101638794;0.37262779474258423
01:00:0A:00:00:00:00;1726764596;19/09/24;16:49:56;0.476;0.831;-0.411;-1.5528194904327393;0.3323107063770294;-0.06352998316287994
01:00:0A:00:00:00:00;1726764597;19/09/24;16:49:57;0.945;0.37;0.174;-1.1423180103302002;-0.4899139106273651;0.5375614166259766
01:00:0A:00:00:00:00;1726764598;19/09/24;16:49:58;1.011;-0.027;-0.279;-1.1032226085662842;-0.05253440886735916;-0.05742133408784866
01:00:0A:00:00:00:00;1726764599;19/09/24;16:49:59;1.05;-0.068;0.16;-1.0299187898635864;0.14538592100143433;0.21013763546943665
01:00:0A:00:00:00:00;1726764600;19/09/24;16:50:00;1.106;-0.106;0.041;-0.7953465580940247;-0.013439035043120384;-0.17348572611808777
01:00:0A:00:00:00:00;1726764601;19/09/24;16:50:01;0.966;-0.217;-0.122;0.10751228034496307;-0.16371189057826996;0.17837265133857727
01:00:0A:00:00:00:00;1726764602;19/09/24;16:50:02;0.674;0.44;-0.183;-0.8991935849189758;-0.33108896017074585;-3.2840113639831543
01:00:0A:00:00:00:00;1726764603;19/09/24;16:50:03;0.853;0.424;-0.193;-0.018325956538319588;0.13439035415649414;1.5613715648651123
01:00:0A:00:00:00:00;1726764604;19/09/24;16:50:04;0.973;-0.274;0.043;0.07819075137376785;0.08307767659425735;0.23335053026676178
01:00:0A:00:00:00:00;1726764605;19/09/24;16:50:05;0.958;0.203;0.09;0.1966986060142517;0.08796459436416626;-0.9346237778663635
01:00:0A:00:00:00:00;1726764606;19/09/24;16:50:06;0.905;0.429;0.075;-0.12461651116609573;0.05497787147760391;0.5705481767654419
01:00:0A:00:00:00:00;1726764607;19/09/24;16:50:07;1.044;-0.177;0.247;-0.03176499158143997;-0.13316862285137177;0.1062905490398407
01:00:0A:00:00:00:00;1726764608;19/09/24;16:50:08;0.972;0.063;0.222;0.006108652334660292;0.28466320037841797;0.02321287989616394
01:00:0A:00:00:00:00;1726764609;19/09/24;16:50:09;0.998;0.056;0.28;0.036651913076639175;-0.37751471996307373;0.036651913076639175
01:00:0A:00:00:00:00;1726764610;19/09/24;16:50:10;1.16;0.157;0.064;0.09896016865968704;-0.10873401165008545;-0.34574973583221436
01:00:0A:00:00:00:00;1726764611;19/09/24;16:50:11;0.951;0.077;0.279;-0.03298672288656235;-0.12217304855585098;0.4642575681209564
01:00:0A:00:00:00:00;1726764612;19/09/24;16:50:12;0.879;0.08;0.576;0.07941248267889023;0.05619959905743599;0.09162978082895279
01:00:0A:00:00:00:00;1726764613;19/09/24;16:50:13;0.802;0.039;0.702;-0.09773843735456467;-0.11728612333536148;0.1514945775270462
01:00:0A:00:00:00:00;1726764614;19/09/24;16:50:14;0.851;0.369;0.431;0.6878342032432556;-0.09896016865968704;0.05375614017248154
01:00:0A:00:00:00:00;1726764615;19/09/24;16:50:15;0.883;0.479;0.103;-0.1563815027475357;-0.5717698335647583;0.21135938167572021
01:00:0A:00:00:00:00;1726764616;19/09/24;16:50:16;0.876;0.496;-0.064;-0.17837265133857727;-0.2895500957965851;-0.19425514340400696
01:00:0A:00:00:00:00;1726764617;19/09/24;16:50:17;0.89;0.368;-0.19;-0.33964109420776367;-0.0708603635430336;-0.3384193480014801
01:00:0A:00:00:00:00;1726764618;19/09/24;16:50:18;0.821;0.595;-0.01;-0.6682865619659424;-0.49357908964157104;-0.2773328125476837
01:00:0A:00:00:00:00;1726764619;19/09/24;16:50:19;0.676;0.518;-0.501;-0.9896016716957092;-0.030543262138962746;0.8930849432945251
01:00:0A:00:00:00:00;1726764620;19/09/24;16:50:20;0.976;0.032;0.251;-0.921184778213501;0.6511822938919067;0.8613200187683105
01:00:0A:00:00:00:00;1726764621;19/09/24;16:50:21;0.945;-0.279;-0.047;-0.38606682419776917;-0.445931613445282;-0.019547687843441963
01:00:0A:00:00:00:00;1726764622;19/09/24;16:50:22;0.981;0.031;0.207;-0.2321287840604782;0.7513642311096191;-0.37262779474258423
01:00:0A:00:00:00:00;1726764623;19/09/24;16:50:23;0.813;0.435;0.336;-0.31031954288482666;-0.44348815083503723;-1.2205088138580322
01:00:0A:00:00:00:00;1726764624;19/09/24;16:50:24;0.908;0.208;-0.485;-0.5607742667198181;-1.1178834438323975;0.8491026759147644
01:00:0A:00:00:00:00;1726764625;19/09/24;16:50:25;0.686;-0.336;-0.721;0.3078760802745819;-0.9737191796302795;2.1001548767089844
01:00:0A:00:00:00:00;1726764626;19/09/24;16:50:26;0.489;0.023;-0.863;-0.5094615817070007;0.5803219676017761;0.29077184200286865
01:00:0A:00:00:00:00;1726764627;19/09/24;16:50:27;0.994;-0.27;0.035;-0.3127630054950714;0.8552113175392151;-0.04886921867728233
01:00:0A:00:00:00:00;1726764628;19/09/24;16:50:28;0.884;-0.222;0.445;-0.4080579876899719;0.45692718029022217;-0.37262779474258423
01:00:0A:00:00:00:00;1726764629;19/09/24;16:50:29;0.915;0.482;0.247;-0.2675589621067047;-0.040317103266716;-0.901637077331543
01:00:0A:00:00:00:00;1726764630;19/09/24;16:50:30;0.548;0.02;0.941;2.5277602672576904;1.83992600440979;1.4489723443984985
01:00:0A:00:00:00:00;1726764631;19/09/24;16:50:31;0.515;0.813;0.257;0.9285151362419128;0.8234463334083557;0.9749408960342407
01:00:0A:00:00:00:00;1726764632;19/09/24;16:50:32;0.857;0.326;0.361;0.0757472887635231;-0.028099799528717995;1.4526375532150269
01:00:0A:00:00:00:00;1726764633;19/09/24;16:50:33;0.936;-0.278;0.159;0.8356636166572571;-0.5290092825889587;-0.12217304855585098
01:00:0A:00:00:00:00;1726764634;19/09/24;16:50:34;1.013;0.035;0.138;1.1129964590072632;0.04642575979232788;-0.5729915499687195
01:00:0A:00:00:00:00;1726764635;19/09/24;16:50:35;0.812;0.632;-0.068;0.4764748811721802;0.588874101638794;0.2736676335334778
01:00:0A:00:00:00:00;1726764636;19/09/24;16:50:36;0.83;0.299;0.513;0.14416420459747314;0.6951646208763123;0.13439035415649414
01:00:0A:00:00:00:00;1726764637;19/09/24;16:50:37;0.804;-0.094;0.597;0.46303585171699524;0.4960225820541382;0.6316346526145935
01:00:0A:00:00:00:00;1726764638;19/09/24;16:50:38;0.907;0.024;0.535;0.6866125464439392;0.161268413066864;0.3481931686401367
01:00:0A:00:00:00:00;1726764639;19/09/24;16:50:39;0.835;0.071;0.533;0.5839871764183044;-0.12095131725072861;0.15515977144241333
01:00:0A:00:00:00:00;1726764640;19/09/24;16:50:40;0.854;0.083;0.53;0.44104471802711487;-0.4899139106273651;0.0659734457731247
01:00:0A:00:00:00:00;1726764641;19/09/24;16:50:41;0.808;0.197;0.66;-0.1918116807937622;-0.09040805697441101;0.19058994948863983
01:00:0A:00:00:00:00;1726764642;19/09/24;16:50:42;0.813;0.341;0.567;-0.2015855312347412;0.11850785464048386;-0.15515977144241333
01:00:0A:00:00:00:00;1726764643;19/09/24;16:50:43;0.89;0.202;0.437;-0.5522221922874451;0.04642575979232788;-0.4056144952774048
01:00:0A:00:00:00:00;1726764644;19/09/24;16:50:44;0.852;0.163;0.538;-0.042760565876960754;0.10384709388017654;-0.29688048362731934
01:00:0A:00:00:00:00;1726764645;19/09/24;16:50:45;0.819;0.214;0.554;0.013439035043120384;0.18936821818351746;0.0
01:00:0A:00:00:00:00;1726764646;19/09/24;16:50:46;0.879;0.15;0.5;0.0012217304902151227;0.039095375686883926;0.11728612333536148
01:00:0A:00:00:00:00;1726764647;19/09/24;16:50:47;0.869;0.085;0.56;-0.5192354917526245;-0.012217304669320583;0.2076941877603531
01:00:0A:00:00:00:00;1726764648;19/09/24;16:50:48;0.979;-0.038;0.27;0.7159340977668762;-0.27122414112091064;0.25045475363731384
01:00:0A:00:00:00:00;1726764649;19/09/24;16:50:49;0.916;0.261;0.364;0.6120869517326355;0.161268413066864;-0.13927726447582245
01:00:0A:00:00:00:00;1726764650;19/09/24;16:50:50;0.839;0.435;0.37;-0.1062905490398407;0.01710422709584236;-0.11239919811487198
01:00:0A:00:00:00:00;1726764651;19/09/24;16:50:51;0.815;0.353;0.488;-0.11972958594560623;-0.05619959905743599;-0.05009094998240471
01:00:0A:00:00:00:00;1726764652;19/09/24;16:50:52;0.854;0.421;0.334;0.7342600226402283;-0.1563815027475357;-0.3323107063770294
01:00:0A:00:00:00:00;1726764653;19/09/24;16:50:53;0.929;0.376;-0.126;0.3188716471195221;0.006108652334660292;0.0024434609804302454
01:00:0A:00:00:00:00;1726764654;19/09/24;16:50:54;0.968;0.276;-0.055;1.7006487846374512;0.18570303916931152;-0.20891590416431427
01:00:0A:00:00:00:00;1726764655;19/09/24;16:50:55;0.885;0.04;-0.404;1.8179349899291992;-0.37262779474258423;-0.20402899384498596
01:00:0A:00:00:00:00;1726764656;19/09/24;16:50:56;0.919;-0.313;0.23;1.1325441598892212;0.12950342893600464;-0.2871066629886627
01:00:0A:00:00:00:00;1726764657;19/09/24;16:50:57;0.908;0.233;-0.043;0.7574728727340698;0.019547687843441963;-0.22968533635139465
01:00:0A:00:00:00:00;1726764658;19/09/24;16:50:58;0.764;0.419;-0.488;3.5833353996276855;1.4269812107086182;-1.1911872625350952
01:00:0A:00:00:00:00;1726764659;19/09/24;16:50:59;0.912;-0.151;-0.447;1.8069393634796143;0.28588491678237915;-1.4233160018920898
01:00:0A:00:00:00:00;1726764660;19/09/24;16:51:00;1.04;-0.159;-0.176;2.0024163722991943;0.4813618063926697;-0.3628539443016052
01:00:0A:00:00:00:00;1726764661;19/09/24;16:51:01;1.006;0.249;0.172;1.626123309135437;0.29688048362731934;0.004886921960860491
01:00:0A:00:00:00:00;1726764662;19/09/24;16:51:02;0.996;0.352;0.126;1.3671163320541382;0.513126790523529;0.2272418737411499
01:00:0A:00:00:00:00;1726764663;19/09/24;16:51:03;0.935;0.495;0.196;1.0396926403045654;-0.23945917189121246;0.27611109614372253
01:00:0A:00:00:00:00;1726764664;19/09/24;16:51:04;0.838;-0.453;-0.43;0.7293730974197388;-0.978606104850769;1.038470983505249
01:00:0A:00:00:00:00;1726764665;19/09/24;16:51:05;0.664;-0.794;-0.178;0.4483751058578491;-0.7147123217582703;1.4330898523330688
01:00:0A:00:00:00:00;1726764666;19/09/24;16:51:06;0.734;-0.818;0.155;0.3494149148464203;-0.3738495111465454;0.48258352279663086
01:00:0A:00:00:00:00;1726764667;19/09/24;16:51:07;1.032;0.203;0.276;0.7073819637298584;0.31642818450927734;-1.4526375532150269
01:00:0A:00:00:00:00;1726764668;19/09/24;16:51:08;0.772;0.665;-0.285;0.5766568183898926;-0.7342600226402283;0.40072759985923767
01:00:0A:00:00:00:00;1726764669;19/09/24;16:51:09;0.999;-0.208;-0.043;-0.6023131012916565;1.1985175609588623;0.7574728727340698
01:00:0A:00:00:00:00;1726764670;19/09/24;16:51:10;0.746;0.572;0.499;1.5357152223587036;0.35552355647087097;0.08918632566928864
01:00:0A:00:00:00:00;1726764671;19/09/24;16:51:11;0.937;-0.175;0.327;0.4593706727027893;-0.09162978082895279;1.4074335098266602
01:00:0A:00:00:00:00;1726764672;19/09/24;16:51:12;0.951;-0.096;-0.019;0.8112289905548096;-0.6243042349815369;-0.3384193480014801
01:00:0A:00:00:00:00;1726764673;19/09/24;16:51:13;0.926;0.141;0.145;0.7244861721992493;0.4593706727027893;-0.4764748811721802
01:00:0A:00:00:00:00;1726764674;19/09/24;16:51:14;0.957;-0.007;0.115;0.4202752709388733;-0.17348572611808777;0.4862487316131592
01:00:0A:00:00:00:00;1726764675;19/09/24;16:51:15;0.937;-0.279;-0.214;0.7525859475135803;0.5852089524269104;-0.5106833577156067
01:00:0A:00:00:00:00;1726764676;19/09/24;16:51:16;0.999;-0.437;0.003;1.794722080230713;-0.3078760802745819;0.1563815027475357
01:00:0A:00:00:00:00;1726764677;19/09/24;16:51:17;0.376;-0.206;0.908;5.7885589599609375;-0.8833111524581909;0.9162978529930115
01:00:0A:00:00:00:00;1726764678;19/09/24;16:51:18;0.333;-0.729;0.566;1.2131783962249756;4.345695495605469;2.0500636100769043
01:00:0A:00:00:00:00;1726764679;19/09/24;16:51:19;0.478;0.393;0.854;0.8833111524581909;-1.320690631866455;0.06963863223791122
01:00:0A:00:00:00:00;1726764680;19/09/24;16:51:20;0.948;-0.493;0.03;0.4911356568336487;-0.161268413066864;1.3634511232376099
01:00:0A:00:00:00:00;1726764681;19/09/24;16:51:21;0.811;-0.58;0.511;0.8527678847312927;0.24434609711170197;0.7012733221054077
01:00:0A:00:00:00:00;1726764682;19/09/24;16:51:22;0.709;0.081;0.811;0.9077457189559937;0.030543262138962746;0.16493360698223114
01:00:0A:00:00:00:00;1726764683;19/09/24;16:51:23;0.735;0.6;0.256;0.6792821884155273;-0.31642818450927734;-0.16371189057826996
01:00:0A:00:00:00:00;1726764684;19/09/24;16:51:24;0.765;0.551;-0.277;1.0372490882873535;-0.22357667982578278;-0.24923302233219147
01:00:0A:00:00:00:00;1726764685;19/09/24;16:51:25;1.008;-0.331;-0.334;2.2003366947174072;0.4996877610683441;-0.15271630883216858
01:00:0A:00:00:00:00;1726764686;19/09/24;16:51:26;0.911;0.359;-0.162;1.29381263256073;0.20402899384498596;0.5277875661849976
01:00:0A:00:00:00:00;1726764687;19/09/24;16:51:27;0.958;-0.405;0.163;0.9089674949645996;1.1105530261993408;0.48258352279663086
01:00:0A:00:00:00:00;1726764688;19/09/24;16:51:28;0.585;0.322;0.801;0.9150761365890503;-0.7489207983016968;-1.1520917415618896
01:00:0A:00:00:00:00;1726764689;19/09/24;16:51:29;0.744;-0.351;-0.509;0.8943067193031311;-1.5650367736816406;1.976759910583496
01:00:0A:00:00:00:00;1726764690;19/09/24;16:51:30;0.467;-0.639;-0.512;0.20402899384498596;-0.5021312236785889;-0.4398229718208313
01:00:0A:00:00:00:00;1726764691;19/09/24;16:51:31;0.93;-0.18;0.276;0.5754350423812866;0.740368664264679;-0.8564330339431763
01:00:0A:00:00:00:00;1726764692;19/09/24;16:51:32;0.854;0.243;0.362;0.2993239760398865;0.10751228034496307;-0.10995574295520782
01:00:0A:00:00:00:00;1726764693;19/09/24;16:51:33;0.956;-0.154;0.154;0.03298672288656235;-0.4398229718208313;0.7867944240570068
01:00:0A:00:00:00:00;1726764694;19/09/24;16:51:34;0.934;-0.301;0.113;0.3127630054950714;0.10995574295520782;-0.19303341209888458
01:00:0A:00:00:00:00;1726764695;19/09/24;16:51:35;0.96;0.043;0.073;0.3237585723400116;0.013439035043120384;-0.40194931626319885
01:00:0A:00:00:00:00;1726764696;19/09/24;16:51:36;0.853;0.364;0.454;0.29077184200286865;0.33597588539123535;0.4202752709388733
01:00:0A:00:00:00:00;1726764697;19/09/24;16:51:37;0.907;-0.029;0.508;0.513126790523529;0.41661006212234497;0.4043927788734436
01:00:0A:00:00:00:00;1726764698;19/09/24;16:51:38;0.591;-0.786;-0.325;-1.751961588859558;-0.5351179242134094;-0.6658430695533752
01:00:0A:00:00:00:00;1726764699;19/09/24;16:51:39;0.91;0.1;0.168;-1.0335839986801147;0.9847148060798645;0.045204028487205505
01:00:0A:00:00:00:00;1726764700;19/09/24;16:51:40;0.945;-0.062;0.015;-0.7098253965377808;-0.911410927772522;-0.3628539443016052
01:00:0A:00:00:00:00;1726764701;19/09/24;16:51:41;0.939;0.045;-0.212;-0.48258352279663086;0.15027284622192383;0.02076941914856434
01:00:0A:00:00:00:00;1726764702;19/09/24;16:51:42;0.99;-0.024;-0.217;-0.2981022298336029;0.2981022298336029;0.013439035043120384
01:00:0A:00:00:00:00;1726764703;19/09/24;16:51:43;1.012;-0.028;-0.2;-0.15027284622192383;0.2773328125476837;0.08552113175392151
01:00:0A:00:00:00:00;1726764704;19/09/24;16:51:44;1.017;-0.069;0.06;-0.15027284622192383;-0.028099799528717995;0.05009094998240471
01:00:0A:00:00:00:00;1726764705;19/09/24;16:51:45;1.006;-0.047;0.186;-0.09285151958465576;0.29565879702568054;-0.00855211354792118
01:00:0A:00:00:00:00;1726764706;19/09/24;16:51:46;0.932;0.048;0.409;-0.14905111491680145;0.19303341209888458;-0.20036379992961884
01:00:0A:00:00:00:00;1726764707;19/09/24;16:51:47;0.984;0.115;0.128;-0.2125810980796814;-0.38240164518356323;-0.27122414112091064
01:00:0A:00:00:00:00;1726764708;19/09/24;16:51:48;0.929;0.033;0.092;-0.27977627515792847;-0.015882495790719986;0.08674286305904388
01:00:0A:00:00:00:00;1726764709;19/09/24;16:51:49;0.897;-0.231;0.109;-0.21868975460529327;-0.028099799528717995;0.2528982162475586
01:00:0A:00:00:00:00;1726764710;19/09/24;16:51:50;0.953;-0.081;0.122;0.17959438264369965;0.22479839622974396;-1.2986994981765747
01:00:0A:00:00:00:00;1726764711;19/09/24;16:51:51;0.883;0.33;0.365;-0.23945917189121246;0.0073303827084600925;0.35185837745666504
01:00:0A:00:00:00:00;1726764712;19/09/24;16:51:52;0.909;-0.5;0.273;-0.1722639948129654;-0.35674530267715454;0.5668829083442688
01:00:0A:00:00:00:00;1726764713;19/09/24;16:51:53;0.979;-0.457;-0.088;0.24556782841682434;-0.2015855312347412;-0.3323107063770294
01:00:0A:00:00:00:00;1726764714;19/09/24;16:51:54;0.908;-0.365;-0.229;-0.17837265133857727;-0.5668829083442688;0.13072516024112701
01:00:0A:00:00:00:00;1726764715;19/09/24;16:51:55;0.606;-0.035;-0.405;4.103792667388916;-1.891238808631897;-2.5033257007598877
01:00:0A:00:00:00:00;1726764716;19/09/24;16:51:56;0.899;-0.081;-0.358;0.5962044596672058;0.13316862285137177;0.07330382615327835
01:00:0A:00:00:00:00;1726764717;19/09/24;16:51:57;0.75;-0.62;0.17;0.7232644557952881;0.9431759119033813;0.04398229718208313
01:00:0A:00:00:00:00;1726764718;19/09/24;16:51:58;0.737;-0.304;0.666;-0.4300491213798523;0.09285151958465576;-0.051312677562236786
01:00:0A:00:00:00:00;1726764719;19/09/24;16:51:59;0.746;-0.68;0.151;-0.588874101638794;-0.7867944240570068;0.1722639948129654
01:00:0A:00:00:00:00;1726764720;19/09/24;16:52:00;0.485;-0.86;-0.132;0.5375614166259766;-0.3176499307155609;0.29688048362731934
01:00:0A:00:00:00:00;1726764721;19/09/24;16:52:01;0.665;-0.652;-0.569;-1.3622294664382935;0.8197811245918274;-0.2528982162475586
01:00:0A:00:00:00:00;1726764722;19/09/24;16:52:02;0.908;0.376;-0.403;-2.0146336555480957;0.4691444933414459;0.0024434609804302454
01:00:0A:00:00:00:00;1726764723;19/09/24;16:52:03;0.885;-0.449;0.402;-1.5515977144241333;-0.375071257352829;-0.0073303827084600925
01:00:0A:00:00:00:00;1726764724;19/09/24;16:52:04;1.038;0.119;0.094;-1.1239920854568481;0.36529743671417236;-0.28099802136421204
01:00:0A:00:00:00:00;1726764725;19/09/24;16:52:05;0.972;-0.409;0.315;-0.8894197940826416;-0.27611109614372253;-0.19303341209888458
01:00:0A:00:00:00:00;1726764726;19/09/24;16:52:06;0.862;0.496;-0.157;-0.7086036801338196;0.3481931686401367;-0.1111774742603302
01:00:0A:00:00:00:00;1726764727;19/09/24;16:52:07;1.011;-0.091;-0.154;-0.6096435189247131;-0.06719517707824707;0.8772024512290955
01:00:0A:00:00:00:00;1726764728;19/09/24;16:52:08;0.854;-0.377;-0.287;-0.19303341209888458;0.004886921960860491;0.4349360466003418
01:00:0A:00:00:00:00;1726764729;19/09/24;16:52:09;0.814;-0.565;0.152;-0.2272418737411499;0.45814892649650574;-0.2687807083129883
01:00:0A:00:00:00:00;1726764730;19/09/24;16:52:10;0.782;-0.51;0.345;0.35185837745666504;0.20647244155406952;0.09407324343919754
01:00:0A:00:00:00:00;1726764731;19/09/24;16:52:11;0.856;-0.034;0.569;0.5057964324951172;-0.31154125928878784;-0.5546656250953674
01:00:0A:00:00:00:00;1726764732;19/09/24;16:52:12;0.911;0.143;0.27;0.33597588539123535;-0.5595525503158569;0.6866125464439392
01:00:0A:00:00:00:00;1726764733;19/09/24;16:52:13;0.948;-0.205;0.083;0.4948008358478546;-0.2076941877603531;-0.3530800938606262
01:00:0A:00:00:00:00;1726764734;19/09/24;16:52:14;0.989;0.098;0.203;0.3738495111465454;0.3494149148464203;-0.08796459436416626
01:00:0A:00:00:00:00;1726764735;19/09/24;16:52:15;0.846;0.069;-0.207;-1.2877038717269897;-3.1703906059265137;0.5644394755363464
01:00:0A:00:00:00:00;1726764736;19/09/24;16:52:16;0.806;-0.551;-0.263;0.8417722582817078;1.55892813205719;-0.5009095072746277
01:00:0A:00:00:00:00;1726764737;19/09/24;16:52:17;0.755;0.272;0.507;0.6084217429161072;-0.0757472887635231;-0.4740314185619354
01:00:0A:00:00:00:00;1726764738;19/09/24;16:52:18;0.639;0.164;0.732;-0.38117989897727966;0.5656611919403076;1.6627751588821411
01:00:0A:00:00:00:00;1726764739;19/09/24;16:52:19;0.708;-0.147;0.766;0.3640756905078888;-0.27000245451927185;-0.5363396406173706
01:00:0A:00:00:00:00;1726764740;19/09/24;16:52:20;0.976;0.165;-0.016;-0.11362093687057495;-0.7342600226402283;0.45326200127601624
01:00:0A:00:00:00:00;1726764741;19/09/24;16:52:21;0.958;-0.172;0.028;-0.28588491678237915;0.5644394755363464;0.3298672139644623
01:00:0A:00:00:00:00;1726764742;19/09/24;16:52:22;0.989;-0.019;0.27;-0.07208210229873657;-0.11484266817569733;-0.5656611919403076
01:00:0A:00:00:00:00;1726764743;19/09/24;16:52:23;0.902;-0.014;0.508;0.0012217304902151227;-0.22602014243602753;0.05375614017248154
01:00:0A:00:00:00:00;1726764744;19/09/24;16:52:24;1.003;0.334;0.078;2.1148154735565186;0.6963863372802734;0.21135938167572021
01:00:0A:00:00:00:00;1726764745;19/09/24;16:52:25;0.857;0.665;-0.034;1.3158037662506104;0.1966986060142517;-0.4300491213798523
01:00:0A:00:00:00:00;1726764746;19/09/24;16:52:26;0.894;-0.261;0.292;0.6780604124069214;0.6401867866516113;0.5827654600143433
01:00:0A:00:00:00:00;1726764747;19/09/24;16:52:27;0.629;-0.231;0.708;1.2986994981765747;0.1368338167667389;0.4312708377838135
01:00:0A:00:00:00:00;1726764748;19/09/24;16:52:28;0.566;-0.339;0.935;-0.2565633952617645;-0.38240164518356323;0.9248499870300293
01:00:0A:00:00:00:00;1726764749;19/09/24;16:52:29;0.956;0.008;0.249;0.3237585723400116;-0.9187413454055786;-0.4508185386657715
01:00:0A:00:00:00:00;1726764750;19/09/24;16:52:30;0.97;-0.038;-0.258;0.11484266817569733;0.294437050819397;-0.05009094998240471
01:00:0A:00:00:00:00;1726764751;19/09/24;16:52:31;1.008;-0.057;0.164;0.0012217304902151227;0.33597588539123535;-0.08918632566928864
01:00:0A:00:00:00:00;1726764752;19/09/24;16:52:32;0.977;-0.036;0.367;-0.030543262138962746;-0.48869219422340393;0.06108652427792549
01:00:0A:00:00:00:00;1726764753;19/09/24;16:52:33;0.974;-0.143;0.124;0.07819075137376785;0.42271876335144043;0.08429940044879913
01:00:0A:00:00:00:00;1726764754;19/09/24;16:52:34;0.952;-0.127;0.293;0.17959438264369965;-0.779464066028595;0.07330382615327835
01:00:0A:00:00:00:00;1726764755;19/09/24;16:52:35;0.99;0.249;0.155;0.33964109420776367;-0.18325956165790558;-0.5791001915931702
01:00:0A:00:00:00:00;1726764756;19/09/24;16:52:36;1.049;-0.267;-0.008;0.07452555745840073;-0.23090705275535583;0.929736852645874
01:00:0A:00:00:00:00;1726764757;19/09/24;16:52:37;0.377;0.778;0.656;1.3805553913116455;-0.6010913848876953;-1.310916781425476
01:00:0A:00:00:00:00;1726764758;19/09/24;16:52:38;0.399;0.536;0.65;-0.3579670488834381;-1.0910052061080933;0.626747727394104
01:00:0A:00:00:00:00;1726764759;19/09/24;16:52:39;0.927;0.257;0.273;-0.49235740303993225;-0.9578366875648499;-0.021991148591041565
01:00:0A:00:00:00:00;1726764760;19/09/24;16:52:40;1.004;-0.086;0.126;-0.8735373020172119;0.08552113175392151;0.5400049090385437
01:00:0A:00:00:00:00;1726764761;19/09/24;16:52:41;1.003;-0.181;0.213;-0.6255260109901428;0.24068090319633484;-0.22357667982578278
01:00:0A:00:00:00:00;1726764762;19/09/24;16:52:42;1.273;0.181;0.26;-0.4960225820541382;0.036651913076639175;-0.30054569244384766
01:00:0A:00:00:00:00;1726764763;19/09/24;16:52:43;0.947;-0.51;-0.038;-0.18448130786418915;-0.0036651913542300463;0.04642575979232788
01:00:0A:00:00:00:00;1726764764;19/09/24;16:52:44;1.007;0.163;-0.059;0.08429940044879913;-0.46792274713516235;-0.3323107063770294
01:00:0A:00:00:00:00;1726764765;19/09/24;16:52:45;1.007;0.173;-0.047;-0.1270599663257599;0.6487389206886292;0.19792033731937408
01:00:0A:00:00:00:00;1726764766;19/09/24;16:52:46;0.999;-0.197;0.153;0.6316346526145935;0.26511549949645996;0.1258382350206375
01:00:0A:00:00:00:00;1726764767;19/09/24;16:52:47;0.934;0.081;0.409;0.9138543605804443;0.1869247555732727;-0.004886921960860491
01:00:0A:00:00:00:00;1726764768;19/09/24;16:52:48;0.987;0.239;0.098;0.6389650106430054;-0.2736676335334778;0.9162978529930115
01:00:0A:00:00:00:00;1726764769;19/09/24;16:52:49;0.813;-0.649;0.228;1.2596040964126587;-0.03787364438176155;-0.2590068578720093
01:00:0A:00:00:00:00;1726764770;19/09/24;16:52:50;0.425;0.553;0.651;0.3347541391849518;-1.3939944505691528;-0.8295549750328064
01:00:0A:00:00:00:00;1726764771;19/09/24;16:52:51;0.617;0.593;0.51;-1.1484266519546509;-0.626747727394104;-0.021991148591041565
01:00:0A:00:00:00:00;1726764772;19/09/24;16:52:52;0.887;-0.192;0.464;-0.9615018963813782;-0.8894197940826416;0.5766568183898926
01:00:0A:00:00:00:00;1726764773;19/09/24;16:52:53;0.852;-0.49;-0.309;-0.18081611394882202;-0.08918632566928864;-0.3530800938606262
01:00:0A:00:00:00:00;1726764774;19/09/24;16:52:54;0.997;-0.154;0.343;0.3152064383029938;0.6670648455619812;-0.3029891550540924
01:00:0A:00:00:00:00;1726764775;19/09/24;16:52:55;0.78;0.088;0.748;0.2125810980796814;-0.313984751701355;0.13805554807186127
01:00:0A:00:00:00:00;1726764776;19/09/24;16:52:56;1.023;-0.171;-0.268;0.1514945775270462;-0.3298672139644623;0.2382374405860901
01:00:0A:00:00:00:00;1726764777;19/09/24;16:52:57;1.056;-0.068;0.045;0.3445279896259308;0.31642818450927734;-0.36651912331581116
01:00:0A:00:00:00:00;1726764778;19/09/24;16:52:58;0.886;-0.03;0.665;0.3604104816913605;0.21624629199504852;-0.042760565876960754
01:00:0A:00:00:00:00;1726764779;19/09/24;16:52:59;0.926;0.255;0.102;0.34086278080940247;0.4337143301963806;-0.7012733221054077
01:00:0A:00:00:00:00;1726764780;19/09/24;16:53:00;0.943;-0.184;-0.037;-0.20647244155406952;-0.9138543605804443;1.9633208513259888
01:00:0A:00:00:00:00;1726764781;19/09/24;16:53:01;0.708;-0.447;0.213;0.2174680233001709;2.7159066200256348;1.4343115091323853
01:00:0A:00:00:00:00;1726764782;19/09/24;16:53:02;0.169;-0.212;1.136;0.2565633952617645;0.4251621961593628;-0.3640756905078888
01:00:0A:00:00:00:00;1726764783;19/09/24;16:53:03;0.765;-0.179;0.692;0.2785545289516449;-1.2779300212860107;-0.12828169763088226
01:00:0A:00:00:00:00;1726764784;19/09/24;16:53:04;0.885;-0.13;-0.427;0.36163222789764404;-0.7574728727340698;0.10384709388017654
01:00:0A:00:00:00:00;1726764785;19/09/24;16:53:05;0.92;-0.267;-0.008;0.5412266254425049;1.1948524713516235;-0.5070181488990784
01:00:0A:00:00:00:00;1726764786;19/09/24;16:53:06;0.844;0.072;0.293;0.3995058536529541;-0.19914205372333527;-0.21868975460529327
01:00:0A:00:00:00:00;1726764787;19/09/24;16:53:07;0.873;0.241;0.252;-0.00855211354792118;0.2822197377681732;-0.06963863223791122
01:00:0A:00:00:00:00;1726764788;19/09/24;16:53:08;0.58;-0.039;0.532;1.4355332851409912;-0.12828169763088226;0.8527678847312927
01:00:0A:00:00:00:00;1726764789;19/09/24;16:53:09;0.774;-0.046;0.503;0.22846359014511108;-0.5803219676017761;0.5632177591323853
01:00:0A:00:00:00:00;1726764790;19/09/24;16:53:10;0.87;-0.393;0.36;0.7330382466316223;-0.9248499870300293;0.6707300543785095
01:00:0A:00:00:00:00;1726764791;19/09/24;16:53:11;0.892;-0.288;0.317;1.2877038717269897;-0.5791001915931702;-0.15393804013729095
01:00:0A:00:00:00:00;1726764792;19/09/24;16:53:12;0.956;-0.352;0.088;1.1533136367797852;0.6206390857696533;0.15271630883216858
01:00:0A:00:00:00:00;1726764793;19/09/24;16:53:13;0.752;0.309;0.722;0.8845328092575073;0.8588765263557434;-0.5632177591323853
01:00:0A:00:00:00:00;1726764794;19/09/24;16:53:14;0.664;0.501;0.496;-0.16004669666290283;-0.9505062699317932;-0.3274237811565399
01:00:0A:00:00:00:00;1726764795;19/09/24;16:53:15;0.887;0.39;0.349;-0.9321803450584412;-0.8539896011352539;0.18570303916931152
01:00:0A:00:00:00:00;1726764796;19/09/24;16:53:16;1.043;0.018;0.072;-1.108109474182129;0.08552113175392151;0.35552355647087097
01:00:0A:00:00:00:00;1726764797;19/09/24;16:53:17;1.007;-0.324;0.208;0.06108652427792549;-0.015882495790719986;-0.014660765416920185
01:00:0A:00:00:00:00;1726764798;19/09/24;16:53:18;1.071;0.203;0.101;0.16004669666290283;0.4996877610683441;0.00855211354792118
01:00:0A:00:00:00:00;1726764799;19/09/24;16:53:19;0.834;-0.154;0.437;0.39217546582221985;-0.15393804013729095;0.76846843957901
01:00:0A:00:00:00:00;1726764800;19/09/24;16:53:20;0.865;-0.271;0.405;1.0848965644836426;-0.1722639948129654;0.5045746564865112
01:00:0A:00:00:00:00;1726764801;19/09/24;16:53:21;0.841;0.156;0.581;1.1911872625350952;-0.21868975460529327;0.21013763546943665
01:00:0A:00:00:00:00;1726764802;19/09/24;16:53:22;1.018;-0.055;-0.216;0.7452555894851685;-0.059864792972803116;0.8967502117156982
01:00:0A:00:00:00:00;1726764803;19/09/24;16:53:23;0.544;0.997;0.09;0.6756169199943542;-0.38728854060173035;-2.370157241821289
01:00:0A:00:00:00:00;1726764804;19/09/24;16:53:24;0.915;0.148;0.334;-0.6304128766059875;-0.8148941993713379;1.626123309135437
01:00:0A:00:00:00:00;1726764805;19/09/24;16:53:25;0.841;-0.303;-0.218;0.07452555745840073;0.18570303916931152;-0.45326200127601624
01:00:0A:00:00:00:00;1726764806;19/09/24;16:53:26;0.851;-0.632;0.136;0.43737950921058655;0.48380526900291443;0.006108652334660292
01:00:0A:00:00:00:00;1726764807;19/09/24;16:53:27;0.787;-0.005;0.696;-0.35063666105270386;0.5057964324951172;-0.3604104816913605
01:00:0A:00:00:00:00;1726764808;19/09/24;16:53:28;0.81;0.053;0.612;-0.7305948734283447;0.4056144952774048;-0.09773843735456467
01:00:0A:00:00:00:00;1726764809;19/09/24;16:53:29;0.888;-0.153;0.488;0.02076941914856434;-0.045204028487205505;0.26633724570274353
01:00:0A:00:00:00:00;1726764810;19/09/24;16:53:30;0.916;-0.352;0.272;0.5180137157440186;-0.4398229718208313;0.051312677562236786
01:00:0A:00:00:00:00;1726764811;19/09/24;16:53:31;0.878;-0.403;0.185;0.48380526900291443;0.030543262138962746;-0.5070181488990784
01:00:0A:00:00:00:00;1726764812;19/09/24;16:53:32;0.843;-0.563;0.307;-0.03787364438176155;0.3090977966785431;-0.5302309989929199
01:00:0A:00:00:00:00;1726764813;19/09/24;16:53:33;0.788;-0.474;0.476;-0.3335324227809906;-0.20647244155406952;-0.4593706727027893
01:00:0A:00:00:00:00;1726764814;19/09/24;16:53:34;0.746;-0.455;0.598;0.2590068578720093;-0.15027284622192383;0.03787364438176155
01:00:0A:00:00:00:00;1726764815;19/09/24;16:53:35;0.772;-0.089;0.696;0.6609562039375305;0.06719517707824707;0.3127630054950714
01:00:0A:00:00:00:00;1726764816;19/09/24;16:53:36;0.939;-0.078;0.391;-0.21013763546943665;-0.14905111491680145;0.3237585723400116
01:00:0A:00:00:00:00;1726764817;19/09/24;16:53:37;0.965;-0.247;0.162;0.2724458873271942;-0.24678954482078552;-0.24923302233219147
01:00:0A:00:00:00:00;1726764818;19/09/24;16:53:38;0.912;-0.089;0.393;0.5913175940513611;-0.24556782841682434;-0.5644394755363464
01:00:0A:00:00:00:00;1726764819;19/09/24;16:53:39;0.928;0.453;0.038;0.7904595732688904;-0.0036651913542300463;0.1466076523065567
01:00:0A:00:00:00:00;1726764820;19/09/24;16:53:40;0.895;0.425;-0.234;1.0580185651779175;-0.0659734457731247;-0.15515977144241333
01:00:0A:00:00:00:00;1726764821;19/09/24;16:53:41;0.977;0.003;-0.251;1.5503759384155273;0.024434609338641167;0.02321287989616394
01:00:0A:00:00:00:00;1726764822;19/09/24;16:53:42;0.809;0.553;0.04;0.9419541358947754;0.1918116807937622;0.05864306166768074
01:00:0A:00:00:00:00;1726764823;19/09/24;16:53:43;0.925;0.185;-0.173;0.13927726447582245;0.7696901559829712;1.0494663715362549
01:00:0A:00:00:00:00;1726764824;19/09/24;16:53:44;0.94;0.068;0.398;0.2272418737411499;-0.21991148591041565;-0.14049901068210602
01:00:0A:00:00:00:00;1726764825;19/09/24;16:53:45;0.946;0.399;0.021;0.16859880089759827;-0.18325956165790558;0.5119050741195679
01:00:0A:00:00:00:00;1726764826;19/09/24;16:53:46;0.961;0.149;-0.425;0.03176499158143997;-0.5668829083442688;-0.10751228034496307
01:00:0A:00:00:00:00;1726764827;19/09/24;16:53:47;0.952;0.399;0.243;-0.12950342893600464;1.0042624473571777;-0.10751228034496307
01:00:0A:00:00:00:00;1726764828;19/09/24;16:53:48;0.494;0.319;0.773;-0.2773328125476837;-0.29565879702568054;0.24678954482078552
01:00:0A:00:00:00:00;1726764829;19/09/24;16:53:49;0.798;0.095;0.438;-0.24678954482078552;0.7098253965377808;0.4251621961593628
01:00:0A:00:00:00:00;1726764830;19/09/24;16:53:50;0.683;-0.115;0.761;0.08185594528913498;-0.05375614017248154;0.2577851116657257
01:00:0A:00:00:00:00;1726764831;19/09/24;16:53:51;0.891;-0.045;0.459;1.2327260971069336;-0.8185594081878662;0.22357667982578278
01:00:0A:00:00:00:00;1726764832;19/09/24;16:53:52;0.948;-0.382;0.198;1.9022343158721924;1.2082914113998413;0.9053022265434265
01:00:0A:00:00:00:00;1726764833;19/09/24;16:53:53;0.582;0.788;0.307;1.577254056930542;-0.39584067463874817;-0.17348572611808777
01:00:0A:00:00:00:00;1726764834;19/09/24;16:53:54;0.906;0.081;-0.568;0.3384193480014801;0.080634206533432;0.62796950340271
01:00:0A:00:00:00:00;1726764835;19/09/24;16:53:55;0.95;-0.278;0.319;0.08918632566928864;0.8124507665634155;0.4495967924594879
01:00:0A:00:00:00:00;1726764836;19/09/24;16:53:56;0.353;0.3;0.915;0.645073652267456;-0.1576032191514969;-0.0036651913542300463
01:00:0A:00:00:00:00;1726764837;19/09/24;16:53:57;0.178;-0.043;0.995;-0.1368338167667389;-0.9175195693969727;0.4141666293144226
01:00:0A:00:00:00:00;1726764838;19/09/24;16:53:58;0.612;0.533;0.801;1.6713272333145142;0.21502456068992615;-0.03298672288656235
01:00:0A:00:00:00:00;1726764839;19/09/24;16:53:59;0.906;-0.578;-0.149;0.970054030418396;0.15271630883216858;0.6719517707824707
01:00:0A:00:00:00:00;1726764840;19/09/24;16:54:00;0.61;-0.447;0.729;1.4391984939575195;-0.31642818450927734;-0.10262535512447357
01:00:0A:00:00:00:00;1726764841;19/09/24;16:54:01;0.385;1.075;-0.2;0.08674286305904388;-1.6688838005065918;-0.8881980776786804
01:00:0A:00:00:00:00;1726764842;19/09/24;16:54:02;0.889;0.496;-0.214;-0.5497786998748779;-0.0012217304902151227;1.164309024810791
01:00:0A:00:00:00:00;1726764843;19/09/24;16:54:03;0.925;-0.211;-0.354;-0.39217546582221985;-0.7843509316444397;0.1966986060142517
01:00:0A:00:00:00:00;1726764844;19/09/24;16:54:04;0.98;0.1;0.116;-0.38728854060173035;0.8613200187683105;0.0073303827084600925
01:00:0A:00:00:00:00;1726764845;19/09/24;16:54:05;0.832;-0.29;0.478;0.021991148591041565;-0.18325956165790558;0.05497787147760391
01:00:0A:00:00:00:00;1726764846;19/09/24;16:54:06;0.839;-0.089;0.61;1.0054842233657837;0.11728612333536148;-0.10384709388017654
01:00:0A:00:00:00:00;1726764847;19/09/24;16:54:07;0.695;0.706;0.225;0.6927211880683899;0.09040805697441101;-0.4398229718208313
01:00:0A:00:00:00:00;1726764848;19/09/24;16:54:08;0.932;0.327;-0.316;1.538158655166626;0.17348572611808777;0.47769662737846375
01:00:0A:00:00:00:00;1726764849;19/09/24;16:54:09;0.961;-0.136;0.309;1.3646730184555054;0.3640756905078888;0.24434609711170197
01:00:0A:00:00:00:00;1726764850;19/09/24;16:54:10;0.993;0.13;-0.022;0.9676105380058289;-0.5070181488990784;0.7440338730812073
01:00:0A:00:00:00:00;1726764851;19/09/24;16:54:11;0.99;-0.298;-0.054;0.8515461683273315;0.17470745742321014;-0.4300491213798523
01:00:0A:00:00:00:00;1726764852;19/09/24;16:54:12;1.003;0.292;0.203;0.4948008358478546;0.12095131725072861;0.34574973583221436
01:00:0A:00:00:00:00;1726764853;19/09/24;16:54:13;0.505;-0.673;-0.029;-2.0622808933258057;-0.5778785347938538;-1.920560359954834
01:00:0A:00:00:00:00;1726764854;19/09/24;16:54:14;0.886;-0.263;0.412;-1.0238101482391357;1.7373007535934448;0.607200026512146
01:00:0A:00:00:00:00;1726764855;19/09/24;16:54:15;0.594;-0.681;0.621;0.11972958594560623;-0.21624629199504852;-0.39095374941825867
01:00:0A:00:00:00:00;1726764856;19/09/24;16:54:16;0.948;0.029;0.059;0.4398229718208313;-0.5412266254425049;-0.39217546582221985
01:00:0A:00:00:00:00;1726764857;19/09/24;16:54:17;1.092;0.094;0.057;0.21624629199504852;0.4300491213798523;0.07452555745840073
01:00:0A:00:00:00:00;1726764858;19/09/24;16:54:18;1.01;0.126;0.1;0.06841690838336945;0.12217304855585098;0.21991148591041565
01:00:0A:00:00:00:00;1726764859;19/09/24;16:54:19;0.981;0.196;-0.071;0.7220427393913269;-0.0073303827084600925;-0.39706242084503174
01:00:0A:00:00:00:00;1726764860;19/09/24;16:54:20;0.92;0.171;0.263;0.7122688889503479;0.9248499870300293;-0.45692718029022217
01:00:0A:00:00:00:00;1726764861;19/09/24;16:54:21;0.954;0.242;0.156;0.1014036238193512;-0.08674286305904388;0.3494149148464203
01:00:0A:00:00:00:00;1726764862;19/09/24;16:54:22;0.882;-0.268;0.185;0.030543262138962746;0.1771509200334549;0.8038986325263977
01:00:0A:00:00:00:00;1726764863;19/09/24;16:54:23;0.911;0.062;0.203;0.6218608021736145;-0.35552355647087097;-1.1557570695877075
01:00:0A:00:00:00:00;1726764864;19/09/24;16:54:24;0.964;-0.127;0.09;-0.06352998316287994;0.19425514340400696;0.8808676600456238
01:00:0A:00:00:00:00;1726764865;19/09/24;16:54:25;0.927;-0.028;-0.305;0.059864792972803116;0.7819074988365173;0.08185594528913498
01:00:0A:00:00:00:00;1726764866;19/09/24;16:54:26;1.063;-0.204;-0.133;0.38728854060173035;0.656069278717041;-0.030543262138962746
01:00:0A:00:00:00:00;1726764867;19/09/24;16:54:27;0.687;0.349;0.735;0.36163222789764404;0.07208210229873657;-0.6181955933570862
01:00:0A:00:00:00:00;1726764868;19/09/24;16:54:28;0.757;0.55;-0.247;0.6585127115249634;-0.2638937830924988;0.8869763016700745
01:00:0A:00:00:00:00;1726764869;19/09/24;16:54:29;0.656;0.606;-0.473;0.9969320893287659;0.7293730974197388;1.6273449659347534
01:00:0A:00:00:00:00;1726764870;19/09/24;16:54:30;0.904;-0.394;0.325;0.8258897662162781;0.8136724829673767;-0.4300491213798523
01:00:0A:00:00:00:00;1726764871;19/09/24;16:54:31;0.794;0.211;0.617;0.5485569834709167;-0.3274237811565399;0.47769662737846375
01:00:0A:00:00:00:00;1726764872;19/09/24;16:54:32;1.028;-0.037;0.157;0.5693264007568359;-0.6340781450271606;-0.02321287989616394
01:00:0A:00:00:00:00;1726764873;19/09/24;16:54:33;1.105;-0.16;-0.256;0.2687807083129883;0.8503243923187256;1.2547171115875244
01:00:0A:00:00:00:00;1726764874;19/09/24;16:54:34;0.475;-0.354;0.649;0.4447098970413208;0.059864792972803116;-0.01710422709584236
01:00:0A:00:00:00:00;1726764875;19/09/24;16:54:35;0.851;-0.105;0.758;0.3152064383029938;-0.10873401165008545;-0.4642575681209564
01:00:0A:00:00:00:00;1726764876;19/09/24;16:54:36;0.837;0.293;-0.557;-0.04886921867728233;-0.6389650106430054;0.013439035043120384
01:00:0A:00:00:00:00;1726764877;19/09/24;16:54:37;0.984;0.036;0.192;-0.445931613445282;1.3353514671325684;0.6377432942390442
01:00:0A:00:00:00:00;1726764878;19/09/24;16:54:38;0.913;-0.211;0.432;-0.006108652334660292;-0.07696902006864548;-0.04886921867728233
01:00:0A:00:00:00:00;1726764879;19/09/24;16:54:39;0.96;-0.024;0.215;0.4544837474822998;0.445931613445282;0.11239919811487198
01:00:0A:00:00:00:00;1726764880;19/09/24;16:54:40;0.942;0.018;0.41;0.50335294008255;-0.38728854060173035;0.10873401165008545
01:00:0A:00:00:00:00;1726764881;19/09/24;16:54:41;0.935;0.03;0.424;1.0128145217895508;0.1820378452539444;0.21868975460529327
01:00:0A:00:00:00:00;1726764882;19/09/24;16:54:42;0.953;0.174;0.275;0.7941248416900635;-0.12339477241039276;-0.08185594528913498
01:00:0A:00:00:00:00;1726764883;19/09/24;16:54:43;0.66;0.281;0.544;-0.626747727394104;2.348165988922119;-1.5992451906204224
01:00:0A:00:00:00:00;1726764884;19/09/24;16:54:44;0.811;0.563;0.22;0.21991148591041565;-0.7965682148933411;0.8283332586288452
01:00:0A:00:00:00:00;1726764885;19/09/24;16:54:45;0.924;-0.234;-0.081;-0.028099799528717995;-0.6120869517326355;0.6426302194595337
01:00:0A:00:00:00:00;1726764886;19/09/24;16:54:46;0.964;0.088;-0.215;0.010995574295520782;0.24678954482078552;-0.4740314185619354
01:00:0A:00:00:00:00;1726764887;19/09/24;16:54:47;0.687;-0.839;0.036;3.462383985519409;1.323134183883667;-0.588874101638794
01:00:0A:00:00:00:00;1726764888;19/09/24;16:54:48;0.782;0.357;-0.457;2.090380907058716;-0.6658430695533752;0.7367035150527954
01:00:0A:00:00:00:00;1726764889;19/09/24;16:54:49;0.199;-0.289;0.935;1.8606956005096436;0.9847148060798645;-1.623679757118225
01:00:0A:00:00:00:00;1726764890;19/09/24;16:54:50;1.035;0.119;-0.104;0.23335053026676178;-1.3646730184555054;0.6988298296928406
01:00:0A:00:00:00:00;1726764891;19/09/24;16:54:51;0.977;-0.348;0.307;0.2577851116657257;0.8869763016700745;-0.0708603635430336
01:00:0A:00:00:00:00;1726764892;19/09/24;16:54:52;1.016;0.285;-0.087;0.06108652427792549;0.2919935882091522;-0.20525071024894714
01:00:0A:00:00:00:00;1726764893;19/09/24;16:54:53;0.981;0.124;0.453;-0.05375614017248154;-0.03176499158143997;0.436157763004303
01:00:0A:00:00:00:00;1726764894;19/09/24;16:54:54;0.37;0.304;0.908;1.2278391122817993;-0.3543018400669098;-0.019547687843441963
01:00:0A:00:00:00:00;1726764895;19/09/24;16:54:55;1.076;0.092;-0.122;0.5021312236785889;-0.26145032048225403;0.739146888256073
01:00:0A:00:00:00:00;1726764896;19/09/24;16:54:56;0.94;-0.108;0.25;0.5119050741195679;0.6878342032432556;0.11484266817569733
01:00:0A:00:00:00:00;1726764897;19/09/24;16:54:57;0.78;0.125;0.484;1.0238101482391357;0.3946189284324646;0.38728854060173035
01:00:0A:00:00:00:00;1726764898;19/09/24;16:54:58;0.792;0.663;0.054;1.5015066862106323;0.09285151958465576;0.30543261766433716
01:00:0A:00:00:00:00;1726764899;19/09/24;16:54:59;0.918;0.495;-0.286;1.1129964590072632;0.22357667982578278;-0.375071257352829
01:00:0A:00:00:00:00;1726764900;19/09/24;16:55:00;0.817;0.632;0.268;0.47280970215797424;0.5656611919403076;-0.5143485069274902
01:00:0A:00:00:00:00;1726764901;19/09/24;16:55:01;0.983;0.33;0.193;-0.015882495790719986;-0.38606682419776917;0.8295549750328064
01:00:0A:00:00:00:00;1726764902;19/09/24;16:55:02;0.98;-0.379;0.012;0.12095131725072861;0.1576032191514969;-0.2272418737411499
01:00:0A:00:00:00:00;1726764903;19/09/24;16:55:03;0.848;0.484;0.213;-0.028099799528717995;0.14538592100143433;-0.4996877610683441
01:00:0A:00:00:00:00;1726764904;19/09/24;16:55:04;0.985;0.019;0.188;-0.3787364363670349;-0.1771509200334549;0.7770205736160278
01:00:0A:00:00:00:00;1726764905;19/09/24;16:55:05;0.73;-0.516;0.285;-0.3274237811565399;1.7201964855194092;1.3023645877838135
01:00:0A:00:00:00:00;1726764906;19/09/24;16:55:06;0.619;0.596;-0.265;3.5332446098327637;-1.1032226085662842;1.9046778678894043
01:00:0A:00:00:00:00;1726764907;19/09/24;16:55:07;0.992;0.165;0.238;2.4446825981140137;-0.12217304855585098;-0.5119050741195679
01:00:0A:00:00:00:00;1726764908;19/09/24;16:55:08;0.693;0.095;-0.658;1.6969836950302124;0.7012733221054077;-0.9993755221366882
01:00:0A:00:00:00:00;1726764909;19/09/24;16:55:09;0.969;0.03;-0.23;0.5534439086914062;1.0054842233657837;-0.21135938167572021
01:00:0A:00:00:00:00;1726764910;19/09/24;16:55:10;0.894;0.078;0.415;0.445931613445282;0.21135938167572021;0.11239919811487198
01:00:0A:00:00:00:00;1726764911;19/09/24;16:55:11;0.972;-0.026;-0.079;0.4312708377838135;-0.8808676600456238;0.3298672139644623
01:00:0A:00:00:00:00;1726764912;19/09/24;16:55:12;0.945;-0.121;-0.156;0.7562511563301086;-0.3701843321323395;0.3701843321323395
01:00:0A:00:00:00:00;1726764913;19/09/24;16:55:13;0.983;-0.213;0.071;1.3084733486175537;0.19425514340400696;-0.19425514340400696
01:00:0A:00:00:00:00;1726764914;19/09/24;16:55:14;0.921;0.403;0.129;1.7910568714141846;-0.5644394755363464;0.3481931686401367
01:00:0A:00:00:00:00;1726764915;19/09/24;16:55:15;0.954;-0.412;0.0;1.4306464195251465;0.4495967924594879;0.7220427393913269
01:00:0A:00:00:00:00;1726764916;19/09/24;16:55:16;0.649;0.913;-0.175;0.8845328092575073;-1.792278528213501;-0.6914994716644287
01:00:0A:00:00:00:00;1726764917;19/09/24;16:55:17;0.652;-0.572;-0.441;1.2791517972946167;0.6157521605491638;-0.11728612333536148
01:00:0A:00:00:00:00;1726764918;19/09/24;16:55:18;0.966;-0.212;-0.315;0.3323107063770294;0.3787364363670349;-0.5534439086914062
01:00:0A:00:00:00:00;1726764919;19/09/24;16:55:19;0.908;0.262;0.325;0.13805554807186127;0.5302309989929199;-0.080634206533432
01:00:0A:00:00:00:00;1726764920;19/09/24;16:55:20;0.698;0.446;-0.353;1.5760324001312256;0.7562511563301086;-1.9608774185180664
01:00:0A:00:00:00:00;1726764921;19/09/24;16:55:21;0.477;-0.749;0.526;1.8154914379119873;2.0256290435791016;-1.528384804725647
01:00:0A:00:00:00:00;1726764922;19/09/24;16:55:22;0.89;0.312;-0.392;0.6145303845405579;-0.5290092825889587;1.4428637027740479
01:00:0A:00:00:00:00;1726764923;19/09/24;16:55:23;0.841;-0.457;-0.032;0.3335324227809906;0.9285151362419128;-0.9627236127853394
01:00:0A:00:00:00:00;1726764924;19/09/24;16:55:24;0.847;0.358;0.046;0.01710422709584236;-0.96883225440979;-0.533896267414093
01:00:0A:00:00:00:00;1726764925;19/09/24;16:55:25;0.939;0.104;-0.027;-0.6414085030555725;0.34086278080940247;1.2095131874084473
01:00:0A:00:00:00:00;1726764926;19/09/24;16:55:26;0.897;-0.143;0.23;-0.3885102868080139;0.4715879559516907;-0.5448917746543884
01:00:0A:00:00:00:00;1726764927;19/09/24;16:55:27;0.901;0.078;0.28;-0.3029891550540924;-0.5082398653030396;-0.2076941877603531
01:00:0A:00:00:00:00;1726764928;19/09/24;16:55:28;0.854;0.034;0.495;0.09040805697441101;-0.891863226890564;0.07208210229873657
01:00:0A:00:00:00:00;1726764929;19/09/24;16:55:29;0.959;-0.036;0.432;0.2223549485206604;0.2028072476387024;0.17470745742321014
01:00:0A:00:00:00:00;1726764930;19/09/24;16:55:30;0.63;-0.873;-0.144;-0.3836233615875244;-0.17592918872833252;1.8154914379119873
01:00:0A:00:00:00:00;1726764931;19/09/24;16:55:31;0.633;-0.658;0.352;0.7696901559829712;-1.3988813161849976;0.12095131725072861
01:00:0A:00:00:00:00;1726764932;19/09/24;16:55:32;0.704;-0.523;0.441;0.9944885969161987;-0.6414085030555725;0.05619959905743599
01:00:0A:00:00:00:00;1726764933;19/09/24;16:55:33;0.836;-0.676;-0.302;1.3781119585037231;-1.4770721197128296;-0.3836233615875244
01:00:0A:00:00:00:00;1726764934;19/09/24;16:55:34;0.963;-0.53;0.109;1.490511178970337;0.08796459436416626;-0.5290092825889587
01:00:0A:00:00:00:00;1726764935;19/09/24;16:55:35;0.968;0.337;-0.023;0.9187413454055786;0.40194931626319885;0.607200026512146
01:00:0A:00:00:00:00;1726764936;19/09/24;16:55:36;1.006;-0.013;0.413;0.7232644557952881;0.18570303916931152;0.23457224667072296
01:00:0A:00:00:00:00;1726764937;19/09/24;16:55:37;0.471;-0.682;0.473;1.1215485334396362;-1.1032226085662842;-0.9993755221366882
01:00:0A:00:00:00:00;1726764938;19/09/24;16:55:38;0.912;-0.081;0.658;0.8014551997184753;-0.8784241676330566;-0.19914205372333527
01:00:0A:00:00:00:00;1726764939;19/09/24;16:55:39;0.908;0.269;0.245;0.16371189057826996;-1.0702358484268188;0.38117989897727966
01:00:0A:00:00:00:00;1726764940;19/09/24;16:55:40;0.934;-0.004;0.075;0.028099799528717995;0.919963002204895;0.06719517707824707
01:00:0A:00:00:00:00;1726764941;19/09/24;16:55:41;0.909;0.037;0.316;0.11972958594560623;-0.7635815143585205;-0.7195992469787598
01:00:0A:00:00:00:00;1726764942;19/09/24;16:55:42;0.943;0.279;0.056;-0.3787364363670349;-0.04886921867728233;0.685390830039978
01:00:0A:00:00:00:00;1726764943;19/09/24;16:55:43;0.891;-0.166;0.105;0.06475171446800232;0.4312708377838135;0.7990117073059082
01:00:0A:00:00:00:00;1726764944;19/09/24;16:55:44;0.771;0.337;0.525;1.263269305229187;-0.6829473376274109;0.3738495111465454
01:00:0A:00:00:00:00;1726764945;19/09/24;16:55:45;0.96;0.143;0.216;0.626747727394104;0.2981022298336029;0.9321803450584412
01:00:0A:00:00:00:00;1726764946;19/09/24;16:55:46;0.831;-0.011;0.557;0.7635815143585205;-0.10506881773471832;-0.3286454975605011
01:00:0A:00:00:00:00;1726764947;19/09/24;16:55:47;0.921;0.25;0.217;0.2773328125476837;-0.9859364628791809;0.4948008358478546
01:00:0A:00:00:00:00;1726764948;19/09/24;16:55:48;0.979;-0.207;-0.045;0.09040805697441101;0.5497786998748779;0.010995574295520782
01:00:0A:00:00:00:00;1726764949;19/09/24;16:55:49;0.94;-0.243;0.436;0.1820378452539444;-0.01710422709584236;0.45204028487205505
01:00:0A:00:00:00:00;1726764950;19/09/24;16:55:50;0.809;-0.432;-0.041;-2.2492058277130127;0.5326744914054871;2.0427334308624268
01:00:0A:00:00:00:00;1726764951;19/09/24;16:55:51;0.528;-0.339;-0.663;-0.9456194043159485;-1.5919147729873657;-1.1044443845748901
01:00:0A:00:00:00:00;1726764952;19/09/24;16:55:52;0.685;0.492;-0.611;0.7134906053543091;-0.14782939851284027;-0.9126326441764832
01:00:0A:00:00:00:00;1726764953;19/09/24;16:55:53;0.836;0.682;0.075;1.1301007270812988;1.5332716703414917;0.2834414541721344
01:00:0A:00:00:00:00;1726764954;19/09/24;16:55:54;0.911;0.504;-0.205;0.7464773058891296;0.1270599663257599;0.6768386960029602
01:00:0A:00:00:00:00;1726764955;19/09/24;16:55:55;1.04;-0.352;0.06;0.6059783101081848;0.3543018400669098;-0.2626720666885376
01:00:0A:00:00:00:00;1726764956;19/09/24;16:55:56;0.892;0.573;-0.067;0.18325956165790558;-0.004886921960860491;0.3579670488834381
01:00:0A:00:00:00:00;1726764957;19/09/24;16:55:57;0.988;0.074;-0.013;-0.004886921960860491;-0.4251621961593628;-0.2993239760398865
01:00:0A:00:00:00:00;1726764958;19/09/24;16:55:58;0.957;0.195;0.036;-0.3274237811565399;1.007927656173706;0.4703662395477295
01:00:0A:00:00:00:00;1726764959;19/09/24;16:55:59;0.905;0.469;0.282;-0.009773843921720982;-0.059864792972803116;-0.3152064383029938
01:00:0A:00:00:00:00;1726764960;19/09/24;16:56:00;1.014;0.042;0.02;0.19303341209888458;-0.4508185386657715;0.1661553531885147
01:00:0A:00:00:00:00;1726764961;19/09/24;16:56:01;1.014;-0.106;0.017;0.17837265133857727;0.6585127115249634;0.17592918872833252
01:00:0A:00:00:00:00;1726764962;19/09/24;16:56:02;0.959;-0.36;0.181;0.26511549949645996;0.18936821818351746;-0.20402899384498596
01:00:0A:00:00:00:00;1726764963;19/09/24;16:56:03;0.208;0.417;0.978;-1.1899654865264893;-0.9920451641082764;-0.875980794429779
01:00:0A:00:00:00:00;1726764964;19/09/24;16:56:04;0.709;-0.053;0.353;-0.9260717034339905;0.44226640462875366;0.2883284091949463
01:00:0A:00:00:00:00;1726764965;19/09/24;16:56:05;0.406;-0.061;0.748;0.7623597979545593;0.9566149115562439;-2.4129176139831543
01:00:0A:00:00:00:00;1726764966;19/09/24;16:56:06;0.683;0.757;0.143;0.24678954482078552;-0.9358454942703247;0.6621779203414917
01:00:0A:00:00:00:00;1726764967;19/09/24;16:56:07;0.976;-0.258;0.081;-0.38606682419776917;0.5949827432632446;0.8405505418777466
01:00:0A:00:00:00:00;1726764968;19/09/24;16:56:08;0.823;-0.661;0.341;-0.07696902006864548;-0.24434609711170197;0.2785545289516449
01:00:0A:00:00:00:00;1726764969;19/09/24;16:56:09;0.488;-0.78;-0.488;2.2101104259490967;0.8344419002532959;1.695761799812317
01:00:0A:00:00:00:00;1726764970;19/09/24;16:56:10;0.353;1.112;-0.005;2.118480682373047;-0.14416420459747314;-0.7073819637298584
01:00:0A:00:00:00:00;1726764971;19/09/24;16:56:11;0.885;-0.257;-0.303;0.49357908964157104;0.37140607833862305;1.1288789510726929
01:00:0A:00:00:00:00;1726764972;19/09/24;16:56:12;0.99;0.157;0.21;0.15515977144241333;-0.19058994948863983;-0.5436700582504272
01:00:0A:00:00:00:00;1726764973;19/09/24;16:56:13;0.37;-1.097;-0.236;-0.28588491678237915;-0.23457224667072296;-0.030543262138962746
01:00:0A:00:00:00:00;1726764974;19/09/24;16:56:14;0.691;-0.681;-0.459;0.33964109420776367;0.5791001915931702;-0.9004153609275818
01:00:0A:00:00:00:00;1726764975;19/09/24;16:56:15;0.914;-0.306;0.31;0.739146888256073;0.7367035150527954;-0.587652325630188
01:00:0A:00:00:00:00;1726764976;19/09/24;16:56:16;0.81;0.585;0.168;0.7648032903671265;-1.6102406978607178;-1.7776178121566772
01:00:0A:00:00:00:00;1726764977;19/09/24;16:56:17;0.633;-0.307;-0.675;0.6817255616188049;0.4862487316131592;0.10751228034496307
01:00:0A:00:00:00:00;1726764978;19/09/24;16:56:18;0.923;-0.105;-0.248;-0.0659734457731247;0.9346237778663635;-0.24434609711170197
01:00:0A:00:00:00:00;1726764979;19/09/24;16:56:19;0.93;-0.092;0.304;0.012217304669320583;0.1563815027475357;0.11850785464048386
01:00:0A:00:00:00:00;1726764980;19/09/24;16:56:20;0.94;0.114;0.145;0.6939429044723511;-0.5277875661849976;-0.48258352279663086
01:00:0A:00:00:00:00;1726764981;19/09/24;16:56:21;0.932;-0.049;0.196;0.3433062732219696;0.6511822938919067;0.4508185386657715
01:00:0A:00:00:00:00;1726764982;19/09/24;16:56:22;0.887;0.04;0.307;0.50335294008255;-0.6243042349815369;-0.21502456068992615
01:00:0A:00:00:00:00;1726764983;19/09/24;16:56:23;0.924;-0.258;-0.208;0.35063666105270386;-0.16371189057826996;0.62796950340271
01:00:0A:00:00:00:00;1726764984;19/09/24;16:56:24;0.958;-0.177;0.162;0.5045746564865112;0.5424482822418213;0.3127630054950714
01:00:0A:00:00:00:00;1726764985;19/09/24;16:56:25;0.94;0.141;0.28;0.62796950340271;-0.9517280459403992;-0.2981022298336029
01:00:0A:00:00:00:00;1726764986;19/09/24;16:56:26;0.956;-0.03;-0.245;0.18936821818351746;0.02932153083384037;0.8332201242446899
01:00:0A:00:00:00:00;1726764987;19/09/24;16:56:27;0.757;0.393;-0.15;3.8508944511413574;-0.7599163055419922;1.7397441864013672
01:00:0A:00:00:00:00;1726764988;19/09/24;16:56:28;0.738;0.212;0.676;2.7061331272125244;0.46670106053352356;-0.17592918872833252
01:00:0A:00:00:00:00;1726764989;19/09/24;16:56:29;0.812;0.431;-0.494;1.5210543870925903;-0.02932153083384037;0.2223549485206604
01:00:0A:00:00:00:00;1726764990;19/09/24;16:56:30;0.92;-0.344;-0.261;0.39828410744667053;0.43737950921058655;-0.44348815083503723
01:00:0A:00:00:00:00;1726764991;19/09/24;16:56:31;1.031;0.077;-0.251;-0.010995574295520782;-0.3286454975605011;-0.3738495111465454
01:00:0A:00:00:00:00;1726764992;19/09/24;16:56:32;1.024;-0.06;-0.136;-0.10506881773471832;0.8185594081878662;0.17959438264369965
01:00:0A:00:00:00:00;1726764993;19/09/24;16:56:33;0.891;-0.375;0.512;0.09773843735456467;0.013439035043120384;-0.27611109614372253
01:00:0A:00:00:00:00;1726764994;19/09/24;16:56:34;0.861;0.115;0.657;0.14905111491680145;-0.48747044801712036;-0.3274237811565399
01:00:0A:00:00:00:00;1726764995;19/09/24;16:56:35;0.608;0.338;-0.627;0.7122688889503479;-2.2687535285949707;0.07452555745840073
01:00:0A:00:00:00:00;1726764996;19/09/24;16:56:36;0.868;0.037;-0.635;0.36163222789764404;0.5192354917526245;-1.3158037662506104
01:00:0A:00:00:00:00;1726764997;19/09/24;16:56:37;0.953;0.185;0.447;0.03420845419168472;0.09162978082895279;0.6108652353286743
01:00:0A:00:00:00:00;1726764998;19/09/24;16:56:38;1.005;0.162;-0.41;0.96883225440979;-0.38240164518356323;0.05009094998240471
01:00:0A:00:00:00:00;1726764999;19/09/24;16:56:39;1.035;-0.269;0.205;0.5265658497810364;0.15271630883216858;-0.17592918872833252
01:00:0A:00:00:00:00;1726765000;19/09/24;16:56:40;1.04;0.189;-0.143;0.21135938167572021;-0.375071257352829;-0.009773843921720982
01:00:0A:00:00:00:00;1726765001;19/09/24;16:56:41;0.992;-0.304;0.081;-0.0073303827084600925;0.18936821818351746;0.2981022298336029
01:00:0A:00:00:00:00;1726765002;19/09/24;16:56:42;0.993;0.17;-0.072;0.015882495790719986;-0.5094615817070007;-0.07452555745840073
01:00:0A:00:00:00:00;1726765003;19/09/24;16:56:43;0.954;-0.01;-0.189;-0.2370157092809677;0.6133087277412415;0.313984751701355
01:00:0A:00:00:00:00;1726765004;19/09/24;16:56:44;0.95;-0.223;0.363;0.5803219676017761;0.35185837745666504;0.17837265133857727
01:00:0A:00:00:00:00;1726765005;19/09/24;16:56:45;0.952;0.174;0.388;0.6927211880683899;0.0;-0.07452555745840073
01:00:0A:00:00:00:00;1726765006;19/09/24;16:56:46;0.322;-0.935;-0.468;2.1685714721679688;0.6059783101081848;-0.8307767510414124
01:00:0A:00:00:00:00;1726765007;19/09/24;16:56:47;0.763;-0.074;0.461;1.7495180368423462;-1.8655823469161987;-0.8307767510414124
01:00:0A:00:00:00:00;1726765008;19/09/24;16:56:48;0.862;-0.277;-0.173;1.2021827697753906;0.08307767659425735;0.33108896017074585
01:00:0A:00:00:00:00;1726765009;19/09/24;16:56:49;0.905;0.244;0.215;1.193630576133728;-0.4789183437824249;-1.3720033168792725
01:00:0A:00:00:00:00;1726765010;19/09/24;16:56:50;0.933;0.237;-0.224;0.5729915499687195;0.35552355647087097;0.7611380815505981
01:00:0A:00:00:00:00;1726765011;19/09/24;16:56:51;0.88;-0.05;0.523;0.6426302194595337;0.4960225820541382;-0.4092797040939331
01:00:0A:00:00:00:00;1726765012;19/09/24;16:56:52;0.883;0.498;0.221;0.39584067463874817;-0.6829473376274109;-0.0012217304902151227
01:00:0A:00:00:00:00;1726765013;19/09/24;16:56:53;0.853;0.095;-0.531;-0.051312677562236786;-0.27977627515792847;0.3628539443016052
01:00:0A:00:00:00:00;1726765014;19/09/24;16:56:54;0.867;0.204;-0.395;-0.22113320231437683;0.015882495790719986;0.18448130786418915
01:00:0A:00:00:00:00;1726765015;19/09/24;16:56:55;0.859;0.144;-0.468;-0.04398229718208313;0.21868975460529327;-0.03787364438176155
01:00:0A:00:00:00:00;1726765016;19/09/24;16:56:56;0.888;0.097;-0.478;0.39706242084503174;0.05253440886735916;-0.27122414112091064
01:00:0A:00:00:00:00;1726765017;19/09/24;16:56:57;0.904;-0.209;-0.418;1.5442672967910767;-0.16004669666290283;-0.3579670488834381
01:00:0A:00:00:00:00;1726765018;19/09/24;16:56:58;0.765;-0.602;0.349;2.2773056030273438;-0.23335053026676178;0.7183775305747986
01:00:0A:00:00:00:00;1726765019;19/09/24;16:56:59;0.785;0.252;0.604;1.4685200452804565;-0.7867944240570068;0.8026769161224365
01:00:0A:00:00:00:00;1726765020;19/09/24;16:57:00;0.946;-0.089;0.278;1.0115928649902344;-0.22968533635139465;0.5229006409645081
01:00:0A:00:00:00:00;1726765021;19/09/24;16:57:01;0.992;0.029;-0.001;1.1386528015136719;-0.3640756905078888;-0.4740314185619354
01:00:0A:00:00:00:00;1726765022;19/09/24;16:57:02;1.001;0.175;0.041;0.9150761365890503;0.2895500957965851;-0.17348572611808777
01:00:0A:00:00:00:00;1726765023;19/09/24;16:57:03;0.907;0.276;0.173;0.6255260109901428;0.2565633952617645;0.036651913076639175
01:00:0A:00:00:00:00;1726765024;19/09/24;16:57:04;0.987;0.16;-0.284;0.38117989897727966;-0.46181410551071167;0.3640756905078888
01:00:0A:00:00:00:00;1726765025;19/09/24;16:57:05;0.369;0.918;-0.037;-0.2736676335334778;0.08918632566928864;-0.14294245839118958
01:00:0A:00:00:00:00;1726765026;19/09/24;16:57:06;0.978;0.187;0.222;-0.3579670488834381;0.294437050819397;0.7721336483955383
01:00:0A:00:00:00:00;1726765027;19/09/24;16:57:07;0.742;-0.189;0.679;0.45326200127601624;0.20525071024894714;0.2736676335334778
01:00:0A:00:00:00:00;1726765028;19/09/24;16:57:08;0.432;-0.234;0.992;2.7256805896759033;0.7159340977668762;2.122145652770996
01:00:0A:00:00:00:00;1726765029;19/09/24;16:57:09;0.772;0.604;0.186;1.557706356048584;-0.21991148591041565;1.253495454788208
01:00:0A:00:00:00:00;1726765030;19/09/24;16:57:10;0.981;-0.189;0.207;1.0824532508850098;0.5864306092262268;0.5192354917526245
01:00:0A:00:00:00:00;1726765031;19/09/24;16:57:11;0.875;0.154;0.482;1.0286970138549805;0.01710422709584236;0.06719517707824707
01:00:0A:00:00:00:00;1726765032;19/09/24;16:57:12;0.951;0.067;0.248;0.7244861721992493;-0.38606682419776917;0.19914205372333527
01:00:0A:00:00:00:00;1726765033;19/09/24;16:57:13;0.745;-0.716;-0.489;1.1325441598892212;-1.0983357429504395;2.2992966175079346
01:00:0A:00:00:00:00;1726765034;19/09/24;16:57:14;0.61;-0.573;-0.026;0.5094615817070007;-1.1789698600769043;0.7305948734283447
01:00:0A:00:00:00:00;1726765035;19/09/24;16:57:15;0.73;-0.703;-0.123;0.7012733221054077;-1.1850786209106445;0.42638394236564636
01:00:0A:00:00:00:00;1726765036;19/09/24;16:57:16;0.768;-0.826;0.063;1.9816468954086304;-0.6585127115249634;0.12339477241039276
01:00:0A:00:00:00:00;1726765037;19/09/24;16:57:17;0.653;-0.357;0.771;1.3048081398010254;-0.4056144952774048;0.013439035043120384
01:00:0A:00:00:00:00;1726765038;19/09/24;16:57:18;0.603;0.276;0.814;0.48380526900291443;-0.36163222789764404;0.15271630883216858
01:00:0A:00:00:00:00;1726765039;19/09/24;16:57:19;0.704;0.61;0.406;0.4508185386657715;-0.3152064383029938;0.16004669666290283
01:00:0A:00:00:00:00;1726765040;19/09/24;16:57:20;0.778;0.65;0.046;0.34697145223617554;0.042760565876960754;0.31154125928878784
01:00:0A:00:00:00:00;1726765041;19/09/24;16:57:21;0.874;0.314;-0.297;1.2205088138580322;0.44226640462875366;0.9859364628791809
01:00:0A:00:00:00:00;1726765042;19/09/24;16:57:22;0.882;-0.113;0.56;1.5332716703414917;-0.30054569244384766;-0.7635815143585205
01:00:0A:00:00:00:00;1726765043;19/09/24;16:57:23;0.939;-0.264;-0.175;0.8906415700912476;0.38117989897727966;0.6914994716644287
01:00:0A:00:00:00:00;1726765044;19/09/24;16:57:24;0.124;-0.036;1.244;1.260825753211975;1.7751742601394653;0.7525859475135803
01:00:0A:00:00:00:00;1726765045;19/09/24;16:57:25;1.029;0.472;0.441;0.27000245451927185;-0.7660250067710876;1.1679743528366089
01:00:0A:00:00:00:00;1726765046;19/09/24;16:57:26;0.907;0.294;0.302;-0.006108652334660292;-1.2192870378494263;0.5473352670669556
01:00:0A:00:00:00:00;1726765047;19/09/24;16:57:27;0.536;-0.369;-0.474;1.2913691997528076;-1.8924604654312134;2.6731462478637695
01:00:0A:00:00:00:00;1726765048;19/09/24;16:57:28;0.374;-0.335;0.917;1.1020008325576782;1.8631389141082764;-0.27611109614372253
01:00:0A:00:00:00:00;1726765049;19/09/24;16:57:29;0.586;0.18;0.891;-0.14538592100143433;-0.01710422709584236;0.2528982162475586
01:00:0A:00:00:00:00;1726765050;19/09/24;16:57:30;1.003;-0.116;0.201;0.375071257352829;-0.7281513810157776;-0.5583308339118958
01:00:0A:00:00:00:00;1726765051;19/09/24;16:57:31;1.005;0.076;-0.089;0.28466320037841797;0.4312708377838135;-0.23090705275535583
01:00:0A:00:00:00:00;1726765052;19/09/24;16:57:32;0.928;-0.036;0.308;0.07941248267889023;0.26022857427597046;0.30543261766433716
01:00:0A:00:00:00:00;1726765053;19/09/24;16:57:33;0.99;-0.105;0.14;0.24068090319633484;-0.49357908964157104;-0.042760565876960754
01:00:0A:00:00:00:00;1726765054;19/09/24;16:57:34;0.92;0.132;0.525;0.6194173693656921;0.28466320037841797;-0.10262535512447357
01:00:0A:00:00:00:00;1726765055;19/09/24;16:57:35;1.053;0.135;0.218;1.0409142971038818;-0.23090705275535583;0.036651913076639175
01:00:0A:00:00:00:00;1726765056;19/09/24;16:57:36;0.568;-0.013;0.856;-0.024434609338641167;3.2180380821228027;0.8698720932006836
01:00:0A:00:00:00:00;1726765057;19/09/24;16:57:37;0.987;0.006;0.462;0.42760565876960754;-1.1142181158065796;-0.051312677562236786
01:00:0A:00:00:00:00;1726765058;19/09/24;16:57:38;0.902;0.075;-0.582;0.1869247555732727;0.0708603635430336;-0.09773843735456467
01:00:0A:00:00:00:00;1726765059;19/09/24;16:57:39;1.036;-0.035;0.336;-0.0012217304902151227;0.9896016716957092;0.24190263450145721
01:00:0A:00:00:00:00;1726765060;19/09/24;16:57:40;0.903;-0.276;0.622;0.32620203495025635;0.09651670604944229;0.45204028487205505
01:00:0A:00:00:00:00;1726765061;19/09/24;16:57:41;0.858;0.372;-0.501;0.4691444933414459;-0.4789183437824249;-0.41661006212234497
01:00:0A:00:00:00:00;1726765062;19/09/24;16:57:42;0.949;0.122;0.31;-0.07330382615327835;0.9993755221366882;0.9004153609275818
01:00:0A:00:00:00:00;1726765063;19/09/24;16:57:43;0.878;-0.37;0.339;0.8784241676330566;0.18325956165790558;0.05253440886735916
01:00:0A:00:00:00:00;1726765064;19/09/24;16:57:44;0.708;0.371;0.538;0.9529497623443604;-0.5400049090385437;0.11728612333536148
01:00:0A:00:00:00:00;1726765065;19/09/24;16:57:45;0.678;0.582;0.394;0.012217304669320583;-0.07696902006864548;0.2834414541721344
01:00:0A:00:00:00:00;1726765066;19/09/24;16:57:46;0.683;0.633;0.446;-0.039095375686883926;0.10751228034496307;0.1563815027475357
01:00:0A:00:00:00:00;1726765067;19/09/24;16:57:47;0.714;0.698;0.277;0.36163222789764404;0.04398229718208313;-0.3127630054950714
01:00:0A:00:00:00:00;1726765068;19/09/24;16:57:48;0.842;0.162;0.51;-0.2834414541721344;0.03787364438176155;0.4031710624694824
01:00:0A:00:00:00:00;1726765069;19/09/24;16:57:49;0.749;0.0;0.638;0.14538592100143433;-1.350012183189392;-0.48747044801712036
01:00:0A:00:00:00:00;1726765070;19/09/24;16:57:50;1.053;0.006;-0.084;-0.2895500957965851;0.1722639948129654;0.09773843735456467
01:00:0A:00:00:00:00;1726765071;19/09/24;16:57:51;0.903;-0.024;0.45;-0.06841690838336945;0.1722639948129654;0.07330382615327835
01:00:0A:00:00:00:00;1726765072;19/09/24;16:57:52;0.945;0.103;0.229;0.1771509200334549;-0.7709119319915771;-0.2883284091949463
01:00:0A:00:00:00:00;1726765073;19/09/24;16:57:53;0.962;0.034;0.071;-0.27122414112091064;0.17104226350784302;0.5216788649559021
01:00:0A:00:00:00:00;1726765074;19/09/24;16:57:54;0.727;-0.344;-0.441;1.6811010837554932;-0.18081611394882202;-0.2638937830924988
01:00:0A:00:00:00:00;1726765075;19/09/24;16:57:55;0.915;-0.184;0.325;1.5161675214767456;0.4312708377838135;-1.1435396671295166
01:00:0A:00:00:00:00;1726765076;19/09/24;16:57:56;0.904;0.252;-0.02;0.817337691783905;-0.34208452701568604;0.29688048362731934
01:00:0A:00:00:00:00;1726765077;19/09/24;16:57:57;1.393;-0.291;-0.336;0.2736676335334778;0.6010913848876953;-0.05009094998240471
01:00:0A:00:00:00:00;1726765078;19/09/24;16:57:58;0.549;-0.19;-0.828;0.19058994948863983;1.1716395616531372;-0.12828169763088226
01:00:0A:00:00:00:00;1726765079;19/09/24;16:57:59;0.865;-0.541;0.308;0.3188716471195221;1.0751228332519531;-0.039095375686883926
01:00:0A:00:00:00:00;1726765080;19/09/24;16:58:00;0.946;0.348;0.224;0.23457224667072296;-0.5852089524269104;-0.2785545289516449
01:00:0A:00:00:00:00;1726765081;19/09/24;16:58:01;1.014;0.152;-0.2;-0.08674286305904388;0.38728854060173035;-0.014660765416920185
01:00:0A:00:00:00:00;1726765082;19/09/24;16:58:02;1.056;-0.362;0.29;-0.04764748737215996;0.17959438264369965;-0.28588491678237915
01:00:0A:00:00:00:00;1726765083;19/09/24;16:58:03;0.944;-0.523;-0.195;0.1918116807937622;-0.3591887652873993;0.5546656250953674
01:00:0A:00:00:00:00;1726765084;19/09/24;16:58:04;0.951;-0.39;-0.281;1.026253581047058;-0.38728854060173035;0.21502456068992615
01:00:0A:00:00:00:00;1726765085;19/09/24;16:58:05;0.96;-0.215;0.144;0.891863226890564;0.43737950921058655;0.18936821818351746
01:00:0A:00:00:00:00;1726765086;19/09/24;16:58:06;0.933;0.038;0.361;0.8283332586288452;-0.3298672139644623;0.16859880089759827
01:00:0A:00:00:00:00;1726765087;19/09/24;16:58:07;0.569;-0.283;0.834;0.024434609338641167;0.20891590416431427;-0.10262535512447357
01:00:0A:00:00:00:00;1726765088;19/09/24;16:58:08;0.383;-0.617;0.885;0.12950342893600464;-0.22357667982578278;0.3384193480014801
01:00:0A:00:00:00:00;1726765089;19/09/24;16:58:09;0.505;-0.46;0.66;-0.01710422709584236;-0.20525071024894714;-0.6927211880683899
01:00:0A:00:00:00:00;1726765090;19/09/24;16:58:10;0.643;0.458;0.776;0.8515461683273315;-0.4642575681209564;-0.9712756872177124
01:00:0A:00:00:00:00;1726765091;19/09/24;16:58:11;0.991;0.123;-0.266;-0.04642575979232788;-0.4251621961593628;0.6194173693656921
01:00:0A:00:00:00:00;1726765092;19/09/24;16:58:12;0.775;-0.701;-0.351;1.0629055500030518;-1.0910052061080933;0.7086036801338196
01:00:0A:00:00:00:00;1726765103;19/09/24;16:58:23;0.613;0.73;0.372;0.3347541391849518;-0.6524040699005127;1.0458012819290161
01:00:0A:00:00:00:00;1726765104;19/09/24;16:58:24;0.979;-0.413;-0.033;0.1466076523065567;0.646295428276062;-0.26511549949645996
01:00:0A:00:00:00:00;1726765105;19/09/24;16:58:25;0.278;0.509;0.748;1.7873917818069458;-0.9321803450584412;-0.7721336483955383
01:00:0A:00:00:00:00;1726765106;19/09/24;16:58:26;0.966;0.205;-0.149;0.11484266817569733;-0.2773328125476837;1.528384804725647
01:00:0A:00:00:00:00;1726765107;19/09/24;16:58:27;0.838;-0.45;0.384;0.42638394236564636;0.5852089524269104;-0.19303341209888458
01:00:0A:00:00:00:00;1726765108;19/09/24;16:58:28;0.931;-0.024;0.364;1.359786033630371;-0.48258352279663086;1.0238101482391357
01:00:0A:00:00:00:00;1726765109;19/09/24;16:58:29;0.95;-0.169;0.403;1.529606580734253;-0.8796459436416626;-0.025656338781118393
01:00:0A:00:00:00:00;1726765110;19/09/24;16:58:30;0.977;-0.375;-0.093;1.5418238639831543;0.6511822938919067;-0.6426302194595337
01:00:0A:00:00:00:00;1726765111;19/09/24;16:58:31;1.149;-0.04;0.183;1.2681562900543213;0.3176499307155609;0.6145303845405579
01:00:0A:00:00:00:00;1726765112;19/09/24;16:58:32;0.788;0.014;0.569;1.1520917415618896;0.07330382615327835;0.2565633952617645
01:00:0A:00:00:00:00;1726765113;19/09/24;16:58:33;0.948;0.187;0.128;0.9395107626914978;-0.5241223573684692;0.11239919811487198
01:00:0A:00:00:00:00;1726765114;19/09/24;16:58:34;0.961;0.1;0.088;1.0311404466629028;0.9370672702789307;-0.5546656250953674
01:00:0A:00:00:00:00;1726765115;19/09/24;16:58:35;0.623;0.608;0.268;0.8491026759147644;0.313984751701355;1.1032226085662842
01:00:0A:00:00:00:00;1726765116;19/09/24;16:58:36;0.907;0.104;-0.154;0.27122414112091064;-0.2895500957965851;0.5717698335647583
01:00:0A:00:00:00:00;1726765117;19/09/24;16:58:37;0.797;-0.374;-0.345;-0.12828169763088226;1.6481143236160278;0.3933972120285034
01:00:0A:00:00:00:00;1726765118;19/09/24;16:58:38;0.471;-0.731;0.714;1.1056660413742065;1.5515977144241333;0.6878342032432556
01:00:0A:00:00:00:00;1726765119;19/09/24;16:58:39;0.775;-0.201;0.499;0.37629297375679016;-1.2877038717269897;0.8393288850784302
01:00:0A:00:00:00:00;1726765120;19/09/24;16:58:40;0.757;0.581;0.177;2.146580219268799;-0.5925393104553223;-1.2082914113998413
01:00:0A:00:00:00:00;1726765121;19/09/24;16:58:41;0.29;-0.87;-0.878;1.566258430480957;-1.4147639274597168;2.8991665840148926
01:00:0A:00:00:00:00;1726765122;19/09/24;16:58:42;0.574;-0.675;0.643;0.445931613445282;0.02321287989616394;0.6059783101081848
01:00:0A:00:00:00:00;1726765123;19/09/24;16:58:43;0.43;-0.271;0.779;0.21502456068992615;-0.0659734457731247;-2.1087067127227783
01:00:0A:00:00:00:00;1726765124;19/09/24;16:58:44;0.829;0.523;0.284;-0.9810495376586914;-1.6713272333145142;-0.9676105380058289
01:00:0A:00:00:00:00;1726765125;19/09/24;16:58:45;0.974;0.1;-0.479;-1.4770721197128296;-0.14782939851284027;1.3683381080627441
01:00:0A:00:00:00:00;1726765126;19/09/24;16:58:46;0.747;0.284;0.576;-0.513126790523529;-1.1166616678237915;0.6633996367454529
01:00:0A:00:00:00:00;1726765127;19/09/24;16:58:47;0.782;0.052;-0.332;-1.9022343158721924;-0.6035348773002625;1.0971139669418335
01:00:0A:00:00:00:00;1726765128;19/09/24;16:58:48;0.877;-0.645;0.241;-1.7421876192092896;1.1337658166885376;1.2571606636047363
01:00:0A:00:00:00:00;1726765129;19/09/24;16:58:49;0.974;0.065;-0.149;-0.16493360698223114;-0.7880162000656128;-0.5094615817070007
01:00:0A:00:00:00:00;1726765130;19/09/24;16:58:50;0.764;-0.575;0.419;-1.2767083644866943;2.280970811843872;-0.9370672702789307
01:00:0A:00:00:00:00;1726765131;19/09/24;16:58:51;0.449;0.083;0.789;-2.0219638347625732;1.5027284622192383;-0.8246681094169617
01:00:0A:00:00:00:00;1726765132;19/09/24;16:58:52;0.723;0.079;0.596;0.04153883829712868;-0.9358454942703247;-3.1202995777130127
01:00:0A:00:00:00:00;1726765133;19/09/24;16:58:53;0.991;0.115;-0.178;-1.5809191465377808;-0.6976081132888794;1.0812314748764038
01:00:0A:00:00:00:00;1726765134;19/09/24;16:58:54;0.948;-0.162;0.103;-1.5845844745635986;0.07696902006864548;0.06352998316287994
01:00:0A:00:00:00:00;1726765135;19/09/24;16:58:55;0.892;-0.271;0.345;0.37629297375679016;0.18325956165790558;-1.2205088138580322
01:00:0A:00:00:00:00;1726765136;19/09/24;16:58:56;0.939;0.359;0.229;-0.2174680233001709;-0.9382889866828918;0.31642818450927734
01:00:0A:00:00:00:00;1726765137;19/09/24;16:58:57;0.974;0.173;-0.138;-0.48380526900291443;0.8772024512290955;0.4948008358478546
01:00:0A:00:00:00:00;1726765138;19/09/24;16:58:58;0.566;0.318;0.831;-1.0433577299118042;0.8246681094169617;-2.7598891258239746
01:00:0A:00:00:00:00;1726765139;19/09/24;16:58:59;1.12;-0.129;0.518;-1.0005972385406494;-0.15027284622192383;0.21013763546943665
01:00:0A:00:00:00:00;1726765140;19/09/24;16:59:00;0.703;-0.658;0.162;-0.7171557545661926;0.2919935882091522;-0.02076941914856434
01:00:0A:00:00:00:00;1726765141;19/09/24;16:59:01;0.773;-0.55;-0.014;-0.3481931686401367;0.2675589621067047;-0.004886921960860491
01:00:0A:00:00:00:00;1726765142;19/09/24;16:59:02;0.839;-0.521;0.338;0.6914994716644287;0.4899139106273651;-1.6652185916900635
01:00:0A:00:00:00:00;1726765143;19/09/24;16:59:03;0.665;0.395;0.682;0.06719517707824707;0.1820378452539444;-0.375071257352829
01:00:0A:00:00:00:00;1726765144;19/09/24;16:59:04;0.885;0.42;-0.322;0.7354817390441895;-1.5222761631011963;1.4477505683898926
01:00:0A:00:00:00:00;1726765145;19/09/24;16:59:05;0.663;-0.783;0.141;0.598647952079773;1.193630576133728;0.1771509200334549
01:00:0A:00:00:00:00;1726765146;19/09/24;16:59:06;0.742;0.188;0.366;1.0751228332519531;1.5308282375335693;-2.3493876457214355
01:00:0A:00:00:00:00;1726765147;19/09/24;16:59:07;0.909;0.434;0.067;-0.04398229718208313;-0.8405505418777466;0.24923302233219147
01:00:0A:00:00:00:00;1726765148;19/09/24;16:59:08;0.817;-0.415;0.12;-0.27977627515792847;0.4190535545349121;1.0885618925094604
01:00:0A:00:00:00:00;1726765149;19/09/24;16:59:09;0.971;-0.102;0.319;0.42638394236564636;-0.1014036238193512;-0.5290092825889587
01:00:0A:00:00:00:00;1726765150;19/09/24;16:59:10;0.596;-0.553;0.529;2.1099283695220947;0.47280970215797424;-0.6756169199943542
01:00:0A:00:00:00:00;1726765151;19/09/24;16:59:11;0.947;0.123;-0.291;1.2205088138580322;-0.44348815083503723;1.1020008325576782
01:00:0A:00:00:00:00;1726765152;19/09/24;16:59:12;0.936;-0.226;0.016;1.2571606636047363;0.2028072476387024;-0.7635815143585205
01:00:0A:00:00:00:00;1726765153;19/09/24;16:59:13;0.863;0.122;0.182;3.3536500930786133;1.8057177066802979;0.35552355647087097
01:00:0A:00:00:00:00;1726765154;19/09/24;16:59:14;0.892;-0.017;-0.118;2.2235496044158936;0.6914994716644287;0.959058403968811
01:00:0A:00:00:00:00;1726765155;19/09/24;16:59:15;0.935;-0.181;0.219;1.8350391387939453;-0.9798278212547302;-0.21380282938480377
01:00:0A:00:00:00:00;1726765156;19/09/24;16:59:16;0.916;-0.218;0.075;1.6395622491836548;0.08552113175392151;-1.0812314748764038
01:00:0A:00:00:00:00;1726765157;19/09/24;16:59:17;0.996;0.093;-0.111;1.1508700847625732;0.8808676600456238;0.31642818450927734
01:00:0A:00:00:00:00;1726765158;19/09/24;16:59:18;0.937;0.187;0.333;0.8686503767967224;-0.5461135506629944;0.6707300543785095
01:00:0A:00:00:00:00;1726765159;19/09/24;16:59:19;1.007;-0.067;-0.353;0.8833111524581909;-0.2883284091949463;-0.18325956165790558
01:00:0A:00:00:00:00;1726765160;19/09/24;16:59:20;0.929;-0.112;0.314;0.9468411207199097;-0.14049901068210602;0.3591887652873993
01:00:0A:00:00:00:00;1726765161;19/09/24;16:59:21;0.899;0.245;-0.229;1.1606439352035522;-0.7538076639175415;-0.3274237811565399
01:00:0A:00:00:00:00;1726765162;19/09/24;16:59:22;0.423;-0.979;0.091;1.2791517972946167;2.1685714721679688;0.5265658497810364
01:00:0A:00:00:00:00;1726765173;19/09/24;16:59:33;0.809;0.486;0.278;0.6255260109901428;-0.25045475363731384;1.2767083644866943
01:00:0A:00:00:00:00;1726765174;19/09/24;16:59:34;0.743;0.005;0.668;0.012217304669320583;-0.6194173693656921;0.6377432942390442
01:00:0A:00:00:00:00;1726765175;19/09/24;16:59:35;0.733;-0.409;0.652;0.21013763546943665;-0.07941248267889023;0.17959438264369965
01:00:0A:00:00:00:00;1726765176;19/09/24;16:59:36;0.794;-0.561;0.358;-1.4795156717300415;0.1258382350206375;0.3640756905078888
01:00:0A:00:00:00:00;1726765177;19/09/24;16:59:37;0.95;-0.11;-0.258;-2.0085248947143555;-0.5448917746543884;-0.15515977144241333
01:00:0A:00:00:00:00;1726765178;19/09/24;16:59:38;0.939;0.211;0.254;-1.7470746040344238;0.28588491678237915;-0.15882496535778046
01:00:0A:00:00:00:00;1726765179;19/09/24;16:59:39;0.893;-0.23;0.435;-1.2363911867141724;-0.8649851679801941;-0.22357667982578278
01:00:0A:00:00:00:00;1726765180;19/09/24;16:59:40;1.008;-0.244;0.072;-0.7855727076530457;-0.042760565876960754;0.19914205372333527
01:00:0A:00:00:00:00;1726765181;19/09/24;16:59:41;0.241;0.042;-0.907;-1.0751228332519531;1.156978726387024;-1.2131783962249756
01:00:0A:00:00:00:00;1726765182;19/09/24;16:59:42;0.784;0.172;-0.661;0.4789183437824249;0.8894197940826416;0.24678954482078552
01:00:0A:00:00:00:00;1726765183;19/09/24;16:59:43;1.029;-0.105;-0.247;0.21502456068992615;0.9126326441764832;-0.2431243658065796
01:00:0A:00:00:00:00;1726765184;19/09/24;16:59:44;0.681;0.349;0.723;-1.3133602142333984;1.3646730184555054;-1.663996934890747
01:00:0A:00:00:00:00;1726765185;19/09/24;16:59:45;0.079;-0.068;0.976;1.1728612184524536;-0.2223549485206604;-0.21380282938480377
01:00:0A:00:00:00:00;1726765186;19/09/24;16:59:46;0.553;0.868;-0.234;1.5638149976730347;0.46547931432724;0.5229006409645081
01:00:0A:00:00:00:00;1726765187;19/09/24;16:59:47;0.994;0.248;-0.069;0.62796950340271;0.16859880089759827;0.41783180832862854
01:00:0A:00:00:00:00;1726765188;19/09/24;16:59:48;0.845;-0.076;0.662;0.6499606370925903;0.7000515460968018;0.3286454975605011
01:00:0A:00:00:00:00;1726765189;19/09/24;16:59:49;1.009;-0.026;0.119;0.8478808999061584;-0.48258352279663086;0.3628539443016052
01:00:0A:00:00:00:00;1726765190;19/09/24;16:59:50;0.936;0.137;0.057;0.8503243923187256;0.00855211354792118;-0.40194931626319885
01:00:0A:00:00:00:00;1726765191;19/09/24;16:59:51;0.951;0.108;-0.171;0.5400049090385437;-0.22113320231437683;0.15515977144241333
01:00:0A:00:00:00:00;1726765192;19/09/24;16:59:52;0.955;-0.043;0.17;0.38117989897727966;0.7159340977668762;0.31642818450927734
01:00:0A:00:00:00:00;1726765193;19/09/24;16:59:53;0.968;-0.091;0.313;0.6194173693656921;-0.8808676600456238;0.09896016865968704
01:00:0A:00:00:00:00;1726765194;19/09/24;16:59:54;1.008;-0.168;-0.148;0.6572909951210022;0.5949827432632446;-0.6585127115249634
01:00:0A:00:00:00:00;1726765195;19/09/24;16:59:55;0.4;-0.721;0.76;0.919963002204895;-0.8503243923187256;0.27000245451927185
01:00:0A:00:00:00:00;1726765196;19/09/24;16:59:56;0.282;-0.134;0.636;-0.9065240025520325;0.04764748737215996;3.1581733226776123
01:00:0A:00:00:00:00;1726765197;19/09/24;16:59:57;0.892;-0.432;-0.428;-0.5937609672546387;0.01710422709584236;-1.2290607690811157
01:00:0A:00:00:00:00;1726765198;19/09/24;16:59:58;0.942;0.018;-0.497;-0.26633724570274353;-0.2638937830924988;-0.779464066028595
01:00:0A:00:00:00:00;1726765199;19/09/24;16:59:59;0.886;0.302;-0.488;-0.6475171446800232;-0.0757472887635231;0.22968533635139465
01:00:0A:00:00:00:00;1726765200;19/09/24;17:00:00;0.834;0.326;-0.598;-0.2223549485206604;-0.6475171446800232;-0.16004669666290283
01:00:0A:00:00:00:00;1726765201;19/09/24;17:00:01;0.902;-0.01;-0.487;0.3481931686401367;-0.3677408695220947;0.28588491678237915
01:00:0A:00:00:00:00;1726765202;19/09/24;17:00:02;0.939;-0.325;-0.244;1.2217304706573486;-0.0659734457731247;0.3347541391849518
01:00:0A:00:00:00:00;1726765203;19/09/24;17:00:03;0.906;-0.449;0.296;0.872315526008606;0.2577851116657257;0.05864306166768074
01:00:0A:00:00:00:00;1726765204;19/09/24;17:00:04;0.891;-0.049;0.527;0.8026769161224365;0.06963863223791122;-0.18325956165790558
01:00:0A:00:00:00:00;1726765205;19/09/24;17:00:05;0.911;0.324;0.267;0.5803219676017761;-0.2834414541721344;-0.0757472887635231
01:00:0A:00:00:00:00;1726765206;19/09/24;17:00:06;0.93;0.443;-0.046;0.12828169763088226;-0.24190263450145721;-0.15271630883216858
01:00:0A:00:00:00:00;1726765207;19/09/24;17:00:07;1.005;0.091;0.084;-0.05619959905743599;-0.14416420459747314;-0.1966986060142517
01:00:0A:00:00:00:00;1726765208;19/09/24;17:00:08;0.967;0.24;-0.089;-0.23090705275535583;-0.34086278080940247;0.17104226350784302
01:00:0A:00:00:00:00;1726765209;19/09/24;17:00:09;1.004;0.353;-0.14;-0.32498031854629517;-0.08307767659425735;-0.2223549485206604
01:00:0A:00:00:00:00;1726765210;19/09/24;17:00:10;0.741;0.651;0.217;-0.4190535545349121;0.09407324343919754;-0.6743952035903931
01:00:0A:00:00:00:00;1726765211;19/09/24;17:00:11;0.733;0.708;0.002;1.1691960096359253;0.27977627515792847;-0.2028072476387024
01:00:0A:00:00:00:00;1726765212;19/09/24;17:00:12;0.872;0.215;-0.418;1.281595230102539;0.21013763546943665;0.24190263450145721
01:00:0A:00:00:00:00;1726765213;19/09/24;17:00:13;0.953;-0.241;-0.225;0.5400049090385437;0.015882495790719986;-0.039095375686883926
01:00:0A:00:00:00:00;1726765214;19/09/24;17:00:14;0.973;-0.384;-0.018;-0.14538592100143433;0.5302309989929199;-0.16004669666290283
01:00:0A:00:00:00:00;1726765215;19/09/24;17:00:15;0.972;-0.288;0.124;0.10873401165008545;0.21135938167572021;-0.20891590416431427
01:00:0A:00:00:00:00;1726765216;19/09/24;17:00:16;0.955;0.035;0.33;-0.042760565876960754;-0.10506881773471832;-0.08918632566928864
01:00:0A:00:00:00:00;1726765217;19/09/24;17:00:17;0.94;-0.221;0.335;-1.9413297176361084;0.5778785347938538;-0.5387831330299377
01:00:0A:00:00:00:00;1726765218;19/09/24;17:00:18;0.92;-0.418;-0.033;-1.2705997228622437;0.10995574295520782;-0.45204028487205505
01:00:0A:00:00:00:00;1726765219;19/09/24;17:00:19;0.895;-0.274;-0.497;-0.6939429044723511;-0.34208452701568604;0.15027284622192383
01:00:0A:00:00:00:00;1726765220;19/09/24;17:00:20;0.851;0.018;-0.571;0.05619959905743599;-0.46303585171699524;-0.13316862285137177
01:00:0A:00:00:00:00;1726765221;19/09/24;17:00:21;0.858;0.075;-0.509;0.656069278717041;-0.5949827432632446;-0.34208452701568604
01:00:0A:00:00:00:00;1726765222;19/09/24;17:00:22;0.873;-0.222;-0.39;1.370781660079956;-0.3543018400669098;0.12217304855585098
01:00:0A:00:00:00:00;1726765223;19/09/24;17:00:23;0.851;-0.552;-0.142;1.3683381080627441;0.024434609338641167;-0.32131510972976685
01:00:0A:00:00:00:00;1726765224;19/09/24;17:00:24;0.836;-0.461;0.434;0.8332201242446899;-0.3787364363670349;-0.23945917189121246
01:00:0A:00:00:00:00;1726765225;19/09/24;17:00:25;0.894;0.303;0.433;0.48747044801712036;-0.11728612333536148;-0.10506881773471832
01:00:0A:00:00:00:00;1726765226;19/09/24;17:00:26;1.02;0.044;-0.118;0.22357667982578278;-0.3946189284324646;0.33597588539123535
01:00:0A:00:00:00:00;1726765227;19/09/24;17:00:27;1.01;-0.14;-0.23;0.10018189996480942;-0.23457224667072296;0.09407324343919754
01:00:0A:00:00:00:00;1726765228;19/09/24;17:00:28;0.867;0.179;-0.494;0.46670106053352356;-1.252273678779602;-0.3628539443016052
