Source;Epoch timestamp (UTC);Date;Time (UTC);Accel X (G);Accel Y (G);Accel Z (G);Gyro X (rad/s);Gyro Y (rad/s);Gyro Z (rad/s)
01:00:0A:00:00:00:00;1726531188;16/09/24;23:59:48;0.987;0.037;0.129;-0.04153883829712868;-0.04398229718208313;0.02687807008624077
01:00:0A:00:00:00:00;1726531189;16/09/24;23:59:49;1.0;0.02;0.146;-0.021991148591041565;-0.0659734457731247;0.019547687843441963
01:00:0A:00:00:00:00;1726531190;16/09/24;23:59:50;1.027;0.051;0.157;-0.02321287989616394;-0.02076941914856434;0.009773843921720982
01:00:0A:00:00:00:00;1726531191;16/09/24;23:59:51;1.034;0.049;0.16;-0.021991148591041565;0.018325956538319588;0.014660765416920185
01:00:0A:00:00:00:00;1726531192;16/09/24;23:59:52;1.033;0.043;0.153;0.01710422709584236;0.004886921960860491;-0.02321287989616394
01:00:0A:00:00:00:00;1726531193;16/09/24;23:59:53;1.013;0.044;0.144;0.036651913076639175;-0.004886921960860491;-0.045204028487205505
01:00:0A:00:00:00:00;1726531194;16/09/24;23:59:54;0.998;0.025;0.151;0.03176499158143997;0.014660765416920185;-0.009773843921720982
01:00:0A:00:00:00:00;1726531195;16/09/24;23:59:55;0.973;0.026;0.145;0.05864306166768074;-0.028099799528717995;-0.0036651913542300463
01:00:0A:00:00:00:00;1726531196;16/09/24;23:59:56;0.972;0.037;0.14;0.05009094998240471;-0.025656338781118393;0.013439035043120384
01:00:0A:00:00:00:00;1726531197;16/09/24;23:59:57;0.993;-0.029;0.097;0.12950342893600464;-0.051312677562236786;0.09040805697441101
01:00:0A:00:00:00:00;1726531198;16/09/24;23:59:58;1.0;0.025;0.146;0.2174680233001709;0.051312677562236786;-0.15515977144241333
01:00:0A:00:00:00:00;1726531199;16/09/24;23:59:59;1.024;0.045;0.174;-0.27611109614372253;-0.16371189057826996;0.2736676335334778
01:00:0A:00:00:00:00;1726531200;17/09/24;00:00:00;1.051;-0.111;0.055;-0.059864792972803116;0.09773843735456467;-0.1661553531885147
01:00:0A:00:00:00:00;1726531201;17/09/24;00:00:01;0.994;0.221;0.284;-0.08918632566928864;0.16004669666290283;-0.14905111491680145
01:00:0A:00:00:00:00;1726531202;17/09/24;00:00:02;1.02;-0.01;0.091;-0.1466076523065567;-0.1966986060142517;0.20525071024894714
01:00:0A:00:00:00:00;1726531203;17/09/24;00:00:03;0.994;0.028;0.084;-0.08307767659425735;0.15271630883216858;-0.17959438264369965
01:00:0A:00:00:00:00;1726531204;17/09/24;00:00:04;0.972;0.079;0.199;-0.1160643920302391;-0.010995574295520782;0.025656338781118393
01:00:0A:00:00:00:00;1726531205;17/09/24;00:00:05;1.009;0.014;0.122;-0.03787364438176155;-0.2174680233001709;0.05253440886735916
01:00:0A:00:00:00:00;1726531206;17/09/24;00:00:06;1.031;0.034;0.082;-0.10018189996480942;0.0708603635430336;-0.06230825558304787
01:00:0A:00:00:00:00;1726531207;17/09/24;00:00:07;1.001;0.046;0.266;-0.07330382615327835;0.0708603635430336;-0.02932153083384037
01:00:0A:00:00:00:00;1726531208;17/09/24;00:00:08;1.008;0.021;0.129;0.01710422709584236;-0.14538592100143433;0.00855211354792118
01:00:0A:00:00:00:00;1726531209;17/09/24;00:00:09;0.995;0.034;0.107;-0.1014036238193512;0.14049901068210602;-0.00855211354792118
01:00:0A:00:00:00:00;1726531210;17/09/24;00:00:10;0.976;0.035;0.18;-0.05497787147760391;-0.0012217304902151227;0.00855211354792118
01:00:0A:00:00:00:00;1726531211;17/09/24;00:00:11;1.002;0.04;0.133;0.018325956538319588;-0.17837265133857727;0.018325956538319588
01:00:0A:00:00:00:00;1726531212;17/09/24;00:00:12;1.02;0.042;0.101;-0.10018189996480942;0.039095375686883926;0.036651913076639175
01:00:0A:00:00:00:00;1726531213;17/09/24;00:00:13;1.017;0.034;0.228;-0.059864792972803116;0.012217304669320583;-0.00855211354792118
01:00:0A:00:00:00:00;1726531214;17/09/24;00:00:14;1.028;0.055;0.139;-0.019547687843441963;-0.06963863223791122;-0.02687807008624077
01:00:0A:00:00:00:00;1726531215;17/09/24;00:00:15;1.011;0.045;0.12;-0.12217304855585098;0.080634206533432;-0.0036651913542300463
01:00:0A:00:00:00:00;1726531216;17/09/24;00:00:16;0.994;0.04;0.166;-0.07941248267889023;0.025656338781118393;-0.02932153083384037
01:00:0A:00:00:00:00;1726531217;17/09/24;00:00:17;0.989;0.056;0.122;-0.025656338781118393;-0.12339477241039276;-0.05009094998240471
01:00:0A:00:00:00:00;1726531218;17/09/24;00:00:18;0.993;0.035;0.121;-0.12828169763088226;0.010995574295520782;0.010995574295520782
01:00:0A:00:00:00:00;1726531219;17/09/24;00:00:19;1.002;0.005;0.177;-0.08307767659425735;-0.04642575979232788;-0.004886921960860491
01:00:0A:00:00:00:00;1726531220;17/09/24;00:00:20;1.018;0.053;0.153;-0.06475171446800232;-0.05375614017248154;0.019547687843441963
01:00:0A:00:00:00:00;1726531221;17/09/24;00:00:21;1.024;0.053;0.138;-0.12828169763088226;0.021991148591041565;0.04642575979232788
01:00:0A:00:00:00:00;1726531222;17/09/24;00:00:22;1.017;0.035;0.163;-0.080634206533432;0.02321287989616394;-0.02687807008624077
01:00:0A:00:00:00:00;1726531223;17/09/24;00:00:23;1.012;0.071;0.137;-0.03787364438176155;-0.039095375686883926;-0.07452555745840073
01:00:0A:00:00:00:00;1726531224;17/09/24;00:00:24;0.993;0.039;0.137;-0.09407324343919754;-0.00855211354792118;-0.0012217304902151227
01:00:0A:00:00:00:00;1726531225;17/09/24;00:00:25;0.983;0.023;0.159;-0.05497787147760391;-0.013439035043120384;-0.0354301817715168
01:00:0A:00:00:00:00;1726531226;17/09/24;00:00:26;0.993;0.043;0.154;-0.05009094998240471;-0.04398229718208313;0.004886921960860491
01:00:0A:00:00:00:00;1726531227;17/09/24;00:00:27;1.011;0.04;0.145;-0.09162978082895279;-0.018325956538319588;0.045204028487205505
01:00:0A:00:00:00:00;1726531228;17/09/24;00:00:28;1.027;0.036;0.162;-0.06108652427792549;0.0036651913542300463;-0.014660765416920185
01:00:0A:00:00:00:00;1726531229;17/09/24;00:00:29;1.023;0.065;0.148;-0.04886921867728233;-0.010995574295520782;-0.042760565876960754
01:00:0A:00:00:00:00;1726531230;17/09/24;00:00:30;1.014;0.041;0.142;-0.07819075137376785;0.004886921960860491;-0.006108652334660292
01:00:0A:00:00:00:00;1726531231;17/09/24;00:00:31;0.992;0.029;0.142;-0.05864306166768074;-0.0012217304902151227;-0.021991148591041565
01:00:0A:00:00:00:00;1726531232;17/09/24;00:00:32;0.986;0.047;0.145;-0.05742133408784866;-0.03176499158143997;-0.0073303827084600925
01:00:0A:00:00:00:00;1726531233;17/09/24;00:00:33;0.997;0.041;0.147;-0.07330382615327835;-0.02321287989616394;0.014660765416920185
01:00:0A:00:00:00:00;1726531234;17/09/24;00:00:34;1.007;0.039;0.156;-0.059864792972803116;-0.009773843921720982;-0.0036651913542300463
01:00:0A:00:00:00:00;1726531235;17/09/24;00:00:35;1.014;0.053;0.153;-0.05619959905743599;-0.015882495790719986;-0.0024434609804302454
01:00:0A:00:00:00:00;1726531236;17/09/24;00:00:36;1.014;0.046;0.148;-0.059864792972803116;-0.015882495790719986;-0.0012217304902151227
01:00:0A:00:00:00:00;1726531237;17/09/24;00:00:37;1.015;0.043;0.15;-0.04764748737215996;-0.018325956538319588;-0.015882495790719986
01:00:0A:00:00:00:00;1726531238;17/09/24;00:00:38;1.014;0.046;0.152;-0.042760565876960754;-0.013439035043120384;-0.02321287989616394
01:00:0A:00:00:00:00;1726531239;17/09/24;00:00:39;1.012;0.041;0.149;-0.04642575979232788;-0.012217304669320583;-0.009773843921720982
01:00:0A:00:00:00:00;1726531240;17/09/24;00:00:40;1.002;0.032;0.149;-0.04153883829712868;-0.004886921960860491;-0.013439035043120384
01:00:0A:00:00:00:00;1726531241;17/09/24;00:00:41;0.996;0.039;0.149;-0.040317103266716;-0.009773843921720982;0.004886921960860491
01:00:0A:00:00:00:00;1726531242;17/09/24;00:00:42;0.999;0.047;0.141;-0.042760565876960754;-0.02321287989616394;0.01710422709584236
01:00:0A:00:00:00:00;1726531243;17/09/24;00:00:43;1.004;0.046;0.141;-0.039095375686883926;-0.01710422709584236;0.006108652334660292
01:00:0A:00:00:00:00;1726531244;17/09/24;00:00:44;1.011;0.043;0.15;-0.03298672288656235;-0.02687807008624077;0.0024434609804302454
01:00:0A:00:00:00:00;1726531245;17/09/24;00:00:45;1.012;0.04;0.148;-0.0354301817715168;-0.02076941914856434;0.010995574295520782
01:00:0A:00:00:00:00;1726531246;17/09/24;00:00:46;1.01;0.044;0.144;-0.03420845419168472;-0.00855211354792118;-0.0036651913542300463
01:00:0A:00:00:00:00;1726531247;17/09/24;00:00:47;1.009;0.051;0.154;-0.028099799528717995;-0.018325956538319588;-0.012217304669320583
01:00:0A:00:00:00:00;1726531248;17/09/24;00:00:48;1.01;0.048;0.152;-0.02076941914856434;-0.015882495790719986;-0.018325956538319588
01:00:0A:00:00:00:00;1726531249;17/09/24;00:00:49;1.011;0.037;0.152;-0.02321287989616394;0.0073303827084600925;-0.021991148591041565
01:00:0A:00:00:00:00;1726531250;17/09/24;00:00:50;1.011;0.035;0.15;-0.024434609338641167;0.00855211354792118;-0.018325956538319588
01:00:0A:00:00:00:00;1726531251;17/09/24;00:00:51;1.004;0.033;0.141;-0.025656338781118393;-0.01710422709584236;0.019547687843441963
01:00:0A:00:00:00:00;1726531252;17/09/24;00:00:52;1.0;0.04;0.137;-0.028099799528717995;-0.025656338781118393;0.02932153083384037
01:00:0A:00:00:00:00;1726531253;17/09/24;00:00:53;1.003;0.05;0.151;-0.021991148591041565;-0.0354301817715168;0.012217304669320583
01:00:0A:00:00:00:00;1726531254;17/09/24;00:00:54;1.008;0.051;0.158;-0.013439035043120384;-0.0354301817715168;-0.0012217304902151227
01:00:0A:00:00:00:00;1726531255;17/09/24;00:00:55;1.016;0.051;0.154;-0.013439035043120384;-0.004886921960860491;-0.028099799528717995
01:00:0A:00:00:00:00;1726531256;17/09/24;00:00:56;1.015;0.035;0.152;-0.01710422709584236;0.014660765416920185;-0.019547687843441963
01:00:0A:00:00:00:00;1726531257;17/09/24;00:00:57;1.008;0.035;0.147;-0.013439035043120384;0.0012217304902151227;-0.0036651913542300463
01:00:0A:00:00:00:00;1726531258;17/09/24;00:00:58;0.997;0.042;0.139;-0.02321287989616394;-0.019547687843441963;0.025656338781118393
01:00:0A:00:00:00:00;1726531259;17/09/24;00:00:59;0.996;0.04;0.15;-0.021991148591041565;-0.02687807008624077;0.02076941914856434
01:00:0A:00:00:00:00;1726531260;17/09/24;00:01:00;1.006;0.043;0.163;-0.004886921960860491;-0.02687807008624077;-0.0073303827084600925
01:00:0A:00:00:00:00;1726531261;17/09/24;00:01:01;1.007;0.041;0.159;-0.01710422709584236;-0.0012217304902151227;0.006108652334660292
01:00:0A:00:00:00:00;1726531262;17/09/24;00:01:02;1.008;0.033;0.15;-0.02076941914856434;0.00855211354792118;0.013439035043120384
01:00:0A:00:00:00:00;1726531263;17/09/24;00:01:03;1.008;0.034;0.149;0.0012217304902151227;-0.024434609338641167;0.009773843921720982
01:00:0A:00:00:00:00;1726531264;17/09/24;00:01:04;1.02;0.053;0.152;-0.00855211354792118;-0.02076941914856434;0.028099799528717995
01:00:0A:00:00:00:00;1726531265;17/09/24;00:01:05;1.024;0.052;0.162;-0.004886921960860491;0.0036651913542300463;0.0012217304902151227
01:00:0A:00:00:00:00;1726531266;17/09/24;00:01:06;1.016;0.055;0.157;0.018325956538319588;0.010995574295520782;-0.04398229718208313
01:00:0A:00:00:00:00;1726531267;17/09/24;00:01:07;0.99;0.04;0.14;0.015882495790719986;0.004886921960860491;-0.03176499158143997
01:00:0A:00:00:00:00;1726531268;17/09/24;00:01:08;0.979;0.027;0.138;0.014660765416920185;-0.013439035043120384;-0.0073303827084600925
01:00:0A:00:00:00:00;1726531269;17/09/24;00:01:09;0.988;0.028;0.143;0.02687807008624077;-0.04642575979232788;0.006108652334660292
01:00:0A:00:00:00:00;1726531270;17/09/24;00:01:10;1.007;0.04;0.146;0.0073303827084600925;-0.04398229718208313;0.04642575979232788
01:00:0A:00:00:00:00;1726531271;17/09/24;00:01:11;1.024;0.041;0.164;0.004886921960860491;0.0;0.024434609338641167
01:00:0A:00:00:00:00;1726531272;17/09/24;00:01:12;1.019;0.053;0.158;0.02321287989616394;0.004886921960860491;-0.01710422709584236
01:00:0A:00:00:00:00;1726531273;17/09/24;00:01:13;1.007;0.045;0.142;0.01710422709584236;0.0024434609804302454;-0.015882495790719986
01:00:0A:00:00:00:00;1726531274;17/09/24;00:01:14;0.995;0.028;0.145;0.014660765416920185;-0.01710422709584236;0.00855211354792118
01:00:0A:00:00:00:00;1726531275;17/09/24;00:01:15;1.0;0.034;0.146;0.02687807008624077;-0.04153883829712868;0.015882495790719986
01:00:0A:00:00:00:00;1726531276;17/09/24;00:01:16;1.016;0.054;0.15;0.010995574295520782;-0.018325956538319588;0.030543262138962746
01:00:0A:00:00:00:00;1726531277;17/09/24;00:01:17;1.022;0.049;0.162;0.02076941914856434;-0.0012217304902151227;0.0012217304902151227
01:00:0A:00:00:00:00;1726531278;17/09/24;00:01:18;1.013;0.044;0.154;0.040317103266716;0.004886921960860491;-0.0354301817715168
01:00:0A:00:00:00:00;1726531279;17/09/24;00:01:19;1.002;0.04;0.144;0.02687807008624077;0.012217304669320583;-0.01710422709584236
01:00:0A:00:00:00:00;1726531280;17/09/24;00:01:20;0.991;0.029;0.143;0.02321287989616394;-0.009773843921720982;0.014660765416920185
01:00:0A:00:00:00:00;1726531281;17/09/24;00:01:21;0.996;0.036;0.139;0.036651913076639175;-0.042760565876960754;0.014660765416920185
01:00:0A:00:00:00:00;1726531282;17/09/24;00:01:22;1.007;0.047;0.145;0.018325956538319588;-0.0354301817715168;0.0354301817715168
01:00:0A:00:00:00:00;1726531283;17/09/24;00:01:23;1.023;0.046;0.165;0.01710422709584236;-0.00855211354792118;0.015882495790719986
01:00:0A:00:00:00:00;1726531284;17/09/24;00:01:24;1.023;0.046;0.157;0.028099799528717995;0.0036651913542300463;-0.0036651913542300463
01:00:0A:00:00:00:00;1726531285;17/09/24;00:01:25;1.015;0.047;0.146;0.018325956538319588;0.019547687843441963;-0.010995574295520782
01:00:0A:00:00:00:00;1726531286;17/09/24;00:01:26;1.008;0.037;0.149;0.014660765416920185;0.014660765416920185;-0.0024434609804302454
01:00:0A:00:00:00:00;1726531287;17/09/24;00:01:27;0.999;0.044;0.144;0.03176499158143997;-0.02321287989616394;-0.010995574295520782
01:00:0A:00:00:00:00;1726531288;17/09/24;00:01:28;0.997;0.051;0.142;0.02076941914856434;-0.02687807008624077;0.0012217304902151227
01:00:0A:00:00:00:00;1726531289;17/09/24;00:01:29;1.0;0.044;0.153;0.01710422709584236;-0.025656338781118393;0.0024434609804302454
01:00:0A:00:00:00:00;1726531290;17/09/24;00:01:30;1.009;0.04;0.158;0.028099799528717995;-0.013439035043120384;-0.014660765416920185
01:00:0A:00:00:00:00;1726531291;17/09/24;00:01:31;1.009;0.04;0.149;0.015882495790719986;0.0073303827084600925;-0.0012217304902151227
01:00:0A:00:00:00:00;1726531292;17/09/24;00:01:32;1.006;0.03;0.149;0.010995574295520782;-0.0024434609804302454;0.028099799528717995
01:00:0A:00:00:00:00;1726531293;17/09/24;00:01:33;1.007;0.034;0.148;0.025656338781118393;-0.02687807008624077;0.03298672288656235
01:00:0A:00:00:00:00;1726531294;17/09/24;00:01:34;1.013;0.055;0.149;0.021991148591041565;-0.010995574295520782;0.024434609338641167
01:00:0A:00:00:00:00;1726531295;17/09/24;00:01:35;1.011;0.048;0.16;0.025656338781118393;0.0036651913542300463;0.0073303827084600925
01:00:0A:00:00:00:00;1726531296;17/09/24;00:01:36;1.007;0.045;0.149;0.042760565876960754;0.0036651913542300463;-0.024434609338641167
01:00:0A:00:00:00:00;1726531297;17/09/24;00:01:37;1.007;0.041;0.14;0.0354301817715168;0.0;-0.009773843921720982
01:00:0A:00:00:00:00;1726531298;17/09/24;00:01:38;1.008;0.03;0.146;0.03298672288656235;-0.00855211354792118;0.010995574295520782
01:00:0A:00:00:00:00;1726531299;17/09/24;00:01:39;1.009;0.038;0.15;0.042760565876960754;-0.021991148591041565;0.019547687843441963
01:00:0A:00:00:00:00;1726531300;17/09/24;00:01:40;1.008;0.046;0.149;0.0354301817715168;-0.006108652334660292;0.019547687843441963
01:00:0A:00:00:00:00;1726531301;17/09/24;00:01:41;1.004;0.042;0.153;0.03787364438176155;0.0073303827084600925;0.004886921960860491
01:00:0A:00:00:00:00;1726531302;17/09/24;00:01:42;1.002;0.044;0.152;0.05253440886735916;-0.012217304669320583;-0.004886921960860491
01:00:0A:00:00:00:00;1726531303;17/09/24;00:01:43;1.008;0.04;0.142;0.04398229718208313;-0.012217304669320583;0.00855211354792118
01:00:0A:00:00:00:00;1726531304;17/09/24;00:01:44;1.009;0.037;0.149;0.04398229718208313;-0.0073303827084600925;0.0036651913542300463
01:00:0A:00:00:00:00;1726531305;17/09/24;00:01:45;1.012;0.043;0.154;0.04886921867728233;-0.012217304669320583;0.00855211354792118
01:00:0A:00:00:00:00;1726531306;17/09/24;00:01:46;1.011;0.046;0.146;0.039095375686883926;-0.0036651913542300463;0.015882495790719986
01:00:0A:00:00:00:00;1726531307;17/09/24;00:01:47;1.006;0.042;0.151;0.04153883829712868;0.006108652334660292;0.0
01:00:0A:00:00:00:00;1726531308;17/09/24;00:01:48;1.001;0.04;0.148;0.05009094998240471;-0.013439035043120384;-0.0024434609804302454
01:00:0A:00:00:00:00;1726531309;17/09/24;00:01:49;1.004;0.039;0.144;0.04153883829712868;-0.009773843921720982;0.010995574295520782
01:00:0A:00:00:00:00;1726531310;17/09/24;00:01:50;1.009;0.039;0.149;0.040317103266716;0.0;0.009773843921720982
01:00:0A:00:00:00:00;1726531311;17/09/24;00:01:51;1.007;0.043;0.148;0.05009094998240471;-0.018325956538319588;0.010995574295520782
01:00:0A:00:00:00:00;1726531312;17/09/24;00:01:52;1.003;0.041;0.144;0.04398229718208313;-0.018325956538319588;0.014660765416920185
01:00:0A:00:00:00:00;1726531313;17/09/24;00:01:53;1.002;0.037;0.15;0.04398229718208313;-0.009773843921720982;0.012217304669320583
01:00:0A:00:00:00:00;1726531314;17/09/24;00:01:54;1.011;0.044;0.157;0.051312677562236786;-0.019547687843441963;0.014660765416920185
01:00:0A:00:00:00:00;1726531315;17/09/24;00:01:55;1.016;0.046;0.15;0.045204028487205505;-0.010995574295520782;0.018325956538319588
01:00:0A:00:00:00:00;1726531316;17/09/24;00:01:56;1.016;0.042;0.156;0.051312677562236786;0.006108652334660292;-0.0012217304902151227
01:00:0A:00:00:00:00;1726531317;17/09/24;00:01:57;1.01;0.002;0.183;0.12461651116609573;0.030543262138962746;0.009773843921720982
01:00:0A:00:00:00:00;1726531318;17/09/24;00:01:58;1.004;0.075;0.129;0.18570303916931152;-0.05253440886735916;-0.045204028487205505
01:00:0A:00:00:00:00;1726531319;17/09/24;00:01:59;1.0;0.032;0.14;0.10995574295520782;0.024434609338641167;0.05253440886735916
01:00:0A:00:00:00:00;1726531320;17/09/24;00:02:00;0.995;0.035;0.159;0.15515977144241333;-0.024434609338641167;-0.006108652334660292
01:00:0A:00:00:00:00;1726531321;17/09/24;00:02:01;1.007;0.059;0.139;0.12095131725072861;-0.0354301817715168;0.042760565876960754
01:00:0A:00:00:00:00;1726531322;17/09/24;00:02:02;1.016;0.039;0.149;0.08674286305904388;0.010995574295520782;0.03298672288656235
01:00:0A:00:00:00:00;1726531323;17/09/24;00:02:03;1.018;0.047;0.168;0.11362093687057495;-0.012217304669320583;-0.0036651913542300463
01:00:0A:00:00:00:00;1726531324;17/09/24;00:02:04;1.019;0.053;0.142;0.08796459436416626;-0.013439035043120384;0.01710422709584236
01:00:0A:00:00:00:00;1726531325;17/09/24;00:02:05;1.009;0.036;0.153;0.06963863223791122;0.039095375686883926;-0.0012217304902151227
01:00:0A:00:00:00:00;1726531326;17/09/24;00:02:06;1.003;0.046;0.155;0.09162978082895279;-0.0012217304902151227;-0.014660765416920185
01:00:0A:00:00:00:00;1726531327;17/09/24;00:02:07;0.995;0.038;0.132;0.0659734457731247;-0.019547687843441963;0.028099799528717995
01:00:0A:00:00:00:00;1726531328;17/09/24;00:02:08;0.996;0.034;0.14;0.05742133408784866;-0.00855211354792118;0.024434609338641167
01:00:0A:00:00:00:00;1726531329;17/09/24;00:02:09;1.002;0.045;0.152;0.0708603635430336;-0.04642575979232788;0.02321287989616394
01:00:0A:00:00:00:00;1726531330;17/09/24;00:02:10;1.021;0.047;0.147;0.05375614017248154;-0.02321287989616394;0.028099799528717995
01:00:0A:00:00:00:00;1726531331;17/09/24;00:02:11;1.024;0.04;0.159;0.05375614017248154;0.010995574295520782;0.0
01:00:0A:00:00:00:00;1726531332;17/09/24;00:02:12;1.016;0.052;0.157;0.06108652427792549;0.012217304669320583;-0.01710422709584236
01:00:0A:00:00:00:00;1726531333;17/09/24;00:02:13;1.009;0.04;0.144;0.05253440886735916;0.0073303827084600925;-0.0024434609804302454
01:00:0A:00:00:00:00;1726531334;17/09/24;00:02:14;0.992;0.031;0.144;0.05619959905743599;0.009773843921720982;-0.0036651913542300463
01:00:0A:00:00:00:00;1726531335;17/09/24;00:02:15;0.991;0.041;0.149;0.05864306166768074;-0.030543262138962746;0.028099799528717995
01:00:0A:00:00:00:00;1726531336;17/09/24;00:02:16;1.001;0.04;0.145;0.051312677562236786;-0.02932153083384037;0.042760565876960754
01:00:0A:00:00:00:00;1726531337;17/09/24;00:02:17;1.017;0.045;0.155;0.06352998316287994;-0.0073303827084600925;0.004886921960860491
01:00:0A:00:00:00:00;1726531338;17/09/24;00:02:18;1.021;0.054;0.16;0.0659734457731247;-0.0073303827084600925;0.0024434609804302454
01:00:0A:00:00:00:00;1726531339;17/09/24;00:02:19;1.016;0.039;0.148;0.06108652427792549;0.006108652334660292;0.0073303827084600925
01:00:0A:00:00:00:00;1726531340;17/09/24;00:02:20;1.006;0.04;0.15;0.06841690838336945;0.013439035043120384;-0.00855211354792118
01:00:0A:00:00:00:00;1726531341;17/09/24;00:02:21;0.999;0.045;0.15;0.06352998316287994;-0.012217304669320583;0.014660765416920185
01:00:0A:00:00:00:00;1726531342;17/09/24;00:02:22;1.005;0.035;0.146;0.06230825558304787;-0.015882495790719986;0.02076941914856434
01:00:0A:00:00:00:00;1726531343;17/09/24;00:02:23;1.015;0.041;0.149;0.06963863223791122;-0.0024434609804302454;0.0
01:00:0A:00:00:00:00;1726531344;17/09/24;00:02:24;1.011;0.049;0.15;0.06475171446800232;0.0036651913542300463;0.0
01:00:0A:00:00:00:00;1726531345;17/09/24;00:02:25;1.006;0.039;0.147;0.06352998316287994;-0.00855211354792118;0.00855211354792118
01:00:0A:00:00:00:00;1726531346;17/09/24;00:02:26;0.996;0.039;0.148;0.07208210229873657;-0.015882495790719986;0.0024434609804302454
01:00:0A:00:00:00:00;1726531347;17/09/24;00:02:27;0.997;0.044;0.148;0.059864792972803116;-0.02076941914856434;0.02687807008624077
01:00:0A:00:00:00:00;1726531348;17/09/24;00:02:28;1.013;0.044;0.154;0.06108652427792549;-0.019547687843441963;0.02321287989616394
01:00:0A:00:00:00:00;1726531344;17/09/24;00:02:24;1.021;0.047;0.154;0.0708603635430336;-0.006108652334660292;-0.0012217304902151227
01:00:0A:00:00:00:00;1726531345;17/09/24;00:02:25;1.021;0.047;0.155;0.06352998316287994;0.012217304669320583;-0.006108652334660292
01:00:0A:00:00:00:00;1726531346;17/09/24;00:02:26;1.005;0.037;0.15;0.05864306166768074;0.019547687843441963;0.0036651913542300463
01:00:0A:00:00:00:00;1726531347;17/09/24;00:02:27;0.991;0.039;0.139;0.06475171446800232;0.0;0.0024434609804302454
01:00:0A:00:00:00:00;1726531348;17/09/24;00:02:28;0.988;0.042;0.142;0.05375614017248154;-0.021991148591041565;0.025656338781118393
01:00:0A:00:00:00:00;1726531349;17/09/24;00:02:29;0.998;0.039;0.148;0.05619959905743599;-0.03787364438176155;0.024434609338641167
01:00:0A:00:00:00:00;1726531350;17/09/24;00:02:30;1.018;0.047;0.156;0.05864306166768074;-0.024434609338641167;0.012217304669320583
01:00:0A:00:00:00:00;1726531351;17/09/24;00:02:31;1.024;0.049;0.156;0.04764748737215996;0.0;0.0073303827084600925
01:00:0A:00:00:00:00;1726531352;17/09/24;00:02:32;1.018;0.041;0.155;0.051312677562236786;0.0073303827084600925;0.0
01:00:0A:00:00:00:00;1726531353;17/09/24;00:02:33;1.008;0.045;0.15;0.05497787147760391;0.009773843921720982;-0.010995574295520782
01:00:0A:00:00:00:00;1726531354;17/09/24;00:02:34;0.996;0.04;0.145;0.04153883829712868;0.006108652334660292;0.010995574295520782
01:00:0A:00:00:00:00;1726531355;17/09/24;00:02:35;0.996;0.04;0.148;0.04642575979232788;-0.012217304669320583;0.012217304669320583
01:00:0A:00:00:00:00;1726531356;17/09/24;00:02:36;1.004;0.041;0.147;0.04886921867728233;-0.024434609338641167;0.012217304669320583
01:00:0A:00:00:00:00;1726531357;17/09/24;00:02:37;1.013;0.044;0.15;0.039095375686883926;-0.00855211354792118;0.013439035043120384
01:00:0A:00:00:00:00;1726531358;17/09/24;00:02:38;1.013;0.04;0.153;0.042760565876960754;-0.0012217304902151227;0.0024434609804302454
01:00:0A:00:00:00:00;1726531359;17/09/24;00:02:39;1.006;0.041;0.145;0.04642575979232788;-0.00855211354792118;0.0012217304902151227
01:00:0A:00:00:00:00;1726531360;17/09/24;00:02:40;1.004;0.041;0.145;0.039095375686883926;-0.010995574295520782;0.009773843921720982
01:00:0A:00:00:00:00;1726531361;17/09/24;00:02:41;1.006;0.041;0.152;0.04398229718208313;-0.01710422709584236;0.009773843921720982
01:00:0A:00:00:00:00;1726531362;17/09/24;00:02:42;1.01;0.042;0.149;0.045204028487205505;-0.013439035043120384;0.004886921960860491
01:00:0A:00:00:00:00;1726531363;17/09/24;00:02:43;1.012;0.04;0.147;0.039095375686883926;0.004886921960860491;0.0024434609804302454
01:00:0A:00:00:00:00;1726531364;17/09/24;00:02:44;1.008;0.039;0.148;0.04153883829712868;-0.0012217304902151227;0.0024434609804302454
01:00:0A:00:00:00:00;1726531365;17/09/24;00:02:45;1.006;0.041;0.146;0.04398229718208313;-0.009773843921720982;0.004886921960860491
01:00:0A:00:00:00:00;1726531366;17/09/24;00:02:46;1.003;0.04;0.145;0.036651913076639175;-0.0073303827084600925;0.012217304669320583
01:00:0A:00:00:00:00;1726531367;17/09/24;00:02:47;1.003;0.041;0.148;0.040317103266716;-0.014660765416920185;0.012217304669320583
01:00:0A:00:00:00:00;1726531368;17/09/24;00:02:48;1.008;0.043;0.147;0.042760565876960754;-0.021991148591041565;0.00855211354792118
01:00:0A:00:00:00:00;1726531369;17/09/24;00:02:49;1.01;0.043;0.15;0.036651913076639175;-0.009773843921720982;0.0036651913542300463
01:00:0A:00:00:00:00;1726531370;17/09/24;00:02:50;1.011;0.041;0.154;0.03787364438176155;0.0024434609804302454;-0.0024434609804302454
01:00:0A:00:00:00:00;1726531371;17/09/24;00:02:51;1.009;0.041;0.147;0.03787364438176155;-0.006108652334660292;0.0012217304902151227
01:00:0A:00:00:00:00;1726531372;17/09/24;00:02:52;1.005;0.04;0.145;0.03298672288656235;-0.006108652334660292;0.0073303827084600925
01:00:0A:00:00:00:00;1726531373;17/09/24;00:02:53;1.004;0.04;0.149;0.0354301817715168;-0.00855211354792118;0.004886921960860491
01:00:0A:00:00:00:00;1726531374;17/09/24;00:02:54;1.003;0.04;0.146;0.0354301817715168;-0.013439035043120384;0.00855211354792118
01:00:0A:00:00:00:00;1726531375;17/09/24;00:02:55;1.008;0.04;0.144;0.03176499158143997;-0.014660765416920185;0.010995574295520782
01:00:0A:00:00:00:00;1726531376;17/09/24;00:02:56;1.009;0.04;0.15;0.03420845419168472;-0.01710422709584236;0.013439035043120384
01:00:0A:00:00:00:00;1726531377;17/09/24;00:02:57;1.013;0.045;0.152;0.03420845419168472;-0.010995574295520782;0.00855211354792118
01:00:0A:00:00:00:00;1726531378;17/09/24;00:02:58;1.013;0.042;0.15;0.03298672288656235;0.0;-0.0012217304902151227
01:00:0A:00:00:00:00;1726531379;17/09/24;00:02:59;1.006;0.041;0.151;0.03420845419168472;0.0036651913542300463;-0.0073303827084600925
01:00:0A:00:00:00:00;1726531380;17/09/24;00:03:00;1.004;0.04;0.146;0.03298672288656235;-0.006108652334660292;0.0036651913542300463
01:00:0A:00:00:00:00;1726531381;17/09/24;00:03:01;1.001;0.039;0.145;0.030543262138962746;-0.010995574295520782;0.012217304669320583
01:00:0A:00:00:00:00;1726531382;17/09/24;00:03:02;1.003;0.043;0.147;0.030543262138962746;-0.015882495790719986;0.010995574295520782
01:00:0A:00:00:00:00;1726531383;17/09/24;00:03:03;1.008;0.042;0.148;0.03176499158143997;-0.02687807008624077;0.013439035043120384
01:00:0A:00:00:00:00;1726531384;17/09/24;00:03:04;1.014;0.04;0.15;0.03176499158143997;-0.01710422709584236;0.0036651913542300463
01:00:0A:00:00:00:00;1726531385;17/09/24;00:03:05;1.014;0.043;0.153;0.030543262138962746;-0.006108652334660292;-0.0012217304902151227
01:00:0A:00:00:00:00;1726531386;17/09/24;00:03:06;1.008;0.041;0.151;0.02932153083384037;-0.0012217304902151227;0.0036651913542300463
01:00:0A:00:00:00:00;1726531387;17/09/24;00:03:07;1.005;0.039;0.144;0.02687807008624077;0.0024434609804302454;0.006108652334660292
01:00:0A:00:00:00:00;1726531388;17/09/24;00:03:08;1.002;0.043;0.144;0.02687807008624077;-0.013439035043120384;0.00855211354792118
01:00:0A:00:00:00:00;1726531389;17/09/24;00:03:09;1.004;0.044;0.147;0.028099799528717995;-0.021991148591041565;0.00855211354792118
01:00:0A:00:00:00:00;1726531390;17/09/24;00:03:10;1.009;0.041;0.148;0.028099799528717995;-0.01710422709584236;0.0012217304902151227
01:00:0A:00:00:00:00;1726531391;17/09/24;00:03:11;1.01;0.04;0.151;0.024434609338641167;-0.006108652334660292;0.0036651913542300463
01:00:0A:00:00:00:00;1726531392;17/09/24;00:03:12;1.01;0.04;0.15;0.02076941914856434;-0.004886921960860491;0.012217304669320583
01:00:0A:00:00:00:00;1726531393;17/09/24;00:03:13;1.007;0.043;0.145;0.02076941914856434;-0.0012217304902151227;0.00855211354792118
01:00:0A:00:00:00:00;1726531394;17/09/24;00:03:14;1.006;0.043;0.144;0.02076941914856434;-0.0036651913542300463;0.0024434609804302454
01:00:0A:00:00:00:00;1726531395;17/09/24;00:03:15;1.004;0.04;0.143;0.02321287989616394;-0.021991148591041565;0.0036651913542300463
01:00:0A:00:00:00:00;1726531396;17/09/24;00:03:16;1.005;0.038;0.146;0.02321287989616394;-0.02076941914856434;0.0012217304902151227
01:00:0A:00:00:00:00;1726531397;17/09/24;00:03:17;1.009;0.04;0.152;0.019547687843441963;-0.010995574295520782;0.004886921960860491
01:00:0A:00:00:00:00;1726531398;17/09/24;00:03:18;1.007;0.04;0.15;0.01710422709584236;-0.0024434609804302454;0.010995574295520782
01:00:0A:00:00:00:00;1726531399;17/09/24;00:03:19;1.004;0.039;0.145;0.018325956538319588;-0.0024434609804302454;0.0073303827084600925
01:00:0A:00:00:00:00;1726531400;17/09/24;00:03:20;1.006;0.043;0.144;0.02076941914856434;-0.015882495790719986;0.006108652334660292
01:00:0A:00:00:00:00;1726531401;17/09/24;00:03:21;1.008;0.043;0.147;0.02076941914856434;-0.024434609338641167;0.0073303827084600925
01:00:0A:00:00:00:00;1726531402;17/09/24;00:03:22;1.012;0.04;0.15;0.02076941914856434;-0.014660765416920185;0.0012217304902151227
01:00:0A:00:00:00:00;1726531403;17/09/24;00:03:23;1.013;0.044;0.155;0.019547687843441963;-0.0073303827084600925;-0.0012217304902151227
01:00:0A:00:00:00:00;1726531404;17/09/24;00:03:24;1.01;0.041;0.151;0.013439035043120384;0.0012217304902151227;0.006108652334660292
01:00:0A:00:00:00:00;1726531405;17/09/24;00:03:25;1.006;0.041;0.147;0.014660765416920185;0.004886921960860491;0.0012217304902151227
01:00:0A:00:00:00:00;1726531406;17/09/24;00:03:26;1.0;0.043;0.143;0.015882495790719986;-0.004886921960860491;-0.0012217304902151227
01:00:0A:00:00:00:00;1726531407;17/09/24;00:03:27;1.001;0.04;0.143;0.013439035043120384;-0.02932153083384037;0.014660765416920185
01:00:0A:00:00:00:00;1726531408;17/09/24;00:03:28;1.005;0.039;0.146;0.015882495790719986;-0.03176499158143997;0.012217304669320583
01:00:0A:00:00:00:00;1726531409;17/09/24;00:03:29;1.012;0.045;0.156;0.013439035043120384;-0.014660765416920185;0.0036651913542300463
01:00:0A:00:00:00:00;1726531410;17/09/24;00:03:30;1.012;0.044;0.155;0.012217304669320583;-0.0073303827084600925;0.0024434609804302454
01:00:0A:00:00:00:00;1726531411;17/09/24;00:03:31;1.009;0.038;0.146;0.013439035043120384;-0.0012217304902151227;0.0012217304902151227
01:00:0A:00:00:00:00;1726531412;17/09/24;00:03:32;1.007;0.042;0.146;0.013439035043120384;-0.0024434609804302454;0.0012217304902151227
01:00:0A:00:00:00:00;1726531413;17/09/24;00:03:33;1.006;0.042;0.147;0.013439035043120384;-0.015882495790719986;0.006108652334660292
01:00:0A:00:00:00:00;1726531414;17/09/24;00:03:34;1.006;0.04;0.145;0.01710422709584236;-0.015882495790719986;0.0024434609804302454
01:00:0A:00:00:00:00;1726531415;17/09/24;00:03:35;1.006;0.042;0.149;0.015882495790719986;-0.010995574295520782;0.0012217304902151227
01:00:0A:00:00:00:00;1726531416;17/09/24;00:03:36;1.005;0.04;0.151;0.012217304669320583;-0.013439035043120384;0.010995574295520782
01:00:0A:00:00:00:00;1726531417;17/09/24;00:03:37;1.009;0.039;0.149;0.015882495790719986;-0.010995574295520782;0.0073303827084600925
01:00:0A:00:00:00:00;1726531418;17/09/24;00:03:38;1.009;0.043;0.148;0.014660765416920185;-0.006108652334660292;0.0036651913542300463
01:00:0A:00:00:00:00;1726531419;17/09/24;00:03:39;1.011;0.043;0.149;0.012217304669320583;-0.012217304669320583;0.009773843921720982
01:00:0A:00:00:00:00;1726531420;17/09/24;00:03:40;1.01;0.04;0.147;0.01710422709584236;-0.012217304669320583;0.0
01:00:0A:00:00:00:00;1726531421;17/09/24;00:03:41;1.008;0.042;0.149;0.014660765416920185;-0.006108652334660292;-0.004886921960860491
01:00:0A:00:00:00:00;1726531422;17/09/24;00:03:42;1.004;0.04;0.149;0.010995574295520782;-0.00855211354792118;0.0036651913542300463
01:00:0A:00:00:00:00;1726531423;17/09/24;00:03:43;1.002;0.038;0.146;0.013439035043120384;-0.015882495790719986;0.004886921960860491
01:00:0A:00:00:00:00;1726531424;17/09/24;00:03:44;1.006;0.042;0.146;0.009773843921720982;-0.015882495790719986;0.012217304669320583
01:00:0A:00:00:00:00;1726531425;17/09/24;00:03:45;1.009;0.046;0.152;0.00855211354792118;-0.01710422709584236;0.013439035043120384
01:00:0A:00:00:00:00;1726531426;17/09/24;00:03:46;1.011;0.043;0.15;0.013439035043120384;-0.012217304669320583;-0.0012217304902151227
01:00:0A:00:00:00:00;1726531427;17/09/24;00:03:47;1.009;0.042;0.147;0.012217304669320583;-0.006108652334660292;-0.0036651913542300463
01:00:0A:00:00:00:00;1726531428;17/09/24;00:03:48;1.008;0.04;0.15;0.0073303827084600925;-0.009773843921720982;0.00855211354792118
01:00:0A:00:00:00:00;1726531429;17/09/24;00:03:49;1.008;0.04;0.147;0.010995574295520782;-0.012217304669320583;0.004886921960860491
01:00:0A:00:00:00:00;1726531430;17/09/24;00:03:50;1.009;0.042;0.146;0.009773843921720982;-0.006108652334660292;-0.0012217304902151227
01:00:0A:00:00:00:00;1726531431;17/09/24;00:03:51;1.006;0.04;0.148;0.0073303827084600925;-0.0073303827084600925;0.0024434609804302454
01:00:0A:00:00:00:00;1726531432;17/09/24;00:03:52;1.005;0.04;0.146;0.010995574295520782;-0.013439035043120384;0.0
01:00:0A:00:00:00:00;1726531433;17/09/24;00:03:53;1.004;0.041;0.146;0.009773843921720982;-0.010995574295520782;0.0024434609804302454
01:00:0A:00:00:00:00;1726531434;17/09/24;00:03:54;1.007;0.04;0.148;0.0073303827084600925;-0.014660765416920185;0.00855211354792118
01:00:0A:00:00:00:00;1726531435;17/09/24;00:03:55;1.007;0.04;0.148;0.009773843921720982;-0.02076941914856434;0.00855211354792118
01:00:0A:00:00:00:00;1726531436;17/09/24;00:03:56;1.009;0.044;0.149;0.009773843921720982;-0.014660765416920185;0.0024434609804302454
01:00:0A:00:00:00:00;1726531437;17/09/24;00:03:57;1.009;0.042;0.151;0.0073303827084600925;-0.009773843921720982;0.0024434609804302454
01:00:0A:00:00:00:00;1726531438;17/09/24;00:03:58;1.007;0.04;0.149;0.010995574295520782;-0.009773843921720982;0.0
01:00:0A:00:00:00:00;1726531439;17/09/24;00:03:59;1.008;0.04;0.147;0.0073303827084600925;-0.00855211354792118;0.0036651913542300463
01:00:0A:00:00:00:00;1726531440;17/09/24;00:04:00;1.01;0.041;0.148;0.004886921960860491;-0.009773843921720982;0.009773843921720982
01:00:0A:00:00:00:00;1726531441;17/09/24;00:04:01;1.011;0.043;0.148;0.009773843921720982;-0.012217304669320583;0.0012217304902151227
01:00:0A:00:00:00:00;1726531442;17/09/24;00:04:02;1.007;0.043;0.148;0.009773843921720982;-0.0073303827084600925;-0.0073303827084600925
01:00:0A:00:00:00:00;1726531443;17/09/24;00:04:03;1.003;0.038;0.148;0.006108652334660292;-0.009773843921720982;0.0012217304902151227
01:00:0A:00:00:00:00;1726531444;17/09/24;00:04:04;1.005;0.038;0.148;0.00855211354792118;-0.018325956538319588;0.006108652334660292
01:00:0A:00:00:00:00;1726531445;17/09/24;00:04:05;1.01;0.044;0.147;0.004886921960860491;-0.010995574295520782;0.00855211354792118
01:00:0A:00:00:00:00;1726531446;17/09/24;00:04:06;1.013;0.044;0.15;0.0036651913542300463;-0.004886921960860491;0.0036651913542300463
01:00:0A:00:00:00:00;1726531447;17/09/24;00:04:07;1.009;0.042;0.148;0.009773843921720982;-0.00855211354792118;-0.006108652334660292
01:00:0A:00:00:00:00;1726531448;17/09/24;00:04:08;1.005;0.044;0.147;0.00855211354792118;-0.00855211354792118;-0.004886921960860491
01:00:0A:00:00:00:00;1726531449;17/09/24;00:04:09;1.0;0.04;0.149;0.0036651913542300463;-0.014660765416920185;0.004886921960860491
01:00:0A:00:00:00:00;1726531450;17/09/24;00:04:10;1.001;0.04;0.148;0.0073303827084600925;-0.02076941914856434;0.0073303827084600925
01:00:0A:00:00:00:00;1726531451;17/09/24;00:04:11;1.011;0.044;0.151;0.0036651913542300463;-0.015882495790719986;0.012217304669320583
01:00:0A:00:00:00:00;1726531452;17/09/24;00:04:12;1.016;0.046;0.152;0.0024434609804302454;-0.004886921960860491;0.0024434609804302454
01:00:0A:00:00:00:00;1726531453;17/09/24;00:04:13;1.014;0.044;0.151;0.00855211354792118;-0.0024434609804302454;-0.010995574295520782
01:00:0A:00:00:00:00;1726531454;17/09/24;00:04:14;1.005;0.04;0.146;0.00855211354792118;-0.0024434609804302454;-0.010995574295520782
01:00:0A:00:00:00:00;1726531455;17/09/24;00:04:15;1.0;0.037;0.146;0.0036651913542300463;-0.010995574295520782;0.004886921960860491
01:00:0A:00:00:00:00;1726531456;17/09/24;00:04:16;1.001;0.04;0.149;0.0073303827084600925;-0.02321287989616394;0.012217304669320583
01:00:0A:00:00:00:00;1726531457;17/09/24;00:04:17;1.007;0.044;0.15;0.004886921960860491;-0.018325956538319588;0.012217304669320583
01:00:0A:00:00:00:00;1726531458;17/09/24;00:04:18;1.014;0.046;0.152;0.004886921960860491;-0.004886921960860491;0.0
01:00:0A:00:00:00:00;1726531459;17/09/24;00:04:19;1.013;0.042;0.149;0.009773843921720982;-0.0036651913542300463;-0.00855211354792118
01:00:0A:00:00:00:00;1726531460;17/09/24;00:04:20;1.006;0.041;0.147;0.00855211354792118;-0.006108652334660292;-0.004886921960860491
01:00:0A:00:00:00:00;1726531461;17/09/24;00:04:21;1.002;0.04;0.147;0.0036651913542300463;-0.012217304669320583;0.009773843921720982
01:00:0A:00:00:00:00;1726531462;17/09/24;00:04:22;1.003;0.039;0.147;0.00855211354792118;-0.018325956538319588;0.0073303827084600925
01:00:0A:00:00:00:00;1726531463;17/09/24;00:04:23;1.01;0.043;0.149;0.006108652334660292;-0.015882495790719986;0.0073303827084600925
01:00:0A:00:00:00:00;1726531464;17/09/24;00:04:24;1.012;0.043;0.152;0.0036651913542300463;-0.00855211354792118;0.004886921960860491
01:00:0A:00:00:00:00;1726531465;17/09/24;00:04:25;1.01;0.04;0.149;0.00855211354792118;-0.004886921960860491;-0.006108652334660292
01:00:0A:00:00:00:00;1726531466;17/09/24;00:04:26;1.008;0.041;0.147;0.0073303827084600925;-0.004886921960860491;-0.0036651913542300463
01:00:0A:00:00:00:00;1726531467;17/09/24;00:04:27;1.003;0.039;0.147;0.0036651913542300463;-0.010995574295520782;0.009773843921720982
01:00:0A:00:00:00:00;1726531468;17/09/24;00:04:28;1.004;0.04;0.148;0.0073303827084600925;-0.02076941914856434;0.009773843921720982
01:00:0A:00:00:00:00;1726531469;17/09/24;00:04:29;1.009;0.046;0.15;0.0073303827084600925;-0.015882495790719986;0.004886921960860491
01:00:0A:00:00:00:00;1726531470;17/09/24;00:04:30;1.014;0.042;0.152;0.006108652334660292;-0.004886921960860491;-0.0012217304902151227
01:00:0A:00:00:00:00;1726531471;17/09/24;00:04:31;1.012;0.041;0.151;0.00855211354792118;-0.004886921960860491;-0.0024434609804302454
01:00:0A:00:00:00:00;1726531472;17/09/24;00:04:32;1.005;0.041;0.147;0.0073303827084600925;-0.0073303827084600925;-0.0012217304902151227
01:00:0A:00:00:00:00;1726531473;17/09/24;00:04:33;1.002;0.04;0.148;0.004886921960860491;-0.0073303827084600925;0.0036651913542300463
01:00:0A:00:00:00:00;1726531474;17/09/24;00:04:34;1.002;0.04;0.149;0.00855211354792118;-0.018325956538319588;0.0024434609804302454
01:00:0A:00:00:00:00;1726531475;17/09/24;00:04:35;1.006;0.041;0.147;0.006108652334660292;-0.019547687843441963;0.006108652334660292
01:00:0A:00:00:00:00;1726531476;17/09/24;00:04:36;1.011;0.04;0.15;0.0024434609804302454;-0.012217304669320583;0.00855211354792118
01:00:0A:00:00:00:00;1726531477;17/09/24;00:04:37;1.011;0.041;0.151;0.0073303827084600925;-0.010995574295520782;0.0024434609804302454
01:00:0A:00:00:00:00;1726531478;17/09/24;00:04:38;1.008;0.043;0.148;0.0073303827084600925;-0.009773843921720982;0.0012217304902151227
01:00:0A:00:00:00:00;1726531479;17/09/24;00:04:39;1.006;0.04;0.147;0.0036651913542300463;-0.0073303827084600925;0.0036651913542300463
01:00:0A:00:00:00:00;1726531480;17/09/24;00:04:40;1.008;0.04;0.148;0.00855211354792118;-0.010995574295520782;0.0
01:00:0A:00:00:00:00;1726531481;17/09/24;00:04:41;1.007;0.042;0.147;0.0073303827084600925;-0.012217304669320583;0.0012217304902151227
01:00:0A:00:00:00:00;1726531482;17/09/24;00:04:42;1.007;0.04;0.148;0.0036651913542300463;-0.00855211354792118;0.0036651913542300463
01:00:0A:00:00:00:00;1726531483;17/09/24;00:04:43;1.005;0.04;0.149;0.0073303827084600925;-0.012217304669320583;0.0024434609804302454
01:00:0A:00:00:00:00;1726531484;17/09/24;00:04:44;1.005;0.042;0.147;0.0073303827084600925;-0.013439035043120384;0.006108652334660292
01:00:0A:00:00:00:00;1726531485;17/09/24;00:04:45;1.006;0.042;0.147;0.004886921960860491;-0.013439035043120384;0.0073303827084600925
01:00:0A:00:00:00:00;1726531486;17/09/24;00:04:46;1.009;0.04;0.151;0.009773843921720982;-0.015882495790719986;0.0024434609804302454
01:00:0A:00:00:00:00;1726531487;17/09/24;00:04:47;1.011;0.041;0.149;0.0073303827084600925;-0.010995574295520782;0.0024434609804302454
01:00:0A:00:00:00:00;1726531488;17/09/24;00:04:48;1.008;0.042;0.147;0.004886921960860491;-0.006108652334660292;0.006108652334660292
01:00:0A:00:00:00:00;1726531489;17/09/24;00:04:49;1.006;0.04;0.148;0.009773843921720982;-0.010995574295520782;0.0012217304902151227
01:00:0A:00:00:00:00;1726531490;17/09/24;00:04:50;1.007;0.04;0.146;0.009773843921720982;-0.013439035043120384;0.0024434609804302454
01:00:0A:00:00:00:00;1726531491;17/09/24;00:04:51;1.008;0.039;0.148;0.006108652334660292;-0.009773843921720982;0.006108652334660292
01:00:0A:00:00:00:00;1726531492;17/09/24;00:04:52;1.008;0.04;0.149;0.010995574295520782;-0.009773843921720982;0.0024434609804302454
01:00:0A:00:00:00:00;1726531493;17/09/24;00:04:53;1.007;0.041;0.146;0.010995574295520782;-0.009773843921720982;0.0024434609804302454
01:00:0A:00:00:00:00;1726531494;17/09/24;00:04:54;1.006;0.04;0.146;0.00855211354792118;-0.009773843921720982;0.0073303827084600925
01:00:0A:00:00:00:00;1726531495;17/09/24;00:04:55;1.005;0.04;0.147;0.012217304669320583;-0.018325956538319588;0.0073303827084600925
01:00:0A:00:00:00:00;1726531496;17/09/24;00:04:56;1.008;0.043;0.15;0.012217304669320583;-0.018325956538319588;0.00855211354792118
01:00:0A:00:00:00:00;1726531497;17/09/24;00:04:57;1.011;0.043;0.153;0.010995574295520782;-0.00855211354792118;0.006108652334660292
01:00:0A:00:00:00:00;1726531498;17/09/24;00:04:58;1.012;0.042;0.151;0.014660765416920185;-0.0073303827084600925;-0.0012217304902151227
01:00:0A:00:00:00:00;1726531499;17/09/24;00:04:59;1.009;0.043;0.148;0.014660765416920185;-0.004886921960860491;-0.0024434609804302454
01:00:0A:00:00:00:00;1726531500;17/09/24;00:05:00;1.006;0.041;0.148;0.012217304669320583;-0.004886921960860491;0.0024434609804302454
01:00:0A:00:00:00:00;1726531501;17/09/24;00:05:01;1.004;0.04;0.148;0.015882495790719986;-0.014660765416920185;0.0036651913542300463
01:00:0A:00:00:00:00;1726531502;17/09/24;00:05:02;1.005;0.04;0.147;0.014660765416920185;-0.015882495790719986;0.006108652334660292
01:00:0A:00:00:00:00;1726531503;17/09/24;00:05:03;1.01;0.04;0.149;0.012217304669320583;-0.009773843921720982;0.0073303827084600925
01:00:0A:00:00:00:00;1726531504;17/09/24;00:05:04;1.008;0.041;0.149;0.014660765416920185;-0.009773843921720982;0.0036651913542300463
01:00:0A:00:00:00:00;1726531505;17/09/24;00:05:05;1.007;0.041;0.146;0.014660765416920185;-0.010995574295520782;0.0036651913542300463
01:00:0A:00:00:00:00;1726531506;17/09/24;00:05:06;1.007;0.041;0.148;0.012217304669320583;-0.010995574295520782;0.0036651913542300463
01:00:0A:00:00:00:00;1726531507;17/09/24;00:05:07;1.008;0.04;0.15;0.014660765416920185;-0.013439035043120384;0.0024434609804302454
01:00:0A:00:00:00:00;1726531508;17/09/24;00:05:08;1.007;0.041;0.147;0.013439035043120384;-0.012217304669320583;0.004886921960860491
01:00:0A:00:00:00:00;1726531509;17/09/24;00:05:09;1.007;0.041;0.148;0.010995574295520782;-0.009773843921720982;0.0073303827084600925
01:00:0A:00:00:00:00;1726531510;17/09/24;00:05:10;1.009;0.042;0.15;0.014660765416920185;-0.009773843921720982;0.0024434609804302454
01:00:0A:00:00:00:00;1726531511;17/09/24;00:05:11;1.008;0.041;0.145;0.013439035043120384;-0.00855211354792118;0.0012217304902151227
01:00:0A:00:00:00:00;1726531512;17/09/24;00:05:12;1.006;0.04;0.147;0.012217304669320583;-0.0073303827084600925;0.0024434609804302454
01:00:0A:00:00:00:00;1726531513;17/09/24;00:05:13;1.005;0.04;0.148;0.013439035043120384;-0.012217304669320583;0.0024434609804302454
01:00:0A:00:00:00:00;1726531514;17/09/24;00:05:14;1.006;0.04;0.147;0.012217304669320583;-0.013439035043120384;0.006108652334660292
01:00:0A:00:00:00:00;1726531515;17/09/24;00:05:15;1.008;0.041;0.148;0.009773843921720982;-0.009773843921720982;0.0073303827084600925
01:00:0A:00:00:00:00;1726531516;17/09/24;00:05:16;1.011;0.042;0.151;0.012217304669320583;-0.010995574295520782;0.0036651913542300463
01:00:0A:00:00:00:00;1726531517;17/09/24;00:05:17;1.011;0.043;0.148;0.012217304669320583;-0.010995574295520782;0.0012217304902151227
01:00:0A:00:00:00:00;1726531518;17/09/24;00:05:18;1.01;0.041;0.149;0.012217304669320583;-0.0073303827084600925;-0.0012217304902151227
01:00:0A:00:00:00:00;1726531519;17/09/24;00:05:19;1.006;0.04;0.149;0.013439035043120384;-0.00855211354792118;-0.0012217304902151227
01:00:0A:00:00:00:00;1726531520;17/09/24;00:05:20;1.004;0.04;0.146;0.012217304669320583;-0.010995574295520782;0.0036651913542300463
01:00:0A:00:00:00:00;1726531521;17/09/24;00:05:21;1.002;0.04;0.148;0.010995574295520782;-0.013439035043120384;0.009773843921720982
01:00:0A:00:00:00:00;1726531522;17/09/24;00:05:22;1.01;0.043;0.151;0.013439035043120384;-0.013439035043120384;0.0073303827084600925
01:00:0A:00:00:00:00;1726531523;17/09/24;00:05:23;1.015;0.045;0.15;0.014660765416920185;-0.009773843921720982;0.0024434609804302454
01:00:0A:00:00:00:00;1726531524;17/09/24;00:05:24;1.01;0.03;0.148;0.03787364438176155;-0.006108652334660292;0.018325956538319588
01:00:0A:00:00:00:00;1726531525;17/09/24;00:05:25;1.006;0.028;0.148;0.08429940044879913;-0.0073303827084600925;0.0036651913542300463
01:00:0A:00:00:00:00;1726531526;17/09/24;00:05:26;1.007;0.042;0.147;0.08918632566928864;-0.0073303827084600925;-0.0024434609804302454
01:00:0A:00:00:00:00;1726531527;17/09/24;00:05:27;1.006;0.047;0.149;0.06352998316287994;-0.0036651913542300463;0.01710422709584236
01:00:0A:00:00:00:00;1726531528;17/09/24;00:05:28;1.009;0.038;0.15;0.06108652427792549;-0.006108652334660292;0.019547687843441963
01:00:0A:00:00:00:00;1726531529;17/09/24;00:05:29;1.01;0.04;0.145;0.07452555745840073;-0.009773843921720982;-0.0012217304902151227
01:00:0A:00:00:00:00;1726531530;17/09/24;00:05:30;1.008;0.047;0.146;0.06352998316287994;-0.0012217304902151227;0.0024434609804302454
01:00:0A:00:00:00:00;1726531531;17/09/24;00:05:31;1.004;0.04;0.15;0.05253440886735916;-0.0073303827084600925;0.019547687843441963
01:00:0A:00:00:00:00;1726531532;17/09/24;00:05:32;1.004;0.038;0.148;0.06475171446800232;-0.01710422709584236;0.0073303827084600925
01:00:0A:00:00:00:00;1726531533;17/09/24;00:05:33;1.009;0.046;0.145;0.05864306166768074;-0.009773843921720982;0.00855211354792118
01:00:0A:00:00:00:00;1726531534;17/09/24;00:05:34;1.01;0.043;0.151;0.04886921867728233;-0.006108652334660292;0.014660765416920185
01:00:0A:00:00:00:00;1726531535;17/09/24;00:05:35;1.011;0.04;0.15;0.05742133408784866;-0.009773843921720982;0.004886921960860491
01:00:0A:00:00:00:00;1726531536;17/09/24;00:05:36;1.008;0.042;0.146;0.05497787147760391;-0.004886921960860491;0.0
01:00:0A:00:00:00:00;1726531537;17/09/24;00:05:37;1.005;0.042;0.149;0.045204028487205505;-0.004886921960860491;0.010995574295520782
01:00:0A:00:00:00:00;1726531538;17/09/24;00:05:38;1.006;0.038;0.148;0.05009094998240471;-0.015882495790719986;0.010995574295520782
01:00:0A:00:00:00:00;1726531539;17/09/24;00:05:39;1.009;0.04;0.145;0.05009094998240471;-0.009773843921720982;0.004886921960860491
01:00:0A:00:00:00:00;1726531540;17/09/24;00:05:40;1.009;0.043;0.149;0.042760565876960754;-0.0024434609804302454;0.0073303827084600925
01:00:0A:00:00:00:00;1726531541;17/09/24;00:05:41;1.008;0.04;0.149;0.04398229718208313;-0.012217304669320583;0.00855211354792118
01:00:0A:00:00:00:00;1726531542;17/09/24;00:05:42;1.008;0.04;0.146;0.04642575979232788;-0.009773843921720982;0.0036651913542300463
01:00:0A:00:00:00:00;1726531543;17/09/24;00:05:43;1.007;0.043;0.149;0.039095375686883926;-0.004886921960860491;0.006108652334660292
01:00:0A:00:00:00:00;1726531544;17/09/24;00:05:44;1.007;0.04;0.149;0.040317103266716;-0.009773843921720982;0.00855211354792118
01:00:0A:00:00:00:00;1726531545;17/09/24;00:05:45;1.007;0.04;0.146;0.04153883829712868;-0.009773843921720982;0.0036651913542300463
01:00:0A:00:00:00:00;1726531546;17/09/24;00:05:46;1.008;0.041;0.148;0.036651913076639175;-0.004886921960860491;0.006108652334660292
01:00:0A:00:00:00:00;1726531547;17/09/24;00:05:47;1.007;0.04;0.149;0.036651913076639175;-0.010995574295520782;0.00855211354792118
01:00:0A:00:00:00:00;1726531548;17/09/24;00:05:48;1.006;0.04;0.146;0.039095375686883926;-0.010995574295520782;0.004886921960860491
01:00:0A:00:00:00:00;1726531549;17/09/24;00:05:49;1.009;0.042;0.148;0.0354301817715168;-0.00855211354792118;0.004886921960860491
01:00:0A:00:00:00:00;1726531550;17/09/24;00:05:50;1.01;0.041;0.15;0.03420845419168472;-0.012217304669320583;0.0073303827084600925
01:00:0A:00:00:00:00;1726531551;17/09/24;00:05:51;1.01;0.04;0.147;0.0354301817715168;-0.00855211354792118;0.0036651913542300463
01:00:0A:00:00:00:00;1726531552;17/09/24;00:05:52;1.008;0.041;0.147;0.03176499158143997;-0.004886921960860491;0.0036651913542300463
01:00:0A:00:00:00:00;1726531553;17/09/24;00:05:53;1.006;0.04;0.148;0.03176499158143997;-0.012217304669320583;0.00855211354792118
01:00:0A:00:00:00:00;1726531554;17/09/24;00:05:54;1.005;0.04;0.146;0.03298672288656235;-0.012217304669320583;0.004886921960860491
01:00:0A:00:00:00:00;1726531555;17/09/24;00:05:55;1.008;0.042;0.148;0.030543262138962746;-0.0073303827084600925;0.004886921960860491
01:00:0A:00:00:00:00;1726531556;17/09/24;00:05:56;1.008;0.04;0.149;0.030543262138962746;-0.00855211354792118;0.004886921960860491
01:00:0A:00:00:00:00;1726531557;17/09/24;00:05:57;1.007;0.04;0.146;0.030543262138962746;-0.009773843921720982;0.004886921960860491
01:00:0A:00:00:00:00;1726531558;17/09/24;00:05:58;1.007;0.041;0.148;0.02932153083384037;-0.009773843921720982;0.0073303827084600925
01:00:0A:00:00:00:00;1726531559;17/09/24;00:05:59;1.008;0.041;0.148;0.02932153083384037;-0.012217304669320583;0.0073303827084600925
01:00:0A:00:00:00:00;1726531560;17/09/24;00:06:00;1.007;0.04;0.148;0.030543262138962746;-0.010995574295520782;0.004886921960860491
01:00:0A:00:00:00:00;1726531561;17/09/24;00:06:01;1.008;0.041;0.148;0.02932153083384037;-0.00855211354792118;0.0024434609804302454
01:00:0A:00:00:00:00;1726531562;17/09/24;00:06:02;1.008;0.04;0.148;0.02932153083384037;-0.009773843921720982;0.004886921960860491
01:00:0A:00:00:00:00;1726531563;17/09/24;00:06:03;1.008;0.04;0.147;0.02932153083384037;-0.00855211354792118;0.004886921960860491
01:00:0A:00:00:00:00;1726531564;17/09/24;00:06:04;1.007;0.04;0.147;0.028099799528717995;-0.00855211354792118;0.006108652334660292
01:00:0A:00:00:00:00;1726531565;17/09/24;00:06:05;1.008;0.04;0.148;0.028099799528717995;-0.012217304669320583;0.0073303827084600925
01:00:0A:00:00:00:00;1726531566;17/09/24;00:06:06;1.009;0.04;0.149;0.028099799528717995;-0.009773843921720982;0.004886921960860491
01:00:0A:00:00:00:00;1726531567;17/09/24;00:06:07;1.007;0.041;0.149;0.028099799528717995;-0.006108652334660292;0.0012217304902151227
01:00:0A:00:00:00:00;1726531568;17/09/24;00:06:08;1.006;0.04;0.147;0.028099799528717995;-0.00855211354792118;0.0036651913542300463
01:00:0A:00:00:00:00;1726531569;17/09/24;00:06:09;1.006;0.04;0.147;0.028099799528717995;-0.012217304669320583;0.006108652334660292
01:00:0A:00:00:00:00;1726531570;17/09/24;00:06:10;1.008;0.041;0.148;0.028099799528717995;-0.012217304669320583;0.00855211354792118
01:00:0A:00:00:00:00;1726531571;17/09/24;00:06:11;1.007;0.043;0.148;0.02687807008624077;-0.010995574295520782;0.0073303827084600925
01:00:0A:00:00:00:00;1726531572;17/09/24;00:06:12;1.008;0.041;0.148;0.028099799528717995;-0.00855211354792118;0.0036651913542300463
01:00:0A:00:00:00:00;1726531573;17/09/24;00:06:13;1.007;0.041;0.149;0.028099799528717995;-0.00855211354792118;0.0024434609804302454
01:00:0A:00:00:00:00;1726531574;17/09/24;00:06:14;1.006;0.04;0.147;0.028099799528717995;-0.010995574295520782;0.0036651913542300463
01:00:0A:00:00:00:00;1726531575;17/09/24;00:06:15;1.007;0.04;0.147;0.02687807008624077;-0.009773843921720982;0.004886921960860491
01:00:0A:00:00:00:00;1726531576;17/09/24;00:06:16;1.008;0.041;0.149;0.02687807008624077;-0.010995574295520782;0.0073303827084600925
01:00:0A:00:00:00:00;1726531577;17/09/24;00:06:17;1.009;0.04;0.148;0.025656338781118393;-0.010995574295520782;0.00855211354792118
01:00:0A:00:00:00:00;1726531578;17/09/24;00:06:18;1.009;0.043;0.148;0.025656338781118393;-0.0073303827084600925;0.0036651913542300463
01:00:0A:00:00:00:00;1726531579;17/09/24;00:06:19;1.009;0.042;0.15;0.02687807008624077;-0.006108652334660292;0.0
01:00:0A:00:00:00:00;1726531580;17/09/24;00:06:20;1.007;0.04;0.146;0.025656338781118393;-0.009773843921720982;0.0036651913542300463
01:00:0A:00:00:00:00;1726531581;17/09/24;00:06:21;1.005;0.04;0.146;0.025656338781118393;-0.012217304669320583;0.0036651913542300463
01:00:0A:00:00:00:00;1726531582;17/09/24;00:06:22;1.007;0.04;0.15;0.024434609338641167;-0.012217304669320583;0.0073303827084600925
01:00:0A:00:00:00:00;1726531583;17/09/24;00:06:23;1.009;0.041;0.149;0.02321287989616394;-0.009773843921720982;0.0073303827084600925
01:00:0A:00:00:00:00;1726531584;17/09/24;00:06:24;1.009;0.042;0.147;0.02321287989616394;-0.0073303827084600925;0.0036651913542300463
01:00:0A:00:00:00:00;1726531585;17/09/24;00:06:25;1.006;0.042;0.148;0.02321287989616394;-0.009773843921720982;0.0012217304902151227
01:00:0A:00:00:00:00;1726531586;17/09/24;00:06:26;1.009;0.042;0.147;0.02321287989616394;-0.012217304669320583;0.0036651913542300463
01:00:0A:00:00:00:00;1726531587;17/09/24;00:06:27;1.007;0.04;0.146;0.021991148591041565;-0.00855211354792118;0.004886921960860491
01:00:0A:00:00:00:00;1726531588;17/09/24;00:06:28;1.007;0.041;0.148;0.021991148591041565;-0.009773843921720982;0.006108652334660292
01:00:0A:00:00:00:00;1726531589;17/09/24;00:06:29;1.009;0.04;0.148;0.02076941914856434;-0.010995574295520782;0.0073303827084600925
01:00:0A:00:00:00:00;1726531590;17/09/24;00:06:30;1.008;0.041;0.147;0.02076941914856434;-0.00855211354792118;0.0036651913542300463
01:00:0A:00:00:00:00;1726531591;17/09/24;00:06:31;1.008;0.041;0.147;0.021991148591041565;-0.00855211354792118;0.0012217304902151227
01:00:0A:00:00:00:00;1726531592;17/09/24;00:06:32;1.008;0.04;0.147;0.02076941914856434;-0.010995574295520782;0.0036651913542300463
01:00:0A:00:00:00:00;1726531593;17/09/24;00:06:33;1.007;0.04;0.147;0.019547687843441963;-0.010995574295520782;0.004886921960860491
01:00:0A:00:00:00:00;1726531594;17/09/24;00:06:34;1.007;0.041;0.148;0.019547687843441963;-0.010995574295520782;0.006108652334660292
01:00:0A:00:00:00:00;1726531595;17/09/24;00:06:35;1.008;0.041;0.147;0.019547687843441963;-0.010995574295520782;0.006108652334660292
01:00:0A:00:00:00:00;1726531596;17/09/24;00:06:36;1.008;0.04;0.147;0.019547687843441963;-0.00855211354792118;0.0024434609804302454
01:00:0A:00:00:00:00;1726531597;17/09/24;00:06:37;1.007;0.04;0.148;0.019547687843441963;-0.009773843921720982;0.0036651913542300463
01:00:0A:00:00:00:00;1726531598;17/09/24;00:06:38;1.008;0.04;0.148;0.019547687843441963;-0.012217304669320583;0.004886921960860491
01:00:0A:00:00:00:00;1726531599;17/09/24;00:06:39;1.007;0.04;0.148;0.019547687843441963;-0.0073303827084600925;0.0036651913542300463
01:00:0A:00:00:00:00;1726531600;17/09/24;00:06:40;1.007;0.041;0.149;0.019547687843441963;-0.00855211354792118;0.0036651913542300463
01:00:0A:00:00:00:00;1726531601;17/09/24;00:06:41;1.008;0.04;0.147;0.019547687843441963;-0.012217304669320583;0.004886921960860491
01:00:0A:00:00:00:00;1726531602;17/09/24;00:06:42;1.008;0.04;0.147;0.019547687843441963;-0.009773843921720982;0.0024434609804302454
01:00:0A:00:00:00:00;1726531603;17/09/24;00:06:43;1.007;0.041;0.148;0.019547687843441963;-0.00855211354792118;0.0024434609804302454
01:00:0A:00:00:00:00;1726531604;17/09/24;00:06:44;1.007;0.041;0.148;0.018325956538319588;-0.012217304669320583;0.006108652334660292
01:00:0A:00:00:00:00;1726531605;17/09/24;00:06:45;1.008;0.04;0.148;0.018325956538319588;-0.010995574295520782;0.004886921960860491
01:00:0A:00:00:00:00;1726531606;17/09/24;00:06:46;1.01;0.041;0.149;0.018325956538319588;-0.009773843921720982;0.004886921960860491
01:00:0A:00:00:00:00;1726531607;17/09/24;00:06:47;1.009;0.041;0.147;0.018325956538319588;-0.009773843921720982;0.0036651913542300463
01:00:0A:00:00:00:00;1726531608;17/09/24;00:06:48;1.007;0.04;0.146;0.019547687843441963;-0.0073303827084600925;0.0012217304902151227
01:00:0A:00:00:00:00;1726531609;17/09/24;00:06:49;1.006;0.04;0.147;0.018325956538319588;-0.009773843921720982;0.004886921960860491
01:00:0A:00:00:00:00;1726531610;17/09/24;00:06:50;1.008;0.04;0.147;0.018325956538319588;-0.013439035043120384;0.00855211354792118
01:00:0A:00:00:00:00;1726531611;17/09/24;00:06:51;1.008;0.041;0.148;0.019547687843441963;-0.009773843921720982;0.0036651913542300463
01:00:0A:00:00:00:00;1726531612;17/09/24;00:06:52;1.008;0.042;0.148;0.019547687843441963;-0.00855211354792118;0.0024434609804302454
01:00:0A:00:00:00:00;1726531613;17/09/24;00:06:53;1.008;0.04;0.147;0.019547687843441963;-0.010995574295520782;0.004886921960860491
01:00:0A:00:00:00:00;1726531614;17/09/24;00:06:54;1.007;0.04;0.146;0.019547687843441963;-0.00855211354792118;0.0036651913542300463
01:00:0A:00:00:00:00;1726531615;17/09/24;00:06:55;1.006;0.041;0.148;0.019547687843441963;-0.00855211354792118;0.0036651913542300463
01:00:0A:00:00:00:00;1726531616;17/09/24;00:06:56;1.006;0.039;0.147;0.018325956538319588;-0.013439035043120384;0.0073303827084600925
01:00:0A:00:00:00:00;1726531617;17/09/24;00:06:57;1.008;0.04;0.146;0.019547687843441963;-0.012217304669320583;0.004886921960860491
01:00:0A:00:00:00:00;1726531618;17/09/24;00:06:58;1.009;0.042;0.15;0.019547687843441963;-0.009773843921720982;0.0024434609804302454
01:00:0A:00:00:00:00;1726531619;17/09/24;00:06:59;1.009;0.041;0.149;0.018325956538319588;-0.00855211354792118;0.0036651913542300463
01:00:0A:00:00:00:00;1726531620;17/09/24;00:07:00;1.005;0.04;0.148;0.019547687843441963;-0.006108652334660292;0.0036651913542300463
01:00:0A:00:00:00:00;1726531621;17/09/24;00:07:01;1.005;0.041;0.148;0.019547687843441963;-0.009773843921720982;0.004886921960860491
01:00:0A:00:00:00:00;1726531622;17/09/24;00:07:02;1.007;0.04;0.148;0.018325956538319588;-0.014660765416920185;0.0073303827084600925
01:00:0A:00:00:00:00;1726531623;17/09/24;00:07:03;1.008;0.04;0.147;0.019547687843441963;-0.010995574295520782;0.0024434609804302454
01:00:0A:00:00:00:00;1726531624;17/09/24;00:07:04;1.008;0.041;0.149;0.019547687843441963;-0.009773843921720982;0.0024434609804302454
01:00:0A:00:00:00:00;1726531625;17/09/24;00:07:05;1.008;0.04;0.149;0.018325956538319588;-0.009773843921720982;0.004886921960860491
01:00:0A:00:00:00:00;1726531626;17/09/24;00:07:06;1.007;0.04;0.148;0.018325956538319588;-0.0073303827084600925;0.004886921960860491
01:00:0A:00:00:00:00;1726531627;17/09/24;00:07:07;1.008;0.042;0.147;0.019547687843441963;-0.0073303827084600925;0.0024434609804302454
01:00:0A:00:00:00:00;1726531628;17/09/24;00:07:08;1.006;0.04;0.146;0.019547687843441963;-0.014660765416920185;0.004886921960860491
01:00:0A:00:00:00:00;1726531629;17/09/24;00:07:09;1.008;0.039;0.146;0.019547687843441963;-0.013439035043120384;0.0036651913542300463
01:00:0A:00:00:00:00;1726531630;17/09/24;00:07:10;1.008;0.041;0.149;0.019547687843441963;-0.009773843921720982;0.0036651913542300463
01:00:0A:00:00:00:00;1726531631;17/09/24;00:07:11;1.008;0.041;0.148;0.018325956538319588;-0.009773843921720982;0.004886921960860491
01:00:0A:00:00:00:00;1726531632;17/09/24;00:07:12;1.007;0.04;0.146;0.018325956538319588;-0.0073303827084600925;0.0036651913542300463
01:00:0A:00:00:00:00;1726531633;17/09/24;00:07:13;1.006;0.04;0.147;0.018325956538319588;-0.009773843921720982;0.0036651913542300463
01:00:0A:00:00:00:00;1726531634;17/09/24;00:07:14;1.008;0.041;0.147;0.019547687843441963;-0.013439035043120384;0.004886921960860491
01:00:0A:00:00:00:00;1726531635;17/09/24;00:07:15;1.007;0.04;0.147;0.019547687843441963;-0.010995574295520782;0.0024434609804302454
01:00:0A:00:00:00:00;1726531636;17/09/24;00:07:16;1.008;0.04;0.149;0.018325956538319588;-0.00855211354792118;0.0036651913542300463
01:00:0A:00:00:00:00;1726531637;17/09/24;00:07:17;1.008;0.04;0.149;0.018325956538319588;-0.010995574295520782;0.006108652334660292
01:00:0A:00:00:00:00;1726531638;17/09/24;00:07:18;1.009;0.04;0.147;0.019547687843441963;-0.00855211354792118;0.0036651913542300463
01:00:0A:00:00:00:00;1726531639;17/09/24;00:07:19;1.007;0.042;0.148;0.018325956538319588;-0.00855211354792118;0.0024434609804302454
01:00:0A:00:00:00:00;1726531640;17/09/24;00:07:20;1.006;0.04;0.146;0.018325956538319588;-0.013439035043120384;0.004886921960860491
01:00:0A:00:00:00:00;1726531641;17/09/24;00:07:21;1.007;0.039;0.148;0.019547687843441963;-0.013439035043120384;0.004886921960860491
01:00:0A:00:00:00:00;1726531642;17/09/24;00:07:22;1.007;0.041;0.15;0.018325956538319588;-0.010995574295520782;0.004886921960860491
01:00:0A:00:00:00:00;1726531643;17/09/24;00:07:23;1.009;0.041;0.149;0.018325956538319588;-0.009773843921720982;0.006108652334660292
01:00:0A:00:00:00:00;1726531644;17/09/24;00:07:24;1.008;0.04;0.147;0.018325956538319588;-0.0073303827084600925;0.0024434609804302454
01:00:0A:00:00:00:00;1726531645;17/09/24;00:07:25;1.007;0.042;0.148;0.018325956538319588;-0.009773843921720982;0.0024434609804302454
01:00:0A:00:00:00:00;1726531646;17/09/24;00:07:26;1.007;0.04;0.148;0.018325956538319588;-0.012217304669320583;0.006108652334660292
01:00:0A:00:00:00:00;1726531647;17/09/24;00:07:27;1.008;0.041;0.146;0.019547687843441963;-0.010995574295520782;0.0024434609804302454
01:00:0A:00:00:00:00;1726531648;17/09/24;00:07:28;1.007;0.041;0.148;0.018325956538319588;-0.009773843921720982;0.0036651913542300463
01:00:0A:00:00:00:00;1726531649;17/09/24;00:07:29;1.007;0.039;0.148;0.01710422709584236;-0.010995574295520782;0.0073303827084600925
01:00:0A:00:00:00:00;1726531650;17/09/24;00:07:30;1.008;0.04;0.147;0.019547687843441963;-0.009773843921720982;0.0024434609804302454
01:00:0A:00:00:00:00;1726531651;17/09/24;00:07:31;1.006;0.042;0.147;0.018325956538319588;-0.00855211354792118;0.0024434609804302454
01:00:0A:00:00:00:00;1726531652;17/09/24;00:07:32;1.007;0.04;0.148;0.018325956538319588;-0.013439035043120384;0.006108652334660292
01:00:0A:00:00:00:00;1726531653;17/09/24;00:07:33;1.007;0.04;0.148;0.018325956538319588;-0.010995574295520782;0.0036651913542300463
01:00:0A:00:00:00:00;1726531654;17/09/24;00:07:34;1.008;0.041;0.148;0.018325956538319588;-0.00855211354792118;0.0036651913542300463
01:00:0A:00:00:00:00;1726531655;17/09/24;00:07:35;1.009;0.041;0.148;0.018325956538319588;-0.010995574295520782;0.0036651913542300463
01:00:0A:00:00:00:00;1726531656;17/09/24;00:07:36;1.008;0.04;0.147;0.018325956538319588;-0.00855211354792118;0.0024434609804302454
01:00:0A:00:00:00:00;1726531657;17/09/24;00:07:37;1.007;0.04;0.148;0.018325956538319588;-0.010995574295520782;0.004886921960860491
01:00:0A:00:00:00:00;1726531658;17/09/24;00:07:38;1.008;0.04;0.148;0.018325956538319588;-0.012217304669320583;0.006108652334660292
01:00:0A:00:00:00:00;1726531659;17/09/24;00:07:39;1.008;0.04;0.148;0.018325956538319588;-0.009773843921720982;0.0036651913542300463
01:00:0A:00:00:00:00;1726531660;17/09/24;00:07:40;1.008;0.041;0.149;0.018325956538319588;-0.00855211354792118;0.0036651913542300463
01:00:0A:00:00:00:00;1726531661;17/09/24;00:07:41;1.007;0.04;0.148;0.01710422709584236;-0.010995574295520782;0.006108652334660292
01:00:0A:00:00:00:00;1726531662;17/09/24;00:07:42;1.007;0.04;0.147;0.018325956538319588;-0.009773843921720982;0.0036651913542300463
01:00:0A:00:00:00:00;1726531663;17/09/24;00:07:43;1.007;0.04;0.148;0.018325956538319588;-0.009773843921720982;0.0036651913542300463
01:00:0A:00:00:00:00;1726531664;17/09/24;00:07:44;1.007;0.041;0.149;0.018325956538319588;-0.012217304669320583;0.006108652334660292
01:00:0A:00:00:00:00;1726531665;17/09/24;00:07:45;1.007;0.04;0.148;0.018325956538319588;-0.009773843921720982;0.0024434609804302454
01:00:0A:00:00:00:00;1726531666;17/09/24;00:07:46;1.007;0.042;0.149;0.01710422709584236;-0.00855211354792118;0.0036651913542300463
01:00:0A:00:00:00:00;1726531667;17/09/24;00:07:47;1.008;0.04;0.148;0.018325956538319588;-0.010995574295520782;0.004886921960860491
01:00:0A:00:00:00:00;1726531668;17/09/24;00:07:48;1.008;0.039;0.146;0.018325956538319588;-0.010995574295520782;0.0024434609804302454
01:00:0A:00:00:00:00;1726531669;17/09/24;00:07:49;1.007;0.041;0.148;0.01710422709584236;-0.010995574295520782;0.004886921960860491
01:00:0A:00:00:00:00;1726531670;17/09/24;00:07:50;1.009;0.04;0.148;0.01710422709584236;-0.012217304669320583;0.006108652334660292
01:00:0A:00:00:00:00;1726531671;17/09/24;00:07:51;1.008;0.04;0.147;0.018325956538319588;-0.009773843921720982;0.0012217304902151227
01:00:0A:00:00:00:00;1726531672;17/09/24;00:07:52;1.007;0.041;0.148;0.01710422709584236;-0.00855211354792118;0.0036651913542300463
01:00:0A:00:00:00:00;1726531673;17/09/24;00:07:53;1.006;0.04;0.148;0.01710422709584236;-0.010995574295520782;0.0073303827084600925
01:00:0A:00:00:00:00;1726531674;17/09/24;00:07:54;1.009;0.041;0.146;0.018325956538319588;-0.010995574295520782;0.0024434609804302454
01:00:0A:00:00:00:00;1726531675;17/09/24;00:07:55;1.008;0.042;0.148;0.018325956538319588;-0.009773843921720982;0.0024434609804302454
01:00:0A:00:00:00:00;1726531676;17/09/24;00:07:56;1.007;0.04;0.148;0.01710422709584236;-0.012217304669320583;0.004886921960860491
01:00:0A:00:00:00:00;1726531677;17/09/24;00:07:57;1.007;0.04;0.147;0.018325956538319588;-0.009773843921720982;0.0024434609804302454
01:00:0A:00:00:00:00;1726531678;17/09/24;00:07:58;1.007;0.041;0.149;0.01710422709584236;-0.00855211354792118;0.0036651913542300463
01:00:0A:00:00:00:00;1726531679;17/09/24;00:07:59;1.009;0.04;0.148;0.01710422709584236;-0.010995574295520782;0.006108652334660292
01:00:0A:00:00:00:00;1726531680;17/09/24;00:08:00;1.008;0.04;0.146;0.018325956538319588;-0.009773843921720982;0.0024434609804302454
01:00:0A:00:00:00:00;1726531681;17/09/24;00:08:01;1.007;0.041;0.147;0.01710422709584236;-0.009773843921720982;0.0036651913542300463
01:00:0A:00:00:00:00;1726531682;17/09/24;00:08:02;1.008;0.04;0.148;0.01710422709584236;-0.012217304669320583;0.004886921960860491
01:00:0A:00:00:00:00;1726531683;17/09/24;00:08:03;1.007;0.04;0.147;0.018325956538319588;-0.009773843921720982;0.0024434609804302454
01:00:0A:00:00:00:00;1726531684;17/09/24;00:08:04;1.007;0.04;0.148;0.015882495790719986;-0.00855211354792118;0.004886921960860491
01:00:0A:00:00:00:00;1726531685;17/09/24;00:08:05;1.008;0.04;0.147;0.015882495790719986;-0.012217304669320583;0.00855211354792118
01:00:0A:00:00:00:00;1726531686;17/09/24;00:08:06;1.009;0.041;0.147;0.01710422709584236;-0.009773843921720982;0.0024434609804302454
01:00:0A:00:00:00:00;1726531687;17/09/24;00:08:07;1.007;0.042;0.148;0.01710422709584236;-0.00855211354792118;0.0
01:00:0A:00:00:00:00;1726531688;17/09/24;00:08:08;1.006;0.04;0.148;0.015882495790719986;-0.012217304669320583;0.004886921960860491
01:00:0A:00:00:00:00;1726531689;17/09/24;00:08:09;1.006;0.04;0.147;0.01710422709584236;-0.010995574295520782;0.0036651913542300463
01:00:0A:00:00:00:00;1726531690;17/09/24;00:08:10;1.008;0.042;0.148;0.015882495790719986;-0.009773843921720982;0.004886921960860491
01:00:0A:00:00:00:00;1726531691;17/09/24;00:08:11;1.009;0.04;0.148;0.015882495790719986;-0.010995574295520782;0.006108652334660292
01:00:0A:00:00:00:00;1726531692;17/09/24;00:08:12;1.009;0.04;0.146;0.01710422709584236;-0.009773843921720982;0.0012217304902151227
01:00:0A:00:00:00:00;1726531693;17/09/24;00:08:13;1.008;0.042;0.148;0.015882495790719986;-0.009773843921720982;0.0024434609804302454
01:00:0A:00:00:00:00;1726531694;17/09/24;00:08:14;1.006;0.041;0.147;0.015882495790719986;-0.012217304669320583;0.004886921960860491
01:00:0A:00:00:00:00;1726531695;17/09/24;00:08:15;1.007;0.04;0.147;0.01710422709584236;-0.010995574295520782;0.0036651913542300463
01:00:0A:00:00:00:00;1726531696;17/09/24;00:08:16;1.007;0.041;0.148;0.014660765416920185;-0.009773843921720982;0.004886921960860491
01:00:0A:00:00:00:00;1726531697;17/09/24;00:08:17;1.008;0.04;0.148;0.014660765416920185;-0.012217304669320583;0.006108652334660292
01:00:0A:00:00:00:00;1726531698;17/09/24;00:08:18;1.008;0.041;0.147;0.015882495790719986;-0.009773843921720982;0.0012217304902151227
01:00:0A:00:00:00:00;1726531699;17/09/24;00:08:19;1.007;0.041;0.147;0.014660765416920185;-0.00855211354792118;0.0012217304902151227
01:00:0A:00:00:00:00;1726531700;17/09/24;00:08:20;1.006;0.04;0.147;0.014660765416920185;-0.012217304669320583;0.004886921960860491
01:00:0A:00:00:00:00;1726531701;17/09/24;00:08:21;1.006;0.04;0.147;0.015882495790719986;-0.010995574295520782;0.0036651913542300463
01:00:0A:00:00:00:00;1726531702;17/09/24;00:08:22;1.008;0.042;0.148;0.013439035043120384;-0.009773843921720982;0.0036651913542300463
01:00:0A:00:00:00:00;1726531703;17/09/24;00:08:23;1.009;0.04;0.148;0.014660765416920185;-0.010995574295520782;0.0036651913542300463
01:00:0A:00:00:00:00;1726531704;17/09/24;00:08:24;1.007;0.04;0.147;0.015882495790719986;-0.009773843921720982;0.0
01:00:0A:00:00:00:00;1726531705;17/09/24;00:08:25;1.008;0.041;0.148;0.013439035043120384;-0.009773843921720982;0.0036651913542300463
01:00:0A:00:00:00:00;1726531706;17/09/24;00:08:26;1.008;0.04;0.148;0.013439035043120384;-0.012217304669320583;0.006108652334660292
01:00:0A:00:00:00:00;1726531707;17/09/24;00:08:27;1.007;0.04;0.147;0.014660765416920185;-0.009773843921720982;0.0012217304902151227
01:00:0A:00:00:00:00;1726531708;17/09/24;00:08:28;1.007;0.041;0.148;0.013439035043120384;-0.00855211354792118;0.0024434609804302454
01:00:0A:00:00:00:00;1726531709;17/09/24;00:08:29;1.008;0.04;0.148;0.013439035043120384;-0.012217304669320583;0.006108652334660292
01:00:0A:00:00:00:00;1726531710;17/09/24;00:08:30;1.008;0.04;0.147;0.014660765416920185;-0.009773843921720982;0.0012217304902151227
01:00:0A:00:00:00:00;1726531711;17/09/24;00:08:31;1.008;0.042;0.149;0.013439035043120384;-0.00855211354792118;0.0024434609804302454
01:00:0A:00:00:00:00;1726531712;17/09/24;00:08:32;1.007;0.04;0.148;0.013439035043120384;-0.012217304669320583;0.006108652334660292
01:00:0A:00:00:00:00;1726531713;17/09/24;00:08:33;1.008;0.041;0.147;0.014660765416920185;-0.009773843921720982;0.0024434609804302454
01:00:0A:00:00:00:00;1726531714;17/09/24;00:08:34;1.008;0.043;0.148;0.013439035043120384;-0.009773843921720982;0.0024434609804302454
01:00:0A:00:00:00:00;1726531715;17/09/24;00:08:35;1.008;0.04;0.148;0.013439035043120384;-0.012217304669320583;0.0036651913542300463
01:00:0A:00:00:00:00;1726531716;17/09/24;00:08:36;1.007;0.04;0.147;0.014660765416920185;-0.010995574295520782;0.0024434609804302454
01:00:0A:00:00:00:00;1726531717;17/09/24;00:08:37;1.007;0.042;0.148;0.012217304669320583;-0.009773843921720982;0.0036651913542300463
01:00:0A:00:00:00:00;1726531718;17/09/24;00:08:38;1.007;0.04;0.15;0.013439035043120384;-0.012217304669320583;0.006108652334660292
01:00:0A:00:00:00:00;1726531719;17/09/24;00:08:39;1.007;0.04;0.147;0.014660765416920185;-0.010995574295520782;0.0012217304902151227
01:00:0A:00:00:00:00;1726531720;17/09/24;00:08:40;1.007;0.041;0.148;0.013439035043120384;-0.00855211354792118;0.0024434609804302454
01:00:0A:00:00:00:00;1726531721;17/09/24;00:08:41;1.007;0.04;0.148;0.012217304669320583;-0.012217304669320583;0.006108652334660292
01:00:0A:00:00:00:00;1726531722;17/09/24;00:08:42;1.006;0.041;0.146;0.013439035043120384;-0.010995574295520782;0.0012217304902151227
01:00:0A:00:00:00:00;1726531723;17/09/24;00:08:43;1.008;0.04;0.148;0.012217304669320583;-0.009773843921720982;0.0024434609804302454
01:00:0A:00:00:00:00;1726531724;17/09/24;00:08:44;1.007;0.04;0.148;0.013439035043120384;-0.012217304669320583;0.004886921960860491
01:00:0A:00:00:00:00;1726531725;17/09/24;00:08:45;1.007;0.04;0.148;0.013439035043120384;-0.010995574295520782;0.0024434609804302454
01:00:0A:00:00:00:00;1726531726;17/09/24;00:08:46;1.008;0.042;0.149;0.012217304669320583;-0.00855211354792118;0.0036651913542300463
01:00:0A:00:00:00:00;1726531727;17/09/24;00:08:47;1.008;0.039;0.148;0.012217304669320583;-0.012217304669320583;0.0036651913542300463
01:00:0A:00:00:00:00;1726531728;17/09/24;00:08:48;1.008;0.04;0.147;0.013439035043120384;-0.009773843921720982;0.0024434609804302454
01:00:0A:00:00:00:00;1726531729;17/09/24;00:08:49;1.007;0.042;0.148;0.012217304669320583;-0.009773843921720982;0.0036651913542300463
01:00:0A:00:00:00:00;1726531730;17/09/24;00:08:50;1.007;0.041;0.148;0.012217304669320583;-0.012217304669320583;0.004886921960860491
01:00:0A:00:00:00:00;1726531731;17/09/24;00:08:51;1.009;0.04;0.146;0.014660765416920185;-0.010995574295520782;0.0012217304902151227
01:00:0A:00:00:00:00;1726531732;17/09/24;00:08:52;1.009;0.041;0.147;0.012217304669320583;-0.00855211354792118;0.0036651913542300463
01:00:0A:00:00:00:00;1726531733;17/09/24;00:08:53;1.008;0.04;0.148;0.012217304669320583;-0.010995574295520782;0.006108652334660292
01:00:0A:00:00:00:00;1726531734;17/09/24;00:08:54;1.008;0.04;0.146;0.013439035043120384;-0.009773843921720982;0.0
01:00:0A:00:00:00:00;1726531735;17/09/24;00:08:55;1.007;0.041;0.148;0.012217304669320583;-0.009773843921720982;0.0024434609804302454
01:00:0A:00:00:00:00;1726531736;17/09/24;00:08:56;1.006;0.04;0.148;0.012217304669320583;-0.013439035043120384;0.004886921960860491
01:00:0A:00:00:00:00;1726531737;17/09/24;00:08:57;1.008;0.04;0.146;0.013439035043120384;-0.010995574295520782;0.0036651913542300463
01:00:0A:00:00:00:00;1726531738;17/09/24;00:08:58;1.009;0.042;0.149;0.012217304669320583;-0.00855211354792118;0.0024434609804302454
01:00:0A:00:00:00:00;1726531739;17/09/24;00:08:59;1.008;0.04;0.148;0.012217304669320583;-0.010995574295520782;0.0036651913542300463
01:00:0A:00:00:00:00;1726531740;17/09/24;00:09:00;1.008;0.041;0.148;0.013439035043120384;-0.009773843921720982;0.0
01:00:0A:00:00:00:00;1726531741;17/09/24;00:09:01;1.006;0.042;0.148;0.012217304669320583;-0.00855211354792118;0.0024434609804302454
01:00:0A:00:00:00:00;1726531742;17/09/24;00:09:02;1.008;0.04;0.147;0.010995574295520782;-0.013439035043120384;0.006108652334660292
01:00:0A:00:00:00:00;1726531743;17/09/24;00:09:03;1.009;0.04;0.147;0.013439035043120384;-0.010995574295520782;0.0012217304902151227
01:00:0A:00:00:00:00;1726531744;17/09/24;00:09:04;1.007;0.042;0.148;0.010995574295520782;-0.00855211354792118;0.0024434609804302454
01:00:0A:00:00:00:00;1726531745;17/09/24;00:09:05;1.007;0.04;0.147;0.012217304669320583;-0.010995574295520782;0.004886921960860491
01:00:0A:00:00:00:00;1726531746;17/09/24;00:09:06;1.007;0.04;0.147;0.013439035043120384;-0.009773843921720982;0.0
01:00:0A:00:00:00:00;1726531747;17/09/24;00:09:07;1.006;0.04;0.148;0.012217304669320583;-0.009773843921720982;0.0024434609804302454
01:00:0A:00:00:00:00;1726531748;17/09/24;00:09:08;1.007;0.04;0.149;0.010995574295520782;-0.013439035043120384;0.006108652334660292
01:00:0A:00:00:00:00;1726531749;17/09/24;00:09:09;1.009;0.04;0.147;0.013439035043120384;-0.010995574295520782;0.0036651913542300463
01:00:0A:00:00:00:00;1726531750;17/09/24;00:09:10;1.01;0.043;0.148;0.012217304669320583;-0.00855211354792118;0.0024434609804302454
01:00:0A:00:00:00:00;1726531751;17/09/24;00:09:11;1.007;0.04;0.148;0.012217304669320583;-0.010995574295520782;0.0024434609804302454
01:00:0A:00:00:00:00;1726531752;17/09/24;00:09:12;1.007;0.04;0.148;0.013439035043120384;-0.009773843921720982;0.0012217304902151227
01:00:0A:00:00:00:00;1726531753;17/09/24;00:09:13;1.006;0.042;0.148;0.012217304669320583;-0.009773843921720982;0.0036651913542300463
01:00:0A:00:00:00:00;1726531754;17/09/24;00:09:14;1.007;0.039;0.147;0.012217304669320583;-0.013439035043120384;0.006108652334660292
01:00:0A:00:00:00:00;1726531755;17/09/24;00:09:15;1.009;0.04;0.147;0.014660765416920185;-0.012217304669320583;0.0012217304902151227
01:00:0A:00:00:00:00;1726531756;17/09/24;00:09:16;1.008;0.041;0.149;0.012217304669320583;-0.00855211354792118;0.0012217304902151227
01:00:0A:00:00:00:00;1726531757;17/09/24;00:09:17;1.007;0.04;0.149;0.012217304669320583;-0.010995574295520782;0.004886921960860491
01:00:0A:00:00:00:00;1726531758;17/09/24;00:09:18;1.008;0.04;0.147;0.014660765416920185;-0.010995574295520782;0.0012217304902151227
01:00:0A:00:00:00:00;1726531759;17/09/24;00:09:19;1.007;0.042;0.147;0.012217304669320583;-0.009773843921720982;0.0036651913542300463
01:00:0A:00:00:00:00;1726531760;17/09/24;00:09:20;1.006;0.04;0.149;0.012217304669320583;-0.012217304669320583;0.006108652334660292
01:00:0A:00:00:00:00;1726531761;17/09/24;00:09:21;1.008;0.04;0.147;0.014660765416920185;-0.010995574295520782;0.0024434609804302454
01:00:0A:00:00:00:00;1726531762;17/09/24;00:09:22;1.008;0.042;0.148;0.013439035043120384;-0.00855211354792118;0.0024434609804302454
01:00:0A:00:00:00:00;1726531763;17/09/24;00:09:23;1.007;0.04;0.148;0.013439035043120384;-0.010995574295520782;0.0036651913542300463
01:00:0A:00:00:00:00;1726531764;17/09/24;00:09:24;1.007;0.04;0.148;0.014660765416920185;-0.010995574295520782;0.0024434609804302454
01:00:0A:00:00:00:00;1726531765;17/09/24;00:09:25;1.006;0.041;0.149;0.013439035043120384;-0.00855211354792118;0.004886921960860491
01:00:0A:00:00:00:00;1726531766;17/09/24;00:09:26;1.008;0.041;0.147;0.013439035043120384;-0.012217304669320583;0.006108652334660292
01:00:0A:00:00:00:00;1726531767;17/09/24;00:09:27;1.008;0.04;0.147;0.015882495790719986;-0.012217304669320583;0.0
01:00:0A:00:00:00:00;1726531768;17/09/24;00:09:28;1.008;0.041;0.148;0.013439035043120384;-0.00855211354792118;0.0024434609804302454
01:00:0A:00:00:00:00;1726531769;17/09/24;00:09:29;1.007;0.04;0.149;0.013439035043120384;-0.009773843921720982;0.006108652334660292
01:00:0A:00:00:00:00;1726531770;17/09/24;00:09:30;1.007;0.04;0.146;0.015882495790719986;-0.010995574295520782;0.0012217304902151227
01:00:0A:00:00:00:00;1726531771;17/09/24;00:09:31;1.007;0.042;0.147;0.013439035043120384;-0.009773843921720982;0.0024434609804302454
01:00:0A:00:00:00:00;1726531772;17/09/24;00:09:32;1.008;0.04;0.148;0.013439035043120384;-0.012217304669320583;0.004886921960860491
01:00:0A:00:00:00:00;1726531773;17/09/24;00:09:33;1.009;0.04;0.147;0.015882495790719986;-0.010995574295520782;0.0012217304902151227
01:00:0A:00:00:00:00;1726531774;17/09/24;00:09:34;1.008;0.042;0.148;0.014660765416920185;-0.00855211354792118;0.0024434609804302454
01:00:0A:00:00:00:00;1726531775;17/09/24;00:09:35;1.008;0.04;0.148;0.013439035043120384;-0.010995574295520782;0.004886921960860491
01:00:0A:00:00:00:00;1726531776;17/09/24;00:09:36;1.008;0.04;0.147;0.015882495790719986;-0.012217304669320583;0.0024434609804302454
01:00:0A:00:00:00:00;1726531777;17/09/24;00:09:37;1.008;0.041;0.147;0.014660765416920185;-0.009773843921720982;0.0036651913542300463
01:00:0A:00:00:00:00;1726531778;17/09/24;00:09:38;1.008;0.04;0.149;0.013439035043120384;-0.010995574295520782;0.004886921960860491
01:00:0A:00:00:00:00;1726531779;17/09/24;00:09:39;1.007;0.04;0.146;0.01710422709584236;-0.010995574295520782;0.0012217304902151227
01:00:0A:00:00:00:00;1726531780;17/09/24;00:09:40;1.008;0.041;0.147;0.014660765416920185;-0.00855211354792118;0.0024434609804302454
01:00:0A:00:00:00:00;1726531781;17/09/24;00:09:41;1.006;0.04;0.148;0.014660765416920185;-0.009773843921720982;0.006108652334660292
01:00:0A:00:00:00:00;1726531782;17/09/24;00:09:42;1.007;0.04;0.147;0.01710422709584236;-0.012217304669320583;0.0024434609804302454
01:00:0A:00:00:00:00;1726531783;17/09/24;00:09:43;1.008;0.041;0.148;0.014660765416920185;-0.009773843921720982;0.0024434609804302454
01:00:0A:00:00:00:00;1726531784;17/09/24;00:09:44;1.008;0.039;0.149;0.014660765416920185;-0.010995574295520782;0.004886921960860491
01:00:0A:00:00:00:00;1726531785;17/09/24;00:09:45;1.008;0.04;0.148;0.01710422709584236;-0.009773843921720982;0.0024434609804302454
01:00:0A:00:00:00:00;1726531786;17/09/24;00:09:46;1.008;0.042;0.148;0.014660765416920185;-0.00855211354792118;0.0024434609804302454
01:00:0A:00:00:00:00;1726531787;17/09/24;00:09:47;1.007;0.04;0.148;0.014660765416920185;-0.010995574295520782;0.004886921960860491
01:00:0A:00:00:00:00;1726531788;17/09/24;00:09:48;1.007;0.04;0.147;0.01710422709584236;-0.012217304669320583;0.0036651913542300463
01:00:0A:00:00:00:00;1726531789;17/09/24;00:09:49;1.008;0.042;0.147;0.014660765416920185;-0.009773843921720982;0.0036651913542300463
01:00:0A:00:00:00:00;1726531790;17/09/24;00:09:50;1.008;0.04;0.148;0.014660765416920185;-0.010995574295520782;0.004886921960860491
01:00:0A:00:00:00:00;1726531791;17/09/24;00:09:51;1.008;0.04;0.147;0.01710422709584236;-0.010995574295520782;0.0012217304902151227
01:00:0A:00:00:00:00;1726531792;17/09/24;00:09:52;1.008;0.041;0.146;0.015882495790719986;-0.00855211354792118;0.0036651913542300463
01:00:0A:00:00:00:00;1726531793;17/09/24;00:09:53;1.006;0.04;0.148;0.014660765416920185;-0.009773843921720982;0.004886921960860491
01:00:0A:00:00:00:00;1726531794;17/09/24;00:09:54;1.007;0.04;0.148;0.01710422709584236;-0.013439035043120384;0.0024434609804302454
01:00:0A:00:00:00:00;1726531795;17/09/24;00:09:55;1.008;0.041;0.148;0.015882495790719986;-0.010995574295520782;0.0036651913542300463
01:00:0A:00:00:00:00;1726531796;17/09/24;00:09:56;1.008;0.04;0.149;0.014660765416920185;-0.009773843921720982;0.004886921960860491
01:00:0A:00:00:00:00;1726531797;17/09/24;00:09:57;1.008;0.04;0.148;0.01710422709584236;-0.009773843921720982;0.0024434609804302454
01:00:0A:00:00:00:00;1726531798;17/09/24;00:09:58;1.007;0.04;0.147;0.015882495790719986;-0.00855211354792118;0.0024434609804302454
01:00:0A:00:00:00:00;1726531799;17/09/24;00:09:59;1.006;0.04;0.148;0.015882495790719986;-0.010995574295520782;0.004886921960860491
01:00:0A:00:00:00:00;1726531800;17/09/24;00:10:00;1.008;0.04;0.147;0.018325956538319588;-0.012217304669320583;0.0024434609804302454
01:00:0A:00:00:00:00;1726531801;17/09/24;00:10:01;1.008;0.041;0.148;0.015882495790719986;-0.009773843921720982;0.004886921960860491
01:00:0A:00:00:00:00;1726531802;17/09/24;00:10:02;1.008;0.04;0.148;0.014660765416920185;-0.009773843921720982;0.004886921960860491
01:00:0A:00:00:00:00;1726531803;17/09/24;00:10:03;1.008;0.04;0.148;0.018325956538319588;-0.010995574295520782;0.0012217304902151227
01:00:0A:00:00:00:00;1726531804;17/09/24;00:10:04;1.008;0.041;0.147;0.015882495790719986;-0.00855211354792118;0.0024434609804302454
01:00:0A:00:00:00:00;1726531805;17/09/24;00:10:05;1.008;0.04;0.148;0.014660765416920185;-0.009773843921720982;0.006108652334660292
01:00:0A:00:00:00:00;1726531806;17/09/24;00:10:06;1.007;0.04;0.148;0.018325956538319588;-0.012217304669320583;0.0036651913542300463
01:00:0A:00:00:00:00;1726531807;17/09/24;00:10:07;1.008;0.041;0.146;0.01710422709584236;-0.010995574295520782;0.0036651913542300463
01:00:0A:00:00:00:00;1726531808;17/09/24;00:10:08;1.008;0.041;0.148;0.014660765416920185;-0.00855211354792118;0.006108652334660292
01:00:0A:00:00:00:00;1726531809;17/09/24;00:10:09;1.008;0.041;0.147;0.018325956538319588;-0.009773843921720982;0.0024434609804302454
01:00:0A:00:00:00:00;1726531810;17/09/24;00:10:10;1.008;0.041;0.147;0.01710422709584236;-0.009773843921720982;0.0024434609804302454
01:00:0A:00:00:00:00;1726531811;17/09/24;00:10:11;1.008;0.04;0.149;0.015882495790719986;-0.010995574295520782;0.004886921960860491
01:00:0A:00:00:00:00;1726531812;17/09/24;00:10:12;1.008;0.04;0.149;0.018325956538319588;-0.012217304669320583;0.0036651913542300463
01:00:0A:00:00:00:00;1726531813;17/09/24;00:10:13;1.008;0.042;0.147;0.01710422709584236;-0.009773843921720982;0.0036651913542300463
01:00:0A:00:00:00:00;1726531814;17/09/24;00:10:14;1.009;0.04;0.148;0.015882495790719986;-0.009773843921720982;0.004886921960860491
01:00:0A:00:00:00:00;1726531815;17/09/24;00:10:15;1.008;0.041;0.148;0.018325956538319588;-0.010995574295520782;0.0012217304902151227
01:00:0A:00:00:00:00;1726531816;17/09/24;00:10:16;1.008;0.042;0.146;0.01710422709584236;-0.009773843921720982;0.0024434609804302454
01:00:0A:00:00:00:00;1726531817;17/09/24;00:10:17;1.007;0.041;0.148;0.015882495790719986;-0.009773843921720982;0.006108652334660292
01:00:0A:00:00:00:00;1726531818;17/09/24;00:10:18;1.008;0.04;0.147;0.018325956538319588;-0.012217304669320583;0.0036651913542300463
01:00:0A:00:00:00:00;1726531819;17/09/24;00:10:19;1.008;0.041;0.146;0.01710422709584236;-0.010995574295520782;0.0036651913542300463
01:00:0A:00:00:00:00;1726531820;17/09/24;00:10:20;1.008;0.039;0.148;0.02321287989616394;-0.00855211354792118;0.0073303827084600925
01:00:0A:00:00:00:00;1726531821;17/09/24;00:10:21;1.008;0.039;0.148;0.036651913076639175;-0.010995574295520782;0.004886921960860491
01:00:0A:00:00:00:00;1726531822;17/09/24;00:10:22;1.007;0.04;0.145;0.045204028487205505;-0.00855211354792118;0.004886921960860491
01:00:0A:00:00:00:00;1726531823;17/09/24;00:10:23;1.008;0.041;0.147;0.036651913076639175;-0.0073303827084600925;0.006108652334660292
01:00:0A:00:00:00:00;1726531824;17/09/24;00:10:24;1.007;0.042;0.149;0.0354301817715168;-0.00855211354792118;0.006108652334660292
01:00:0A:00:00:00:00;1726531825;17/09/24;00:10:25;1.007;0.042;0.148;0.03420845419168472;-0.010995574295520782;0.00855211354792118
01:00:0A:00:00:00:00;1726531826;17/09/24;00:10:26;1.008;0.04;0.145;0.03298672288656235;-0.009773843921720982;0.006108652334660292
01:00:0A:00:00:00:00;1726531827;17/09/24;00:10:27;1.008;0.041;0.148;0.0354301817715168;-0.0073303827084600925;0.0024434609804302454
01:00:0A:00:00:00:00;1726531828;17/09/24;00:10:28;1.007;0.041;0.149;0.03298672288656235;-0.009773843921720982;0.0073303827084600925
01:00:0A:00:00:00:00;1726531829;17/09/24;00:10:29;1.008;0.04;0.147;0.03176499158143997;-0.009773843921720982;0.00855211354792118
01:00:0A:00:00:00:00;1726531830;17/09/24;00:10:30;1.008;0.041;0.148;0.03420845419168472;-0.00855211354792118;0.0036651913542300463
01:00:0A:00:00:00:00;1726531831;17/09/24;00:10:31;1.008;0.042;0.148;0.03176499158143997;-0.010995574295520782;0.006108652334660292
01:00:0A:00:00:00:00;1726531832;17/09/24;00:10:32;1.008;0.04;0.148;0.02932153083384037;-0.009773843921720982;0.0073303827084600925
01:00:0A:00:00:00:00;1726531833;17/09/24;00:10:33;1.009;0.04;0.147;0.03176499158143997;-0.00855211354792118;0.0036651913542300463
01:00:0A:00:00:00:00;1726531834;17/09/24;00:10:34;1.007;0.041;0.147;0.03176499158143997;-0.00855211354792118;0.004886921960860491
01:00:0A:00:00:00:00;1726531835;17/09/24;00:10:35;1.009;0.04;0.147;0.02932153083384037;-0.010995574295520782;0.00855211354792118
01:00:0A:00:00:00:00;1726531836;17/09/24;00:10:36;1.007;0.04;0.148;0.030543262138962746;-0.010995574295520782;0.004886921960860491
01:00:0A:00:00:00:00;1726531837;17/09/24;00:10:37;1.007;0.042;0.148;0.030543262138962746;-0.00855211354792118;0.0036651913542300463
01:00:0A:00:00:00:00;1726531838;17/09/24;00:10:38;1.007;0.04;0.148;0.028099799528717995;-0.009773843921720982;0.0073303827084600925
01:00:0A:00:00:00:00;1726531839;17/09/24;00:10:39;1.007;0.04;0.147;0.02932153083384037;-0.010995574295520782;0.004886921960860491
01:00:0A:00:00:00:00;1726531840;17/09/24;00:10:40;1.007;0.041;0.147;0.02932153083384037;-0.00855211354792118;0.0036651913542300463
01:00:0A:00:00:00:00;1726531841;17/09/24;00:10:41;1.007;0.041;0.148;0.02687807008624077;-0.009773843921720982;0.0073303827084600925
01:00:0A:00:00:00:00;1726531842;17/09/24;00:10:42;1.008;0.04;0.148;0.028099799528717995;-0.012217304669320583;0.006108652334660292
01:00:0A:00:00:00:00;1726531843;17/09/24;00:10:43;1.009;0.041;0.148;0.02932153083384037;-0.009773843921720982;0.0036651913542300463
01:00:0A:00:00:00:00;1726531844;17/09/24;00:10:44;1.007;0.041;0.148;0.025656338781118393;-0.0073303827084600925;0.006108652334660292
01:00:0A:00:00:00:00;1726531845;17/09/24;00:10:45;1.007;0.041;0.147;0.02687807008624077;-0.009773843921720982;0.004886921960860491
01:00:0A:00:00:00:00;1726531846;17/09/24;00:10:46;1.008;0.041;0.145;0.02687807008624077;-0.010995574295520782;0.004886921960860491
01:00:0A:00:00:00:00;1726531847;17/09/24;00:10:47;1.007;0.042;0.148;0.025656338781118393;-0.009773843921720982;0.006108652334660292
01:00:0A:00:00:00:00;1726531848;17/09/24;00:10:48;1.01;0.041;0.148;0.025656338781118393;-0.010995574295520782;0.004886921960860491
01:00:0A:00:00:00:00;1726531849;17/09/24;00:10:49;1.008;0.04;0.147;0.025656338781118393;-0.00855211354792118;0.0036651913542300463
01:00:0A:00:00:00:00;1726531850;17/09/24;00:10:50;1.008;0.041;0.148;0.024434609338641167;-0.00855211354792118;0.004886921960860491
01:00:0A:00:00:00:00;1726531851;17/09/24;00:10:51;1.006;0.041;0.148;0.025656338781118393;-0.010995574295520782;0.004886921960860491
01:00:0A:00:00:00:00;1726531852;17/09/24;00:10:52;1.008;0.041;0.146;0.025656338781118393;-0.010995574295520782;0.004886921960860491
01:00:0A:00:00:00:00;1726531853;17/09/24;00:10:53;1.007;0.041;0.148;0.024434609338641167;-0.00855211354792118;0.006108652334660292
01:00:0A:00:00:00:00;1726531854;17/09/24;00:10:54;1.008;0.04;0.148;0.024434609338641167;-0.010995574295520782;0.004886921960860491
01:00:0A:00:00:00:00;1726531855;17/09/24;00:10:55;1.008;0.04;0.147;0.024434609338641167;-0.009773843921720982;0.0036651913542300463
01:00:0A:00:00:00:00;1726531856;17/09/24;00:10:56;1.009;0.04;0.147;0.02321287989616394;-0.0073303827084600925;0.0036651913542300463
01:00:0A:00:00:00:00;1726531857;17/09/24;00:10:57;1.007;0.04;0.148;0.024434609338641167;-0.010995574295520782;0.004886921960860491
01:00:0A:00:00:00:00;1726531858;17/09/24;00:10:58;1.007;0.041;0.146;0.02321287989616394;-0.012217304669320583;0.004886921960860491
01:00:0A:00:00:00:00;1726531859;17/09/24;00:10:59;1.007;0.04;0.148;0.02321287989616394;-0.009773843921720982;0.006108652334660292
01:00:0A:00:00:00:00;1726531860;17/09/24;00:11:00;1.007;0.04;0.15;0.02321287989616394;-0.010995574295520782;0.004886921960860491
01:00:0A:00:00:00:00;1726531861;17/09/24;00:11:01;1.008;0.04;0.147;0.02321287989616394;-0.009773843921720982;0.0036651913542300463
01:00:0A:00:00:00:00;1726531862;17/09/24;00:11:02;1.008;0.04;0.146;0.021991148591041565;-0.00855211354792118;0.004886921960860491
01:00:0A:00:00:00:00;1726531863;17/09/24;00:11:03;1.006;0.04;0.148;0.02321287989616394;-0.010995574295520782;0.004886921960860491
01:00:0A:00:00:00:00;1726531864;17/09/24;00:11:04;1.008;0.041;0.147;0.02321287989616394;-0.010995574295520782;0.004886921960860491
01:00:0A:00:00:00:00;1726531865;17/09/24;00:11:05;1.007;0.042;0.148;0.021991148591041565;-0.00855211354792118;0.004886921960860491
01:00:0A:00:00:00:00;1726531866;17/09/24;00:11:06;1.008;0.04;0.148;0.02321287989616394;-0.009773843921720982;0.0036651913542300463
01:00:0A:00:00:00:00;1726531867;17/09/24;00:11:07;1.007;0.042;0.147;0.021991148591041565;-0.010995574295520782;0.0036651913542300463
01:00:0A:00:00:00:00;1726531868;17/09/24;00:11:08;1.008;0.04;0.147;0.02076941914856434;-0.00855211354792118;0.004886921960860491
01:00:0A:00:00:00:00;1726531869;17/09/24;00:11:09;1.006;0.04;0.148;0.021991148591041565;-0.010995574295520782;0.0036651913542300463
01:00:0A:00:00:00:00;1726531870;17/09/24;00:11:10;1.007;0.042;0.146;0.021991148591041565;-0.012217304669320583;0.004886921960860491
01:00:0A:00:00:00:00;1726531871;17/09/24;00:11:11;1.008;0.04;0.148;0.02076941914856434;-0.009773843921720982;0.004886921960860491
01:00:0A:00:00:00:00;1726531872;17/09/24;00:11:12;1.008;0.04;0.149;0.021991148591041565;-0.009773843921720982;0.0036651913542300463
01:00:0A:00:00:00:00;1726531873;17/09/24;00:11:13;1.008;0.041;0.147;0.021991148591041565;-0.010995574295520782;0.0036651913542300463
01:00:0A:00:00:00:00;1726531874;17/09/24;00:11:14;1.007;0.041;0.147;0.02076941914856434;-0.009773843921720982;0.004886921960860491
01:00:0A:00:00:00:00;1726531875;17/09/24;00:11:15;1.007;0.04;0.148;0.021991148591041565;-0.010995574295520782;0.004886921960860491
01:00:0A:00:00:00:00;1726531876;17/09/24;00:11:16;1.007;0.04;0.147;0.021991148591041565;-0.010995574295520782;0.004886921960860491
01:00:0A:00:00:00:00;1726531877;17/09/24;00:11:17;1.008;0.04;0.148;0.019547687843441963;-0.00855211354792118;0.004886921960860491
01:00:0A:00:00:00:00;1726531878;17/09/24;00:11:18;1.007;0.04;0.148;0.02076941914856434;-0.010995574295520782;0.0036651913542300463
01:00:0A:00:00:00:00;1726531879;17/09/24;00:11:19;1.008;0.041;0.146;0.02076941914856434;-0.010995574295520782;0.0036651913542300463
01:00:0A:00:00:00:00;1726531880;17/09/24;00:11:20;1.007;0.041;0.148;0.019547687843441963;-0.00855211354792118;0.004886921960860491
01:00:0A:00:00:00:00;1726531881;17/09/24;00:11:21;1.007;0.04;0.148;0.02076941914856434;-0.009773843921720982;0.0036651913542300463
01:00:0A:00:00:00:00;1726531882;17/09/24;00:11:22;1.007;0.041;0.147;0.02076941914856434;-0.012217304669320583;0.004886921960860491
01:00:0A:00:00:00:00;1726531883;17/09/24;00:11:23;1.009;0.042;0.15;0.019547687843441963;-0.010995574295520782;0.0073303827084600925
01:00:0A:00:00:00:00;1726531884;17/09/24;00:11:24;1.012;0.043;0.153;0.02076941914856434;0.004886921960860491;-0.006108652334660292
01:00:0A:00:00:00:00;1726531885;17/09/24;00:11:25;1.01;0.038;0.142;0.021991148591041565;0.0073303827084600925;-0.012217304669320583
01:00:0A:00:00:00:00;1726531886;17/09/24;00:11:26;1.005;0.034;0.135;0.018325956538319588;-0.01710422709584236;0.010995574295520782
01:00:0A:00:00:00:00;1726531887;17/09/24;00:11:27;1.001;0.043;0.151;0.019547687843441963;-0.036651913076639175;0.025656338781118393
01:00:0A:00:00:00:00;1726531888;17/09/24;00:11:28;1.004;0.053;0.162;0.02076941914856434;-0.019547687843441963;0.010995574295520782
01:00:0A:00:00:00:00;1726531889;17/09/24;00:11:29;1.01;0.05;0.157;0.02076941914856434;0.013439035043120384;-0.018325956538319588
01:00:0A:00:00:00:00;1726531890;17/09/24;00:11:30;1.011;0.038;0.145;0.01710422709584236;0.015882495790719986;-0.021991148591041565
01:00:0A:00:00:00:00;1726531891;17/09/24;00:11:31;1.012;0.031;0.135;0.012217304669320583;-0.0012217304902151227;-0.0036651913542300463
01:00:0A:00:00:00:00;1726531892;17/09/24;00:11:32;1.008;0.036;0.141;0.0036651913542300463;-0.02076941914856434;0.02076941914856434
01:00:0A:00:00:00:00;1726531893;17/09/24;00:11:33;1.001;0.051;0.16;0.0012217304902151227;-0.03298672288656235;0.040317103266716
01:00:0A:00:00:00:00;1726531894;17/09/24;00:11:34;1.004;0.06;0.125;-0.009773843921720982;-0.08796459436416626;0.030543262138962746
01:00:0A:00:00:00:00;1726531895;17/09/24;00:11:35;1.004;0.035;0.141;-0.040317103266716;0.08552113175392151;-0.03420845419168472
01:00:0A:00:00:00:00;1726531896;17/09/24;00:11:36;0.999;0.066;0.192;0.02321287989616394;-0.028099799528717995;-0.09040805697441101
01:00:0A:00:00:00:00;1726531897;17/09/24;00:11:37;1.012;-0.01;0.116;-0.02687807008624077;-0.04153883829712868;0.11728612333536148
01:00:0A:00:00:00:00;1726531898;17/09/24;00:11:38;1.005;-0.054;0.183;0.11239919811487198;0.07208210229873657;-0.03298672288656235
01:00:0A:00:00:00:00;1726531899;17/09/24;00:11:39;1.012;0.069;0.159;0.13927726447582245;-0.059864792972803116;0.10751228034496307
01:00:0A:00:00:00:00;1726531900;17/09/24;00:11:40;1.025;-0.006;0.108;0.10384709388017654;0.05497787147760391;0.10751228034496307
01:00:0A:00:00:00:00;1726531901;17/09/24;00:11:41;1.012;0.061;0.144;0.21502456068992615;-0.012217304669320583;-0.10506881773471832
01:00:0A:00:00:00:00;1726531902;17/09/24;00:11:42;0.993;0.036;0.089;0.10995574295520782;-0.11728612333536148;0.05253440886735916
01:00:0A:00:00:00:00;1726531903;17/09/24;00:11:43;0.975;0.016;0.189;0.05375614017248154;0.02932153083384037;-0.09040805697441101
01:00:0A:00:00:00:00;1726531904;17/09/24;00:11:44;0.988;0.063;0.203;0.014660765416920185;-0.2028072476387024;0.08552113175392151
01:00:0A:00:00:00:00;1726531905;17/09/24;00:11:45;1.042;0.044;0.071;-0.0757472887635231;0.1258382350206375;0.02932153083384037
01:00:0A:00:00:00:00;1726531906;17/09/24;00:11:46;1.039;0.055;0.245;0.02076941914856434;0.09651670604944229;-0.02932153083384037
01:00:0A:00:00:00:00;1726531907;17/09/24;00:11:47;1.034;0.092;0.145;0.13439035415649414;0.04642575979232788;-0.012217304669320583
01:00:0A:00:00:00:00;1726531908;17/09/24;00:11:48;0.976;-0.094;0.214;0.2981022298336029;0.09162978082895279;0.15882496535778046
01:00:0A:00:00:00:00;1726531909;17/09/24;00:11:49;0.934;0.118;-0.009;0.4288274049758911;-0.43249258399009705;-0.2174680233001709
01:00:0A:00:00:00:00;1726531910;17/09/24;00:11:50;0.948;-0.006;0.0;-0.38117989897727966;0.6377432942390442;0.50335294008255
01:00:0A:00:00:00:00;1726531911;17/09/24;00:11:51;0.988;-0.027;0.18;0.2577851116657257;-0.3152064383029938;-0.6047565937042236
01:00:0A:00:00:00:00;1726531912;17/09/24;00:11:52;0.994;0.263;0.097;-0.3078760802745819;-0.006108652334660292;0.445931613445282
01:00:0A:00:00:00:00;1726531913;17/09/24;00:11:53;1.009;-0.367;0.17;-0.07452555745840073;0.17837265133857727;0.13927726447582245
01:00:0A:00:00:00:00;1726531914;17/09/24;00:11:54;0.935;0.434;-0.17;-0.13439035415649414;-0.45692718029022217;-0.38606682419776917
01:00:0A:00:00:00:00;1726531915;17/09/24;00:11:55;0.989;-0.125;0.299;-0.8417722582817078;0.10018189996480942;0.5326744914054871
01:00:0A:00:00:00:00;1726531916;17/09/24;00:11:56;1.001;0.0;0.044;-0.32009339332580566;-0.1576032191514969;-0.3298672139644623
01:00:0A:00:00:00:00;1726531917;17/09/24;00:11:57;0.977;0.105;0.209;-0.6731734871864319;0.012217304669320583;0.4056144952774048
01:00:0A:00:00:00:00;1726531918;17/09/24;00:11:58;1.052;-0.071;0.153;-0.40683624148368835;-0.2223549485206604;-0.08796459436416626
01:00:0A:00:00:00:00;1726531919;17/09/24;00:11:59;1.067;0.155;-0.041;-0.6768386960029602;0.4141666293144226;-0.2223549485206604
01:00:0A:00:00:00:00;1726531920;17/09/24;00:12:00;0.932;-0.277;0.489;-0.38606682419776917;0.41294488310813904;0.1514945775270462
01:00:0A:00:00:00:00;1726531921;17/09/24;00:12:01;0.968;0.258;-0.326;-0.1576032191514969;-0.6316346526145935;-0.23579397797584534
01:00:0A:00:00:00:00;1726531922;17/09/24;00:12:02;0.946;0.006;0.385;-0.8222246170043945;0.5632177591323853;0.17470745742321014
01:00:0A:00:00:00:00;1726531923;17/09/24;00:12:03;0.977;-0.055;0.213;-0.1270599663257599;-0.40683624148368835;-0.1417207270860672
01:00:0A:00:00:00:00;1726531924;17/09/24;00:12:04;1.018;-0.057;0.048;-0.23945917189121246;0.09040805697441101;0.07696902006864548
01:00:0A:00:00:00:00;1726531925;17/09/24;00:12:05;1.041;0.052;0.205;-0.2590068578720093;0.05009094998240471;-0.03787364438176155
01:00:0A:00:00:00:00;1726531926;17/09/24;00:12:06;1.056;0.058;0.196;-0.2321287840604782;-0.028099799528717995;-0.02932153083384037
01:00:0A:00:00:00:00;1726531927;17/09/24;00:12:07;1.001;-0.081;0.108;-0.1918116807937622;0.021991148591041565;0.12217304855585098
01:00:0A:00:00:00:00;1726531928;17/09/24;00:12:08;0.924;0.11;0.187;-0.07452555745840073;0.17959438264369965;-0.26145032048225403
01:00:0A:00:00:00:00;1726531929;17/09/24;00:12:09;0.91;-0.013;0.148;-0.17959438264369965;-0.2590068578720093;0.4899139106273651
01:00:0A:00:00:00:00;1726531930;17/09/24;00:12:10;0.957;0.035;0.107;0.2028072476387024;-0.06352998316287994;-0.7024949789047241
01:00:0A:00:00:00:00;1726531931;17/09/24;00:12:11;0.962;0.256;-0.073;-0.7000515460968018;-0.26022857427597046;0.9920451641082764
01:00:0A:00:00:00:00;1726531932;17/09/24;00:12:12;1.001;-0.257;-0.221;-0.7550294399261475;0.3323107063770294;-0.25534167885780334
01:00:0A:00:00:00:00;1726531933;17/09/24;00:12:13;1.022;-0.031;0.335;-0.6939429044723511;0.2626720666885376;0.08185594528913498
01:00:0A:00:00:00:00;1726531934;17/09/24;00:12:14;0.967;-0.257;0.349;0.20402899384498596;0.10873401165008545;-0.14782939851284027
01:00:0A:00:00:00:00;1726531935;17/09/24;00:12:15;0.966;0.255;-0.016;0.17592918872833252;-0.3677408695220947;-0.1319468915462494
01:00:0A:00:00:00:00;1726531936;17/09/24;00:12:16;0.963;0.06;0.194;-0.5045746564865112;0.2590068578720093;0.513126790523529
01:00:0A:00:00:00:00;1726531937;17/09/24;00:12:17;0.947;-0.056;0.31;0.2724458873271942;-0.1111774742603302;-0.5424482822418213
01:00:0A:00:00:00:00;1726531938;17/09/24;00:12:18;0.963;0.308;0.041;-0.4691444933414459;-0.036651913076639175;0.44715335965156555
01:00:0A:00:00:00:00;1726531939;17/09/24;00:12:19;1.046;-0.135;0.163;-0.5302309989929199;0.3591887652873993;-0.37140607833862305
01:00:0A:00:00:00:00;1726531940;17/09/24;00:12:20;0.922;0.403;0.431;-0.43249258399009705;-0.5534439086914062;-0.5729915499687195
01:00:0A:00:00:00:00;1726531941;17/09/24;00:12:21;0.927;0.442;-0.273;-1.350012183189392;-0.6866125464439392;0.16249015927314758
01:00:0A:00:00:00:00;1726531942;17/09/24;00:12:22;0.776;0.548;-0.199;-2.4727823734283447;-1.6004669666290283;-0.2174680233001709
01:00:0A:00:00:00:00;1726531943;17/09/24;00:12:23;0.946;0.368;-0.218;-3.17161226272583;-1.4147639274597168;-0.009773843921720982
01:00:0A:00:00:00:00;1726531944;17/09/24;00:12:24;1.042;0.01;0.139;-3.1691689491271973;-0.2895500957965851;-0.445931613445282
01:00:0A:00:00:00:00;1726531945;17/09/24;00:12:25;1.017;-0.078;0.212;-1.7214182615280151;-0.2028072476387024;0.5485569834709167
01:00:0A:00:00:00:00;1726531946;17/09/24;00:12:26;1.025;-0.023;-0.094;-1.6994271278381348;0.7318165302276611;-0.11362093687057495
01:00:0A:00:00:00:00;1726531947;17/09/24;00:12:27;0.909;-0.361;0.388;-1.3377948999404907;0.48258352279663086;-0.3848450779914856
01:00:0A:00:00:00:00;1726531948;17/09/24;00:12:28;1.023;-0.159;0.358;1.624901533126831;0.3384193480014801;0.40072759985923767
01:00:0A:00:00:00:00;1726531949;17/09/24;00:12:29;0.935;-0.441;-0.106;1.1191051006317139;0.040317103266716;0.6621779203414917
01:00:0A:00:00:00:00;1726531950;17/09/24;00:12:30;0.961;0.331;-0.083;0.9663888216018677;-1.1044443845748901;-0.20525071024894714
01:00:0A:00:00:00:00;1726531951;17/09/24;00:12:31;0.869;-0.366;-0.253;-0.3933972120285034;1.822821855545044;0.9517280459403992
01:00:0A:00:00:00:00;1726531952;17/09/24;00:12:32;0.597;0.356;0.797;-0.04153883829712868;-0.7538076639175415;-1.9730947017669678
01:00:0A:00:00:00:00;1726531953;17/09/24;00:12:33;0.964;0.298;0.027;-1.7397441864013672;-1.0775662660598755;1.1582003831863403
01:00:0A:00:00:00:00;1726531954;17/09/24;00:12:34;0.825;0.052;-0.677;-2.459343433380127;-0.8491026759147644;1.4856243133544922
01:00:0A:00:00:00:00;1726531955;17/09/24;00:12:35;0.947;-0.064;-0.397;-3.1581733226776123;0.6047565937042236;1.5809191465377808
01:00:0A:00:00:00:00;1726531956;17/09/24;00:12:36;0.836;-0.113;-0.386;-3.321885347366333;0.8405505418777466;1.9523253440856934
01:00:0A:00:00:00:00;1726531957;17/09/24;00:12:37;0.784;-0.494;-0.413;-3.1557297706604004;1.566258430480957;1.49906325340271
01:00:0A:00:00:00:00;1726531958;17/09/24;00:12:38;0.906;-0.307;-0.28;-2.7855453491210938;1.2278391122817993;1.282817006111145
01:00:0A:00:00:00:00;1726531959;17/09/24;00:12:39;0.797;-0.528;-0.502;-2.372600555419922;1.577254056930542;1.4428637027740479
01:00:0A:00:00:00:00;1726531960;17/09/24;00:12:40;0.898;-0.456;0.063;-1.5503759384155273;1.3475687503814697;-0.929736852645874
01:00:0A:00:00:00:00;1726531961;17/09/24;00:12:41;0.8;-0.215;0.503;-1.0555751323699951;0.8674286603927612;-0.5558874011039734
01:00:0A:00:00:00:00;1726531962;17/09/24;00:12:42;0.657;0.641;0.615;-0.32009339332580566;-1.2119566202163696;-1.7324137687683105
01:00:0A:00:00:00:00;1726531963;17/09/24;00:12:43;0.93;0.46;-0.078;-1.859473705291748;-1.1484266519546509;0.3799581527709961
01:00:0A:00:00:00:00;1726531964;17/09/24;00:12:44;0.887;0.357;0.086;-2.822197198867798;-1.301142930984497;0.7672467231750488
01:00:0A:00:00:00:00;1726531965;17/09/24;00:12:45;1.026;0.151;0.044;-2.993239641189575;-0.2223549485206604;0.06841690838336945
01:00:0A:00:00:00:00;1726531966;17/09/24;00:12:46;1.016;-0.076;0.386;-2.266309976577759;-0.23457224667072296;-1.0018190145492554
01:00:0A:00:00:00:00;1726531967;17/09/24;00:12:47;0.741;0.626;0.472;-2.400700330734253;-1.703092336654663;-0.9615018963813782
01:00:0A:00:00:00:00;1726531968;17/09/24;00:12:48;0.995;-0.09;-0.064;-0.4715879559516907;-0.5668829083442688;1.4636330604553223
01:00:0A:00:00:00:00;1726531969;17/09/24;00:12:49;0.989;0.232;-0.013;-1.0409142971038818;-0.40072759985923767;-0.43860122561454773
01:00:0A:00:00:00:00;1726531970;17/09/24;00:12:50;1.016;0.119;0.003;-1.1655309200286865;-0.23090705275535583;-0.0012217304902151227
01:00:0A:00:00:00:00;1726531971;17/09/24;00:12:51;1.034;0.171;0.03;-1.5161675214767456;-0.04886921867728233;-0.09896016865968704
01:00:0A:00:00:00:00;1726531972;17/09/24;00:12:52;1.088;-0.05;0.086;-1.5919147729873657;0.013439035043120384;-0.06475171446800232
01:00:0A:00:00:00:00;1726531973;17/09/24;00:12:53;1.065;0.027;0.201;-1.3903292417526245;-0.16493360698223114;-0.24923302233219147
01:00:0A:00:00:00:00;1726531974;17/09/24;00:12:54;0.955;0.193;0.041;-4.274835109710693;-0.2028072476387024;-0.5253441333770752
01:00:0A:00:00:00:00;1726531975;17/09/24;00:12:55;0.92;0.164;0.053;-3.4917056560516357;-0.019547687843441963;-0.6133087277412415
01:00:0A:00:00:00:00;1726531976;17/09/24;00:12:56;0.929;-0.102;0.039;-2.687807083129883;-0.47769662737846375;-0.6487389206886292
01:00:0A:00:00:00:00;1726531977;17/09/24;00:12:57;0.956;0.132;0.063;-1.4501941204071045;-0.37629297375679016;-0.161268413066864
01:00:0A:00:00:00:00;1726531978;17/09/24;00:12:58;0.957;-0.061;0.41;-1.4269812107086182;-0.19547687470912933;-0.5412266254425049
01:00:0A:00:00:00:00;1726531979;17/09/24;00:12:59;1.028;0.212;0.287;-1.1093312501907349;-0.6585127115249634;-0.36163222789764404
01:00:0A:00:00:00:00;1726531980;17/09/24;00:13:00;0.954;0.535;-0.031;-1.7983871698379517;-0.18936821818351746;-0.1160643920302391
01:00:0A:00:00:00:00;1726531981;17/09/24;00:13:01;1.026;-0.315;-0.001;-1.605353832244873;-0.27000245451927185;0.14538592100143433
01:00:0A:00:00:00:00;1726531982;17/09/24;00:13:02;0.893;0.125;0.484;-1.3695597648620605;0.7476990222930908;-0.3799581527709961
01:00:0A:00:00:00:00;1726531983;17/09/24;00:13:03;0.833;0.245;0.36;-1.9413297176361084;-0.5693264007568359;-0.11484266817569733
01:00:0A:00:00:00:00;1726531984;17/09/24;00:13:04;0.962;-0.015;0.024;-1.5552629232406616;-1.0042624473571777;-0.28588491678237915
01:00:0A:00:00:00:00;1726531985;17/09/24;00:13:05;0.92;0.258;0.223;-2.395813465118408;-0.22479839622974396;0.7354817390441895
01:00:0A:00:00:00:00;1726531986;17/09/24;00:13:06;1.03;0.0;-0.22;-2.0537290573120117;0.436157763004303;-0.2382374405860901
01:00:0A:00:00:00:00;1726531987;17/09/24;00:13:07;0.923;-0.359;0.435;-1.8606956005096436;0.41294488310813904;-0.7073819637298584
01:00:0A:00:00:00:00;1726531988;17/09/24;00:13:08;1.013;0.17;0.199;-1.2205088138580322;0.18570303916931152;-0.4752531349658966
01:00:0A:00:00:00:00;1726531989;17/09/24;00:13:09;0.97;0.004;0.274;-1.078787922859192;-0.004886921960860491;-0.21868975460529327
01:00:0A:00:00:00:00;1726531990;17/09/24;00:13:10;0.969;0.084;0.034;-0.949284553527832;-0.1270599663257599;-0.22602014243602753
01:00:0A:00:00:00:00;1726531991;17/09/24;00:13:11;0.973;-0.078;0.228;-1.1447614431381226;-0.040317103266716;0.4141666293144226
01:00:0A:00:00:00:00;1726531992;17/09/24;00:13:12;1.051;-0.219;-0.079;-0.455705463886261;0.17104226350784302;-0.588874101638794
01:00:0A:00:00:00:00;1726531993;17/09/24;00:13:13;0.933;0.306;0.376;-0.7086036801338196;-0.2993239760398865;0.685390830039978
01:00:0A:00:00:00:00;1726531994;17/09/24;00:13:14;1.043;-0.284;-0.148;-0.21380282938480377;-0.2993239760398865;-0.14294245839118958
01:00:0A:00:00:00:00;1726531995;17/09/24;00:13:15;1.034;0.159;0.163;-0.1466076523065567;0.43737950921058655;-0.34208452701568604
01:00:0A:00:00:00:00;1726531996;17/09/24;00:13:16;0.956;-0.271;0.268;-0.0659734457731247;0.23945917189121246;0.34208452701568604
01:00:0A:00:00:00:00;1726531997;17/09/24;00:13:17;0.91;0.229;0.134;0.3689626157283783;-0.8112289905548096;-0.5681046843528748
01:00:0A:00:00:00:00;1726531998;17/09/24;00:13:18;0.91;0.26;0.022;-1.0348056554794312;0.04886921867728233;0.7330382466316223
01:00:0A:00:00:00:00;1726531999;17/09/24;00:13:19;1.04;-0.079;0.075;-0.8637634515762329;-0.04398229718208313;-0.3237585723400116
01:00:0A:00:00:00:00;1726532000;17/09/24;00:13:20;1.015;0.171;0.333;-1.0543533563613892;-0.45326200127601624;0.3689626157283783
01:00:0A:00:00:00:00;1726532001;17/09/24;00:13:21;0.986;-0.144;-0.431;-1.0690141916275024;-0.5473352670669556;0.34574973583221436
01:00:0A:00:00:00:00;1726532002;17/09/24;00:13:22;0.924;-0.41;0.387;-1.2119566202163696;1.7128660678863525;-0.3543018400669098
01:00:0A:00:00:00:00;1726532003;17/09/24;00:13:23;0.898;0.216;0.348;-0.6841690540313721;-0.20891590416431427;-0.807563841342926
01:00:0A:00:00:00:00;1726532004;17/09/24;00:13:24;0.953;-0.216;0.151;-0.8222246170043945;-0.5106833577156067;0.24190263450145721
01:00:0A:00:00:00:00;1726532005;17/09/24;00:13:25;1.026;0.034;0.01;-0.44715335965156555;0.31642818450927734;-0.30054569244384766
01:00:0A:00:00:00:00;1726532006;17/09/24;00:13:26;1.013;0.039;0.436;-0.1820378452539444;-0.6609562039375305;-0.35674530267715454
01:00:0A:00:00:00:00;1726532007;17/09/24;00:13:27;0.999;0.236;-0.411;-0.8417722582817078;0.23335053026676178;0.10751228034496307
01:00:0A:00:00:00:00;1726532008;17/09/24;00:13:28;0.881;-0.386;0.595;-0.6743952035903931;0.01710422709584236;0.05009094998240471
01:00:0A:00:00:00:00;1726532009;17/09/24;00:13:29;1.041;0.163;-0.083;-0.19303341209888458;-0.39584067463874817;-0.22113320231437683
01:00:0A:00:00:00:00;1726532010;17/09/24;00:13:30;0.978;0.185;0.152;-0.8735373020172119;0.18448130786418915;0.30054569244384766
01:00:0A:00:00:00:00;1726532011;17/09/24;00:13:31;0.998;-0.018;0.056;-0.5815436840057373;-0.2321287840604782;-0.20647244155406952
01:00:0A:00:00:00:00;1726532012;17/09/24;00:13:32;1.02;0.212;0.132;-0.7159340977668762;0.1722639948129654;-0.02687807008624077
01:00:0A:00:00:00:00;1726532013;17/09/24;00:13:33;1.078;-0.149;0.222;-0.40072759985923767;-0.045204028487205505;-0.13439035415649414
01:00:0A:00:00:00:00;1726532014;17/09/24;00:13:34;1.052;0.343;0.0;-0.46792274713516235;-0.13561207056045532;-0.31154125928878784
01:00:0A:00:00:00:00;1726532015;17/09/24;00:13:35;0.903;-0.512;0.095;-0.5962044596672058;0.15393804013729095;1.0140362977981567
01:00:0A:00:00:00:00;1726532016;17/09/24;00:13:36;0.905;0.514;-0.021;-0.05009094998240471;-0.1918116807937622;-1.2034045457839966
01:00:0A:00:00:00:00;1726532017;17/09/24;00:13:37;1.001;0.013;0.125;-1.056796908378601;-0.09040805697441101;0.6658430695533752
01:00:0A:00:00:00:00;1726532018;17/09/24;00:13:38;0.958;0.038;0.068;-0.6181955933570862;0.15027284622192383;-0.4483751058578491
01:00:0A:00:00:00:00;1726532019;17/09/24;00:13:39;0.944;0.06;0.247;-0.6817255616188049;-0.161268413066864;0.02321287989616394
01:00:0A:00:00:00:00;1726532020;17/09/24;00:13:40;1.017;-0.044;0.129;-0.37751471996307373;-0.22602014243602753;-0.2638937830924988
01:00:0A:00:00:00:00;1726532021;17/09/24;00:13:41;1.066;0.115;0.096;-0.5265658497810364;0.045204028487205505;0.036651913076639175
01:00:0A:00:00:00:00;1726532022;17/09/24;00:13:42;1.031;-0.198;0.236;-0.3286454975605011;0.06475171446800232;0.1111774742603302
01:00:0A:00:00:00:00;1726532023;17/09/24;00:13:43;0.993;0.223;0.042;-0.1966986060142517;-0.21380282938480377;-0.4239404499530792
01:00:0A:00:00:00:00;1726532024;17/09/24;00:13:44;0.962;-0.063;0.145;-0.6902776956558228;0.019547687843441963;0.5534439086914062
01:00:0A:00:00:00:00;1726532025;17/09/24;00:13:45;0.974;0.009;0.121;-0.14294245839118958;0.05864306166768074;-0.46547931432724
01:00:0A:00:00:00:00;1726532026;17/09/24;00:13:46;0.969;0.153;0.229;-0.3946189284324646;-0.019547687843441963;0.1258382350206375
01:00:0A:00:00:00:00;1726532027;17/09/24;00:13:47;1.009;-0.1;0.107;-0.22968533635139465;-0.12461651116609573;-0.0659734457731247
01:00:0A:00:00:00:00;1726532028;17/09/24;00:13:48;1.016;0.017;0.07;-0.18570303916931152;0.17837265133857727;-0.13072516024112701
01:00:0A:00:00:00:00;1726532029;17/09/24;00:13:49;0.995;0.039;0.228;-0.20891590416431427;-0.1966986060142517;0.18448130786418915
01:00:0A:00:00:00:00;1726532030;17/09/24;00:13:50;1.054;-0.03;0.07;-0.06841690838336945;-0.2480112910270691;0.02321287989616394
01:00:0A:00:00:00:00;1726532031;17/09/24;00:13:51;1.042;0.105;0.209;-0.1160643920302391;0.13805554807186127;-0.14538592100143433
01:00:0A:00:00:00:00;1726532032;17/09/24;00:13:52;1.013;-0.059;0.226;-0.13561207056045532;0.13439035415649414;0.06719517707824707
01:00:0A:00:00:00:00;1726532033;17/09/24;00:13:53;0.949;0.014;0.021;-0.051312677562236786;-0.0659734457731247;-0.17470745742321014
01:00:0A:00:00:00:00;1726532034;17/09/24;00:13:54;0.931;-0.039;0.058;-0.3481931686401367;0.294437050819397;0.36163222789764404
01:00:0A:00:00:00:00;1726532035;17/09/24;00:13:55;0.977;0.013;0.054;0.1319468915462494;-0.46303585171699524;-0.4288274049758911
01:00:0A:00:00:00:00;1726532036;17/09/24;00:13:56;0.981;0.214;0.017;-0.45814892649650574;-0.004886921960860491;0.32131510972976685
01:00:0A:00:00:00:00;1726532037;17/09/24;00:13:57;0.991;-0.145;0.191;-0.3066543638706207;-0.0659734457731247;-0.2541199326515198
01:00:0A:00:00:00:00;1726532038;17/09/24;00:13:58;0.996;0.041;0.175;-0.25534167885780334;-0.024434609338641167;-0.09651670604944229
01:00:0A:00:00:00:00;1726532039;17/09/24;00:13:59;1.043;0.093;0.203;-0.4605923891067505;-0.19303341209888458;0.32131510972976685
01:00:0A:00:00:00:00;1726532040;17/09/24;00:14:00;1.104;-0.275;-0.062;-0.19303341209888458;0.11362093687057495;-0.2223549485206604
01:00:0A:00:00:00:00;1726532041;17/09/24;00:14:01;0.824;0.508;0.658;-0.3078760802745819;0.019547687843441963;-0.10506881773471832
01:00:0A:00:00:00:00;1726532042;17/09/24;00:14:02;1.018;-0.36;-0.384;-0.2895500957965851;-0.3640756905078888;0.15027284622192383
01:00:0A:00:00:00:00;1726532043;17/09/24;00:14:03;0.935;0.205;0.501;-0.2028072476387024;0.15027284622192383;-0.10018189996480942
01:00:0A:00:00:00:00;1726532044;17/09/24;00:14:04;1.008;-0.024;0.239;-0.07452555745840073;-0.6365215182304382;0.21624629199504852
01:00:0A:00:00:00:00;1726532045;17/09/24;00:14:05;1.019;-0.033;-0.013;-0.10018189996480942;0.10873401165008545;-0.13316862285137177
01:00:0A:00:00:00:00;1726532046;17/09/24;00:14:06;0.945;0.038;0.377;-0.17348572611808777;0.5632177591323853;-0.0073303827084600925
01:00:0A:00:00:00:00;1726532047;17/09/24;00:14:07;0.999;0.0;0.202;0.13439035415649414;-0.35063666105270386;0.0659734457731247
01:00:0A:00:00:00:00;1726532048;17/09/24;00:14:08;1.014;-0.042;-0.121;0.06719517707824707;-0.025656338781118393;0.019547687843441963
01:00:0A:00:00:00:00;1726532049;17/09/24;00:14:09;1.018;0.045;0.247;0.0012217304902151227;0.161268413066864;0.0024434609804302454
01:00:0A:00:00:00:00;1726532050;17/09/24;00:14:10;1.008;0.049;0.299;0.11728612333536148;-0.18081611394882202;0.09040805697441101
01:00:0A:00:00:00:00;1726532051;17/09/24;00:14:11;1.001;-0.004;0.06;0.1014036238193512;-0.13805554807186127;0.04764748737215996
01:00:0A:00:00:00:00;1726532052;17/09/24;00:14:12;0.938;0.07;0.244;0.0354301817715168;0.5106833577156067;-0.1576032191514969
01:00:0A:00:00:00:00;1726532053;17/09/24;00:14:13;0.965;0.046;0.164;0.10384709388017654;-0.39584067463874817;0.13805554807186127
01:00:0A:00:00:00:00;1726532054;17/09/24;00:14:14;1.001;-0.046;-0.014;0.040317103266716;0.2223549485206604;-0.06841690838336945
01:00:0A:00:00:00:00;1726532055;17/09/24;00:14:15;1.005;0.038;0.254;0.07696902006864548;-0.04642575979232788;-0.006108652334660292
01:00:0A:00:00:00:00;1726532056;17/09/24;00:14:16;1.02;0.04;0.156;0.03787364438176155;-0.21991148591041565;0.13561207056045532
01:00:0A:00:00:00:00;1726532057;17/09/24;00:14:17;1.014;-0.017;0.111;-0.0036651913542300463;0.10873401165008545;0.028099799528717995
01:00:0A:00:00:00:00;1726532058;17/09/24;00:14:18;0.992;0.05;0.216;0.05009094998240471;0.0757472887635231;-0.08796459436416626
01:00:0A:00:00:00:00;1726532059;17/09/24;00:14:19;1.018;0.055;0.161;-0.0012217304902151227;-0.1270599663257599;0.0708603635430336
01:00:0A:00:00:00:00;1726532060;17/09/24;00:14:20;1.045;-0.04;0.092;0.006108652334660292;-0.015882495790719986;0.012217304669320583
01:00:0A:00:00:00:00;1726532061;17/09/24;00:14:21;1.015;0.081;0.241;0.028099799528717995;0.1062905490398407;-0.09162978082895279
01:00:0A:00:00:00:00;1726532062;17/09/24;00:14:22;1.0;0.008;0.129;-0.021991148591041565;-0.10873401165008545;0.07330382615327835
01:00:0A:00:00:00:00;1726532063;17/09/24;00:14:23;0.971;0.007;0.123;0.012217304669320583;0.10995574295520782;-0.10873401165008545
01:00:0A:00:00:00:00;1726532064;17/09/24;00:14:24;0.977;0.035;0.15;0.010995574295520782;-0.07330382615327835;-0.02932153083384037
01:00:0A:00:00:00:00;1726532065;17/09/24;00:14:25;1.028;-0.003;0.12;-0.05497787147760391;-0.080634206533432;0.09040805697441101
01:00:0A:00:00:00:00;1726532066;17/09/24;00:14:26;1.036;-0.014;0.159;-0.019547687843441963;-0.02076941914856434;0.02321287989616394
01:00:0A:00:00:00:00;1726532067;17/09/24;00:14:27;0.999;0.079;0.192;-0.019547687843441963;-0.025656338781118393;-0.010995574295520782
01:00:0A:00:00:00:00;1726532068;17/09/24;00:14:28;0.976;0.04;0.17;-0.08918632566928864;-0.045204028487205505;0.07941248267889023
01:00:0A:00:00:00:00;1726532069;17/09/24;00:14:29;0.99;0.017;0.169;-0.02321287989616394;0.07208210229873657;-0.10506881773471832
01:00:0A:00:00:00:00;1726532070;17/09/24;00:14:30;1.016;0.046;0.187;-0.06475171446800232;0.014660765416920185;0.024434609338641167
01:00:0A:00:00:00:00;1726532071;17/09/24;00:14:31;1.051;-0.017;0.116;-0.0659734457731247;-0.0012217304902151227;0.04642575979232788
01:00:0A:00:00:00:00;1726532072;17/09/24;00:14:32;1.041;0.032;0.148;-0.030543262138962746;-0.025656338781118393;0.012217304669320583
01:00:0A:00:00:00:00;1726532073;17/09/24;00:14:33;1.009;0.064;0.169;-0.036651913076639175;-0.1014036238193512;0.02321287989616394
01:00:0A:00:00:00:00;1726532074;17/09/24;00:14:34;0.976;0.045;0.198;-0.02932153083384037;-0.018325956538319588;-0.02932153083384037
01:00:0A:00:00:00:00;1726532075;17/09/24;00:14:35;0.973;0.05;0.207;0.012217304669320583;0.05497787147760391;-0.10873401165008545
01:00:0A:00:00:00:00;1726532076;17/09/24;00:14:36;0.976;0.018;0.147;-0.02321287989616394;0.04764748737215996;-0.0024434609804302454
01:00:0A:00:00:00:00;1726532077;17/09/24;00:14:37;0.971;-0.014;0.114;-0.012217304669320583;0.03420845419168472;-0.0012217304902151227
01:00:0A:00:00:00:00;1726532078;17/09/24;00:14:38;1.005;0.002;0.13;0.013439035043120384;-0.12461651116609573;0.045204028487205505
01:00:0A:00:00:00:00;1726532079;17/09/24;00:14:39;1.048;0.015;0.139;-0.02321287989616394;-0.07208210229873657;0.07696902006864548
01:00:0A:00:00:00:00;1726532080;17/09/24;00:14:40;1.096;-0.002;0.177;-0.006108652334660292;-0.0012217304902151227;0.009773843921720982
01:00:0A:00:00:00:00;1726532081;17/09/24;00:14:41;1.091;0.089;0.109;-0.06475171446800232;0.05009094998240471;-0.05742133408784866
01:00:0A:00:00:00:00;1726532082;17/09/24;00:14:42;0.987;-0.052;0.143;-0.0757472887635231;0.10506881773471832;0.1319468915462494
01:00:0A:00:00:00:00;1726532083;17/09/24;00:14:43;0.898;0.074;0.076;0.08674286305904388;-0.28466320037841797;-0.33597588539123535
01:00:0A:00:00:00:00;1726532084;17/09/24;00:14:44;0.918;-0.069;0.192;-0.3701843321323395;0.12461651116609573;0.5644394755363464
01:00:0A:00:00:00:00;1726532085;17/09/24;00:14:45;0.949;-0.128;0.257;0.4691444933414459;-0.3640756905078888;-0.8063421249389648
01:00:0A:00:00:00:00;1726532086;17/09/24;00:14:46;0.945;0.214;0.066;-0.4080579876899719;0.46547931432724;0.6059783101081848
01:00:0A:00:00:00:00;1726532087;17/09/24;00:14:47;0.984;-0.227;0.206;-0.024434609338641167;-0.09162978082895279;0.028099799528717995
01:00:0A:00:00:00:00;1726532088;17/09/24;00:14:48;1.042;0.046;0.053;0.32620203495025635;-0.15515977144241333;-0.1673770695924759
01:00:0A:00:00:00:00;1726532089;17/09/24;00:14:49;1.035;0.189;0.082;-0.02687807008624077;-0.0073303827084600925;0.14416420459747314
01:00:0A:00:00:00:00;1726532090;17/09/24;00:14:50;1.008;-0.168;0.321;0.16493360698223114;-0.07819075137376785;0.13072516024112701
01:00:0A:00:00:00:00;1726532091;17/09/24;00:14:51;1.023;0.122;0.079;0.3897320330142975;-0.27611109614372253;-0.2626720666885376
01:00:0A:00:00:00:00;1726532092;17/09/24;00:14:52;0.959;0.021;0.181;0.019547687843441963;0.45204028487205505;0.09896016865968704
01:00:0A:00:00:00:00;1726532093;17/09/24;00:14:53;0.943;0.004;0.131;0.2480112910270691;-0.18936821818351746;-0.07452555745840073
01:00:0A:00:00:00:00;1726532094;17/09/24;00:14:54;0.972;-0.01;0.04;0.09896016865968704;0.13927726447582245;0.08429940044879913
01:00:0A:00:00:00:00;1726532095;17/09/24;00:14:55;1.002;-0.01;0.158;0.14416420459747314;-0.17348572611808777;0.07696902006864548
01:00:0A:00:00:00:00;1726532096;17/09/24;00:14:56;1.058;0.027;0.112;0.1270599663257599;-0.09162978082895279;0.1014036238193512
01:00:0A:00:00:00:00;1726532097;17/09/24;00:14:57;1.054;0.029;0.183;0.14416420459747314;-0.0024434609804302454;0.013439035043120384
01:00:0A:00:00:00:00;1726532098;17/09/24;00:14:58;1.02;0.054;0.163;0.16493360698223114;0.0354301817715168;-0.07941248267889023
01:00:0A:00:00:00:00;1726532099;17/09/24;00:14:59;0.996;-0.005;0.138;0.12828169763088226;0.04886921867728233;-0.0036651913542300463
01:00:0A:00:00:00:00;1726532100;17/09/24;00:15:00;0.977;-0.012;0.145;0.16859880089759827;-0.006108652334660292;-0.045204028487205505
01:00:0A:00:00:00:00;1726532101;17/09/24;00:15:01;0.997;0.01;0.163;0.10995574295520782;-0.04153883829712868;0.11362093687057495
