Source;Epoch timestamp (UTC);Date;Time (UTC);Accel X (G);Accel Y (G);Accel Z (G);Gyro X (rad/s);Gyro Y (rad/s);Gyro Z (rad/s)
01:00:0A:00:00:00:00;1727740794;30/09/24;23:59:54;1.013;-0.008;0.055;-0.004886921960860491;-0.01710422709584236;-0.0012217304902151227
01:00:0A:00:00:00:00;1727740795;30/09/24;23:59:55;1.019;-0.011;0.058;-0.006108652334660292;-0.014660765416920185;0.0
01:00:0A:00:00:00:00;1727740796;30/09/24;23:59:56;1.023;-0.012;0.058;-0.006108652334660292;-0.009773843921720982;0.0
01:00:0A:00:00:00:00;1727740797;30/09/24;23:59:57;1.019;-0.01;0.057;-0.006108652334660292;-0.004886921960860491;0.004886921960860491
01:00:0A:00:00:00:00;1727740798;30/09/24;23:59:58;1.015;-0.008;0.057;-0.0073303827084600925;-0.0073303827084600925;0.0036651913542300463
01:00:0A:00:00:00:00;1727740799;30/09/24;23:59:59;1.011;-0.01;0.055;-0.006108652334660292;-0.010995574295520782;0.0024434609804302454
01:00:0A:00:00:00:00;1727740800;01/10/24;00:00:00;1.012;-0.008;0.055;-0.006108652334660292;-0.014660765416920185;0.0012217304902151227
01:00:0A:00:00:00:00;1727740801;01/10/24;00:00:01;1.018;-0.008;0.057;-0.006108652334660292;-0.019547687843441963;-0.0012217304902151227
01:00:0A:00:00:00:00;1727740802;01/10/24;00:00:02;1.023;-0.01;0.058;-0.006108652334660292;-0.014660765416920185;0.0012217304902151227
01:00:0A:00:00:00:00;1727740803;01/10/24;00:00:03;1.024;-0.01;0.059;-0.004886921960860491;-0.0024434609804302454;0.0
01:00:0A:00:00:00:00;1727740804;01/10/24;00:00:04;1.017;-0.01;0.057;-0.006108652334660292;-0.0012217304902151227;0.0036651913542300463
01:00:0A:00:00:00:00;1727740805;01/10/24;00:00:05;1.01;-0.009;0.056;-0.006108652334660292;-0.0073303827084600925;0.0036651913542300463
01:00:0A:00:00:00:00;1727740806;01/10/24;00:00:06;1.007;-0.009;0.055;-0.004886921960860491;-0.014660765416920185;0.0012217304902151227
01:00:0A:00:00:00:00;1727740807;01/10/24;00:00:07;1.01;-0.01;0.056;-0.004886921960860491;-0.02076941914856434;0.0
01:00:0A:00:00:00:00;1727740808;01/10/24;00:00:08;1.022;-0.011;0.059;-0.004886921960860491;-0.01710422709584236;0.0024434609804302454
01:00:0A:00:00:00:00;1727740809;01/10/24;00:00:09;1.026;-0.009;0.06;-0.006108652334660292;-0.010995574295520782;0.004886921960860491
01:00:0A:00:00:00:00;1727740810;01/10/24;00:00:10;1.023;-0.007;0.058;-0.004886921960860491;-0.0036651913542300463;0.0012217304902151227
01:00:0A:00:00:00:00;1727740811;01/10/24;00:00:11;1.017;-0.01;0.056;-0.0036651913542300463;-0.0036651913542300463;-0.0024434609804302454
01:00:0A:00:00:00:00;1727740812;01/10/24;00:00:12;1.01;-0.011;0.055;-0.0024434609804302454;-0.00855211354792118;0.0
01:00:0A:00:00:00:00;1727740813;01/10/24;00:00:13;1.01;-0.012;0.057;-0.0036651913542300463;-0.014660765416920185;0.004886921960860491
01:00:0A:00:00:00:00;1727740814;01/10/24;00:00:14;1.015;-0.011;0.057;-0.0036651913542300463;-0.014660765416920185;0.006108652334660292
01:00:0A:00:00:00:00;1727740815;01/10/24;00:00:15;1.024;-0.009;0.057;-0.0024434609804302454;-0.010995574295520782;0.0036651913542300463
01:00:0A:00:00:00:00;1727740816;01/10/24;00:00:16;1.022;-0.009;0.056;-0.0024434609804302454;-0.010995574295520782;0.0036651913542300463
01:00:0A:00:00:00:00;1727740817;01/10/24;00:00:17;1.015;-0.009;0.057;-0.0024434609804302454;-0.013439035043120384;-0.0024434609804302454
01:00:0A:00:00:00:00;1727740818;01/10/24;00:00:18;1.011;-0.014;0.058;-0.0012217304902151227;-0.014660765416920185;-0.0024434609804302454
01:00:0A:00:00:00:00;1727740819;01/10/24;00:00:19;1.013;-0.013;0.059;-0.0036651913542300463;-0.010995574295520782;0.0073303827084600925
01:00:0A:00:00:00:00;1727740820;01/10/24;00:00:20;1.017;-0.012;0.057;-0.0024434609804302454;-0.012217304669320583;0.009773843921720982
01:00:0A:00:00:00:00;1727740821;01/10/24;00:00:21;1.022;-0.008;0.056;-0.0024434609804302454;-0.009773843921720982;0.006108652334660292
01:00:0A:00:00:00:00;1727740822;01/10/24;00:00:22;1.02;-0.005;0.054;-0.0012217304902151227;-0.009773843921720982;-0.0036651913542300463
01:00:0A:00:00:00:00;1727740823;01/10/24;00:00:23;1.017;-0.009;0.055;0.0;-0.013439035043120384;-0.006108652334660292
01:00:0A:00:00:00:00;1727740824;01/10/24;00:00:24;1.011;-0.015;0.058;0.0;-0.015882495790719986;-0.0024434609804302454
01:00:0A:00:00:00:00;1727740825;01/10/24;00:00:25;1.011;-0.015;0.061;-0.0012217304902151227;-0.013439035043120384;0.0073303827084600925
01:00:0A:00:00:00:00;1727740826;01/10/24;00:00:26;1.015;-0.009;0.059;-0.0012217304902151227;-0.00855211354792118;0.012217304669320583
01:00:0A:00:00:00:00;1727740827;01/10/24;00:00:27;1.018;-0.008;0.055;0.0;-0.00855211354792118;0.0073303827084600925
01:00:0A:00:00:00:00;1727740828;01/10/24;00:00:28;1.02;-0.007;0.055;0.0;-0.012217304669320583;0.0012217304902151227
01:00:0A:00:00:00:00;1727740829;01/10/24;00:00:29;1.02;-0.008;0.056;0.0012217304902151227;-0.013439035043120384;-0.004886921960860491
01:00:0A:00:00:00:00;1727740830;01/10/24;00:00:30;1.017;-0.012;0.058;0.0012217304902151227;-0.012217304669320583;-0.004886921960860491
01:00:0A:00:00:00:00;1727740831;01/10/24;00:00:31;1.015;-0.015;0.059;0.0;-0.0073303827084600925;0.006108652334660292
01:00:0A:00:00:00:00;1727740832;01/10/24;00:00:32;1.015;-0.013;0.056;-0.0024434609804302454;-0.00855211354792118;0.013439035043120384
01:00:0A:00:00:00:00;1727740833;01/10/24;00:00:33;1.014;-0.007;0.055;-0.0012217304902151227;-0.00855211354792118;0.006108652334660292
01:00:0A:00:00:00:00;1727740834;01/10/24;00:00:34;1.016;-0.007;0.055;-0.0012217304902151227;-0.013439035043120384;0.0
01:00:0A:00:00:00:00;1727740835;01/10/24;00:00:35;1.017;-0.01;0.056;-0.0012217304902151227;-0.019547687843441963;-0.0036651913542300463
01:00:0A:00:00:00:00;1727740836;01/10/24;00:00:36;1.018;-0.012;0.059;0.0;-0.014660765416920185;-0.004886921960860491
01:00:0A:00:00:00:00;1727740837;01/10/24;00:00:37;1.019;-0.011;0.06;-0.0024434609804302454;-0.0073303827084600925;0.0024434609804302454
01:00:0A:00:00:00:00;1727740838;01/10/24;00:00:38;1.017;-0.012;0.056;-0.0024434609804302454;-0.0024434609804302454;0.0073303827084600925
01:00:0A:00:00:00:00;1727740839;01/10/24;00:00:39;1.014;-0.009;0.053;-0.0024434609804302454;-0.00855211354792118;0.006108652334660292
01:00:0A:00:00:00:00;1727740840;01/10/24;00:00:40;1.015;-0.007;0.056;-0.0024434609804302454;-0.01710422709584236;0.0
01:00:0A:00:00:00:00;1727740841;01/10/24;00:00:41;1.016;-0.008;0.055;-0.0024434609804302454;-0.019547687843441963;-0.0012217304902151227
01:00:0A:00:00:00:00;1727740842;01/10/24;00:00:42;1.02;-0.012;0.059;-0.0012217304902151227;-0.010995574295520782;-0.0024434609804302454
01:00:0A:00:00:00:00;1727740843;01/10/24;00:00:43;1.019;-0.011;0.059;-0.0024434609804302454;-0.004886921960860491;0.0
01:00:0A:00:00:00:00;1727740844;01/10/24;00:00:44;1.016;-0.011;0.057;-0.004886921960860491;-0.00855211354792118;0.00855211354792118
01:00:0A:00:00:00:00;1727740845;01/10/24;00:00:45;1.014;-0.009;0.056;-0.0036651913542300463;-0.006108652334660292;0.004886921960860491
01:00:0A:00:00:00:00;1727740846;01/10/24;00:00:46;1.012;-0.007;0.056;-0.0036651913542300463;-0.013439035043120384;0.0012217304902151227
01:00:0A:00:00:00:00;1727740847;01/10/24;00:00:47;1.014;-0.008;0.055;-0.0036651913542300463;-0.018325956538319588;0.0012217304902151227
01:00:0A:00:00:00:00;1727740848;01/10/24;00:00:48;1.018;-0.011;0.056;-0.0024434609804302454;-0.015882495790719986;0.0
01:00:0A:00:00:00:00;1727740849;01/10/24;00:00:49;1.02;-0.009;0.059;-0.0036651913542300463;-0.0073303827084600925;0.0
01:00:0A:00:00:00:00;1727740850;01/10/24;00:00:50;1.02;-0.011;0.056;-0.0036651913542300463;-0.006108652334660292;0.0036651913542300463
01:00:0A:00:00:00:00;1727740851;01/10/24;00:00:51;1.016;-0.011;0.054;-0.0036651913542300463;-0.010995574295520782;0.004886921960860491
01:00:0A:00:00:00:00;1727740852;01/10/24;00:00:52;1.016;-0.008;0.057;-0.0024434609804302454;-0.00855211354792118;0.0024434609804302454
01:00:0A:00:00:00:00;1727740853;01/10/24;00:00:53;1.015;-0.01;0.057;-0.0036651913542300463;-0.012217304669320583;0.0036651913542300463
01:00:0A:00:00:00:00;1727740854;01/10/24;00:00:54;1.014;-0.011;0.055;-0.0024434609804302454;-0.010995574295520782;0.0012217304902151227
01:00:0A:00:00:00:00;1727740855;01/10/24;00:00:55;1.016;-0.011;0.058;-0.0024434609804302454;-0.013439035043120384;0.0
01:00:0A:00:00:00:00;1727740856;01/10/24;00:00:56;1.017;-0.011;0.058;-0.0036651913542300463;-0.015882495790719986;0.0024434609804302454
01:00:0A:00:00:00:00;1727740857;01/10/24;00:00:57;1.019;-0.013;0.056;-0.0024434609804302454;-0.00855211354792118;0.0024434609804302454
01:00:0A:00:00:00:00;1727740858;01/10/24;00:00:58;1.017;-0.01;0.058;-0.0024434609804302454;-0.00855211354792118;0.0036651913542300463
01:00:0A:00:00:00:00;1727740859;01/10/24;00:00:59;1.015;-0.01;0.056;-0.0024434609804302454;-0.010995574295520782;0.004886921960860491
01:00:0A:00:00:00:00;1727740860;01/10/24;00:01:00;1.014;-0.01;0.054;-0.0024434609804302454;-0.013439035043120384;0.0036651913542300463
01:00:0A:00:00:00:00;1727740861;01/10/24;00:01:01;1.016;-0.009;0.056;-0.0012217304902151227;-0.010995574295520782;0.0
01:00:0A:00:00:00:00;1727740862;01/10/24;00:01:02;1.017;-0.011;0.058;-0.0012217304902151227;-0.015882495790719986;0.0012217304902151227
01:00:0A:00:00:00:00;1727740863;01/10/24;00:01:03;1.016;-0.012;0.056;-0.0012217304902151227;-0.013439035043120384;0.0012217304902151227
01:00:0A:00:00:00:00;1727740864;01/10/24;00:01:04;1.018;-0.012;0.058;0.0;-0.006108652334660292;0.0036651913542300463
01:00:0A:00:00:00:00;1727740865;01/10/24;00:01:05;1.017;-0.011;0.06;-0.0012217304902151227;-0.010995574295520782;0.006108652334660292
01:00:0A:00:00:00:00;1727740866;01/10/24;00:01:06;1.016;-0.01;0.056;0.0;-0.00855211354792118;0.0036651913542300463
01:00:0A:00:00:00:00;1727740867;01/10/24;00:01:07;1.016;-0.01;0.055;0.0012217304902151227;-0.009773843921720982;-0.0012217304902151227
01:00:0A:00:00:00:00;1727740868;01/10/24;00:01:08;1.018;-0.01;0.058;0.0012217304902151227;-0.013439035043120384;-0.0012217304902151227
01:00:0A:00:00:00:00;1727740869;01/10/24;00:01:09;1.016;-0.012;0.056;0.0012217304902151227;-0.014660765416920185;0.0024434609804302454
01:00:0A:00:00:00:00;1727740870;01/10/24;00:01:10;1.016;-0.012;0.057;0.0024434609804302454;-0.00855211354792118;0.0024434609804302454
01:00:0A:00:00:00:00;1727740871;01/10/24;00:01:11;1.016;-0.009;0.059;0.0024434609804302454;-0.009773843921720982;0.004886921960860491
01:00:0A:00:00:00:00;1727740872;01/10/24;00:01:12;1.017;-0.009;0.055;0.0024434609804302454;-0.012217304669320583;0.006108652334660292
01:00:0A:00:00:00:00;1727740873;01/10/24;00:01:13;1.015;-0.009;0.056;0.0036651913542300463;-0.0073303827084600925;-0.0012217304902151227
01:00:0A:00:00:00:00;1727740874;01/10/24;00:01:14;1.016;-0.009;0.058;0.0036651913542300463;-0.014660765416920185;-0.0012217304902151227
01:00:0A:00:00:00:00;1727740875;01/10/24;00:01:15;1.016;-0.013;0.057;0.0036651913542300463;-0.013439035043120384;0.0012217304902151227
01:00:0A:00:00:00:00;1727740876;01/10/24;00:01:16;1.017;-0.012;0.056;0.0036651913542300463;-0.0073303827084600925;0.004886921960860491
01:00:0A:00:00:00:00;1727740877;01/10/24;00:01:17;1.016;-0.01;0.058;0.0036651913542300463;-0.010995574295520782;0.00855211354792118
01:00:0A:00:00:00:00;1727740878;01/10/24;00:01:18;1.015;-0.008;0.055;0.0036651913542300463;-0.013439035043120384;0.004886921960860491
01:00:0A:00:00:00:00;1727740879;01/10/24;00:01:19;1.016;-0.008;0.054;0.006108652334660292;-0.00855211354792118;-0.0012217304902151227
01:00:0A:00:00:00:00;1727740880;01/10/24;00:01:20;1.016;-0.009;0.058;0.006108652334660292;-0.012217304669320583;-0.0036651913542300463
01:00:0A:00:00:00:00;1727740881;01/10/24;00:01:21;1.016;-0.013;0.056;0.006108652334660292;-0.015882495790719986;0.0012217304902151227
01:00:0A:00:00:00:00;1727740882;01/10/24;00:01:22;1.016;-0.012;0.056;0.0073303827084600925;-0.006108652334660292;0.004886921960860491
01:00:0A:00:00:00:00;1727740883;01/10/24;00:01:23;1.017;-0.01;0.058;0.0073303827084600925;-0.00855211354792118;0.00855211354792118
01:00:0A:00:00:00:00;1727740884;01/10/24;00:01:24;1.018;-0.009;0.055;0.0073303827084600925;-0.014660765416920185;0.006108652334660292
01:00:0A:00:00:00:00;1727740885;01/10/24;00:01:25;1.017;-0.009;0.056;0.00855211354792118;-0.009773843921720982;0.0
01:00:0A:00:00:00:00;1727740886;01/10/24;00:01:26;1.016;-0.009;0.059;0.009773843921720982;-0.009773843921720982;-0.0012217304902151227
01:00:0A:00:00:00:00;1727740887;01/10/24;00:01:27;1.015;-0.013;0.056;0.00855211354792118;-0.013439035043120384;0.0024434609804302454
01:00:0A:00:00:00:00;1727740888;01/10/24;00:01:28;1.016;-0.012;0.055;0.009773843921720982;-0.00855211354792118;0.004886921960860491
01:00:0A:00:00:00:00;1727740889;01/10/24;00:01:29;1.016;-0.009;0.06;0.00855211354792118;-0.009773843921720982;0.006108652334660292
01:00:0A:00:00:00:00;1727740890;01/10/24;00:01:30;1.016;-0.009;0.057;0.009773843921720982;-0.013439035043120384;0.0036651913542300463
01:00:0A:00:00:00:00;1727740891;01/10/24;00:01:31;1.016;-0.01;0.055;0.009773843921720982;-0.00855211354792118;-0.0012217304902151227
01:00:0A:00:00:00:00;1727740892;01/10/24;00:01:32;1.016;-0.01;0.057;0.009773843921720982;-0.009773843921720982;0.0012217304902151227
01:00:0A:00:00:00:00;1727740893;01/10/24;00:01:33;1.016;-0.012;0.057;0.00855211354792118;-0.01710422709584236;0.0036651913542300463
01:00:0A:00:00:00:00;1727740894;01/10/24;00:01:34;1.019;-0.01;0.056;0.009773843921720982;-0.00855211354792118;0.004886921960860491
01:00:0A:00:00:00:00;1727740895;01/10/24;00:01:35;1.018;-0.008;0.06;0.009773843921720982;-0.004886921960860491;0.0036651913542300463
01:00:0A:00:00:00:00;1727740896;01/10/24;00:01:36;1.019;-0.008;0.058;0.009773843921720982;-0.010995574295520782;0.0024434609804302454
01:00:0A:00:00:00:00;1727740897;01/10/24;00:01:37;1.016;-0.01;0.055;0.010995574295520782;-0.00855211354792118;-0.0012217304902151227
01:00:0A:00:00:00:00;1727740898;01/10/24;00:01:38;1.013;-0.011;0.057;0.012217304669320583;-0.0073303827084600925;0.0
01:00:0A:00:00:00:00;1727740899;01/10/24;00:01:39;1.013;-0.01;0.057;0.010995574295520782;-0.01710422709584236;0.0036651913542300463
01:00:0A:00:00:00:00;1727740900;01/10/24;00:01:40;1.015;-0.012;0.056;0.012217304669320583;-0.015882495790719986;0.0036651913542300463
01:00:0A:00:00:00:00;1727740901;01/10/24;00:01:41;1.019;-0.01;0.061;0.012217304669320583;-0.009773843921720982;0.0036651913542300463
01:00:0A:00:00:00:00;1727740902;01/10/24;00:01:42;1.019;-0.009;0.06;0.012217304669320583;-0.009773843921720982;0.0024434609804302454
01:00:0A:00:00:00:00;1727740903;01/10/24;00:01:43;1.017;-0.011;0.054;0.013439035043120384;-0.0073303827084600925;0.0
01:00:0A:00:00:00:00;1727740904;01/10/24;00:01:44;1.016;-0.01;0.056;0.013439035043120384;-0.0073303827084600925;0.0024434609804302454
01:00:0A:00:00:00:00;1727740905;01/10/24;00:01:45;1.015;-0.01;0.058;0.012217304669320583;-0.014660765416920185;0.004886921960860491
01:00:0A:00:00:00:00;1727740906;01/10/24;00:01:46;1.016;-0.01;0.055;0.013439035043120384;-0.012217304669320583;0.0024434609804302454
01:00:0A:00:00:00:00;1727740907;01/10/24;00:01:47;1.016;-0.009;0.057;0.014660765416920185;-0.0073303827084600925;0.0012217304902151227
01:00:0A:00:00:00:00;1727740908;01/10/24;00:01:48;1.016;-0.009;0.058;0.013439035043120384;-0.013439035043120384;0.0036651913542300463
01:00:0A:00:00:00:00;1727740909;01/10/24;00:01:49;1.016;-0.011;0.055;0.013439035043120384;-0.012217304669320583;0.0012217304902151227
01:00:0A:00:00:00:00;1727740910;01/10/24;00:01:50;1.016;-0.009;0.057;0.014660765416920185;-0.009773843921720982;0.0012217304902151227
01:00:0A:00:00:00:00;1727740911;01/10/24;00:01:51;1.017;-0.01;0.058;0.012217304669320583;-0.014660765416920185;0.006108652334660292
01:00:0A:00:00:00:00;1727740912;01/10/24;00:01:52;1.018;-0.01;0.056;0.012217304669320583;-0.012217304669320583;0.0036651913542300463
01:00:0A:00:00:00:00;1727740913;01/10/24;00:01:53;1.018;-0.01;0.058;0.012217304669320583;-0.004886921960860491;0.0012217304902151227
01:00:0A:00:00:00:00;1727740914;01/10/24;00:01:54;1.015;-0.01;0.058;0.010995574295520782;-0.0073303827084600925;0.0036651913542300463
01:00:0A:00:00:00:00;1727740915;01/10/24;00:01:55;1.012;-0.011;0.052;0.010995574295520782;-0.010995574295520782;0.0036651913542300463
01:00:0A:00:00:00:00;1727740916;01/10/24;00:01:56;1.014;-0.01;0.055;0.012217304669320583;-0.012217304669320583;0.0012217304902151227
01:00:0A:00:00:00:00;1727740917;01/10/24;00:01:57;1.016;-0.009;0.057;0.012217304669320583;-0.01710422709584236;0.0036651913542300463
01:00:0A:00:00:00:00;1727740918;01/10/24;00:01:58;1.019;-0.01;0.056;0.012217304669320583;-0.013439035043120384;0.0036651913542300463
01:00:0A:00:00:00:00;1727740919;01/10/24;00:01:59;1.017;-0.011;0.057;0.014660765416920185;-0.006108652334660292;0.0
01:00:0A:00:00:00:00;1727740920;01/10/24;00:02:00;1.016;-0.01;0.059;0.014660765416920185;-0.009773843921720982;0.0036651913542300463
01:00:0A:00:00:00:00;1727740921;01/10/24;00:02:01;1.015;-0.009;0.056;0.014660765416920185;-0.012217304669320583;0.0024434609804302454
01:00:0A:00:00:00:00;1727740922;01/10/24;00:02:02;1.016;-0.01;0.056;0.015882495790719986;-0.0073303827084600925;0.0
01:00:0A:00:00:00:00;1727740923;01/10/24;00:02:03;1.016;-0.011;0.058;0.014660765416920185;-0.013439035043120384;0.0024434609804302454
01:00:0A:00:00:00:00;1727740924;01/10/24;00:02:04;1.018;-0.01;0.057;0.014660765416920185;-0.013439035043120384;0.006108652334660292
01:00:0A:00:00:00:00;1727740925;01/10/24;00:02:05;1.016;-0.009;0.057;0.015882495790719986;-0.006108652334660292;0.0012217304902151227
01:00:0A:00:00:00:00;1727740926;01/10/24;00:02:06;1.016;-0.01;0.057;0.015882495790719986;-0.00855211354792118;0.0024434609804302454
01:00:0A:00:00:00:00;1727740927;01/10/24;00:02:07;1.015;-0.011;0.055;0.015882495790719986;-0.014660765416920185;0.0036651913542300463
01:00:0A:00:00:00:00;1727740928;01/10/24;00:02:08;1.016;-0.011;0.055;0.01710422709584236;-0.010995574295520782;0.0012217304902151227
01:00:0A:00:00:00:00;1727740929;01/10/24;00:02:09;1.017;-0.011;0.06;0.01710422709584236;-0.010995574295520782;0.0024434609804302454
01:00:0A:00:00:00:00;1727740930;01/10/24;00:02:10;1.017;-0.012;0.057;0.01710422709584236;-0.010995574295520782;0.006108652334660292
01:00:0A:00:00:00:00;1727740931;01/10/24;00:02:11;1.016;-0.011;0.056;0.019547687843441963;-0.006108652334660292;0.0036651913542300463
01:00:0A:00:00:00:00;1727740932;01/10/24;00:02:12;1.015;-0.009;0.057;0.019547687843441963;-0.012217304669320583;0.0024434609804302454
01:00:0A:00:00:00:00;1727740933;01/10/24;00:02:13;1.016;-0.01;0.056;0.019547687843441963;-0.014660765416920185;0.0024434609804302454
01:00:0A:00:00:00:00;1727740934;01/10/24;00:02:14;1.017;-0.012;0.055;0.021991148591041565;-0.010995574295520782;0.0
01:00:0A:00:00:00:00;1727740935;01/10/24;00:02:15;1.02;-0.011;0.059;0.021991148591041565;-0.010995574295520782;0.0024434609804302454
01:00:0A:00:00:00:00;1727740936;01/10/24;00:02:16;1.017;-0.012;0.058;0.02076941914856434;-0.010995574295520782;0.0073303827084600925
01:00:0A:00:00:00:00;1727740937;01/10/24;00:02:17;1.016;-0.011;0.055;0.02321287989616394;-0.0073303827084600925;0.0036651913542300463
01:00:0A:00:00:00:00;1727740938;01/10/24;00:02:18;1.015;-0.009;0.056;0.024434609338641167;-0.009773843921720982;0.0024434609804302454
01:00:0A:00:00:00:00;1727740939;01/10/24;00:02:19;1.016;-0.01;0.057;0.02321287989616394;-0.01710422709584236;0.0036651913542300463
01:00:0A:00:00:00:00;1727740940;01/10/24;00:02:20;1.017;-0.012;0.056;0.025656338781118393;-0.012217304669320583;0.0
01:00:0A:00:00:00:00;1727740941;01/10/24;00:02:21;1.019;-0.011;0.059;0.025656338781118393;-0.0073303827084600925;0.0012217304902151227
01:00:0A:00:00:00:00;1727740942;01/10/24;00:02:22;1.017;-0.011;0.058;0.024434609338641167;-0.009773843921720982;0.006108652334660292
01:00:0A:00:00:00:00;1727740943;01/10/24;00:02:23;1.015;-0.012;0.056;0.02687807008624077;-0.00855211354792118;0.004886921960860491
01:00:0A:00:00:00:00;1727740944;01/10/24;00:02:24;1.015;-0.008;0.056;0.02687807008624077;-0.010995574295520782;0.0012217304902151227
01:00:0A:00:00:00:00;1727740945;01/10/24;00:02:25;1.015;-0.01;0.058;0.02687807008624077;-0.014660765416920185;0.0024434609804302454
01:00:0A:00:00:00:00;1727740946;01/10/24;00:02:26;1.018;-0.012;0.056;0.028099799528717995;-0.010995574295520782;0.0012217304902151227
01:00:0A:00:00:00:00;1727740947;01/10/24;00:02:27;1.017;-0.01;0.059;0.028099799528717995;-0.00855211354792118;0.0024434609804302454
01:00:0A:00:00:00:00;1727740948;01/10/24;00:02:28;1.017;-0.01;0.057;0.02687807008624077;-0.009773843921720982;0.0073303827084600925
01:00:0A:00:00:00:00;1727740949;01/10/24;00:02:29;1.016;-0.012;0.055;0.028099799528717995;-0.00855211354792118;0.0036651913542300463
01:00:0A:00:00:00:00;1727740950;01/10/24;00:02:30;1.015;-0.009;0.057;0.02932153083384037;-0.009773843921720982;0.0012217304902151227
01:00:0A:00:00:00:00;1727740951;01/10/24;00:02:31;1.016;-0.01;0.057;0.028099799528717995;-0.015882495790719986;0.004886921960860491
01:00:0A:00:00:00:00;1727740952;01/10/24;00:02:32;1.016;-0.011;0.057;0.02932153083384037;-0.010995574295520782;0.0012217304902151227
01:00:0A:00:00:00:00;1727740953;01/10/24;00:02:33;1.016;-0.008;0.058;0.02932153083384037;-0.0073303827084600925;0.0
01:00:0A:00:00:00:00;1727740954;01/10/24;00:02:34;1.015;-0.01;0.057;0.02687807008624077;-0.009773843921720982;0.0073303827084600925
01:00:0A:00:00:00:00;1727740955;01/10/24;00:02:35;1.015;-0.012;0.056;0.028099799528717995;-0.012217304669320583;0.004886921960860491
01:00:0A:00:00:00:00;1727740956;01/10/24;00:02:36;1.015;-0.008;0.056;0.028099799528717995;-0.012217304669320583;0.0012217304902151227
01:00:0A:00:00:00:00;1727740957;01/10/24;00:02:37;1.017;-0.009;0.058;0.02687807008624077;-0.013439035043120384;0.0036651913542300463
01:00:0A:00:00:00:00;1727740958;01/10/24;00:02:38;1.018;-0.013;0.057;0.02687807008624077;-0.012217304669320583;0.0036651913542300463
01:00:0A:00:00:00:00;1727740959;01/10/24;00:02:39;1.016;-0.011;0.057;0.02687807008624077;-0.0073303827084600925;0.0012217304902151227
01:00:0A:00:00:00:00;1727740960;01/10/24;00:02:40;1.016;-0.009;0.058;0.024434609338641167;-0.009773843921720982;0.006108652334660292
01:00:0A:00:00:00:00;1727740961;01/10/24;00:02:41;1.016;-0.011;0.056;0.025656338781118393;-0.010995574295520782;0.0024434609804302454
01:00:0A:00:00:00:00;1727740962;01/10/24;00:02:42;1.016;-0.01;0.057;0.02687807008624077;-0.010995574295520782;0.0
01:00:0A:00:00:00:00;1727740963;01/10/24;00:02:43;1.016;-0.009;0.057;0.024434609338641167;-0.012217304669320583;0.006108652334660292
01:00:0A:00:00:00:00;1727740964;01/10/24;00:02:44;1.016;-0.012;0.057;0.024434609338641167;-0.010995574295520782;0.0036651913542300463
01:00:0A:00:00:00:00;1727740965;01/10/24;00:02:45;1.016;-0.01;0.057;0.02687807008624077;-0.009773843921720982;0.0
01:00:0A:00:00:00:00;1727740966;01/10/24;00:02:46;1.017;-0.008;0.056;0.024434609338641167;-0.010995574295520782;0.004886921960860491
01:00:0A:00:00:00:00;1727740967;01/10/24;00:02:47;1.017;-0.012;0.057;0.024434609338641167;-0.012217304669320583;0.004886921960860491
01:00:0A:00:00:00:00;1727740968;01/10/24;00:02:48;1.016;-0.011;0.058;0.025656338781118393;-0.010995574295520782;0.0
01:00:0A:00:00:00:00;1727740969;01/10/24;00:02:49;1.017;-0.01;0.058;0.024434609338641167;-0.009773843921720982;0.004886921960860491
01:00:0A:00:00:00:00;1727740970;01/10/24;00:02:50;1.016;-0.012;0.057;0.024434609338641167;-0.009773843921720982;0.006108652334660292
01:00:0A:00:00:00:00;1727740971;01/10/24;00:02:51;1.016;-0.01;0.057;0.025656338781118393;-0.009773843921720982;0.0
01:00:0A:00:00:00:00;1727740972;01/10/24;00:02:52;1.016;-0.009;0.056;0.024434609338641167;-0.012217304669320583;0.0036651913542300463
01:00:0A:00:00:00:00;1727740973;01/10/24;00:02:53;1.017;-0.011;0.057;0.024434609338641167;-0.013439035043120384;0.004886921960860491
01:00:0A:00:00:00:00;1727740974;01/10/24;00:02:54;1.016;-0.011;0.058;0.025656338781118393;-0.010995574295520782;0.0012217304902151227
01:00:0A:00:00:00:00;1727740975;01/10/24;00:02:55;1.016;-0.007;0.058;0.024434609338641167;-0.00855211354792118;0.004886921960860491
01:00:0A:00:00:00:00;1727740976;01/10/24;00:02:56;1.015;-0.011;0.058;0.024434609338641167;-0.00855211354792118;0.004886921960860491
01:00:0A:00:00:00:00;1727740977;01/10/24;00:02:57;1.016;-0.01;0.055;0.025656338781118393;-0.010995574295520782;0.0
01:00:0A:00:00:00:00;1727740978;01/10/24;00:02:58;1.017;-0.01;0.055;0.024434609338641167;-0.012217304669320583;0.0036651913542300463
01:00:0A:00:00:00:00;1727740979;01/10/24;00:02:59;1.016;-0.012;0.058;0.02321287989616394;-0.013439035043120384;0.006108652334660292
01:00:0A:00:00:00:00;1727740980;01/10/24;00:03:00;1.016;-0.01;0.059;0.025656338781118393;-0.010995574295520782;0.0
01:00:0A:00:00:00:00;1727740981;01/10/24;00:03:01;1.016;-0.009;0.058;0.024434609338641167;-0.00855211354792118;0.0024434609804302454
01:00:0A:00:00:00:00;1727740982;01/10/24;00:03:02;1.017;-0.011;0.056;0.021991148591041565;-0.00855211354792118;0.006108652334660292
01:00:0A:00:00:00:00;1727740983;01/10/24;00:03:03;1.016;-0.011;0.056;0.024434609338641167;-0.010995574295520782;0.0012217304902151227
01:00:0A:00:00:00:00;1727740984;01/10/24;00:03:04;1.016;-0.009;0.056;0.02321287989616394;-0.014660765416920185;0.0036651913542300463
01:00:0A:00:00:00:00;1727740985;01/10/24;00:03:05;1.017;-0.011;0.058;0.021991148591041565;-0.013439035043120384;0.004886921960860491
01:00:0A:00:00:00:00;1727740986;01/10/24;00:03:06;1.016;-0.011;0.059;0.02321287989616394;-0.009773843921720982;0.0012217304902151227
01:00:0A:00:00:00:00;1727740987;01/10/24;00:03:07;1.016;-0.007;0.057;0.021991148591041565;-0.00855211354792118;0.0024434609804302454
01:00:0A:00:00:00:00;1727740988;01/10/24;00:03:08;1.016;-0.011;0.056;0.02076941914856434;-0.00855211354792118;0.004886921960860491
01:00:0A:00:00:00:00;1727740989;01/10/24;00:03:09;1.017;-0.012;0.055;0.021991148591041565;-0.012217304669320583;0.0012217304902151227
01:00:0A:00:00:00:00;1727740990;01/10/24;00:03:10;1.017;-0.009;0.055;0.021991148591041565;-0.014660765416920185;0.0024434609804302454
01:00:0A:00:00:00:00;1727740991;01/10/24;00:03:11;1.016;-0.009;0.058;0.019547687843441963;-0.012217304669320583;0.0073303827084600925
01:00:0A:00:00:00:00;1727740992;01/10/24;00:03:12;1.016;-0.011;0.059;0.021991148591041565;-0.010995574295520782;0.0012217304902151227
01:00:0A:00:00:00:00;1727740993;01/10/24;00:03:13;1.017;-0.008;0.057;0.021991148591041565;-0.0073303827084600925;0.0012217304902151227
01:00:0A:00:00:00:00;1727740994;01/10/24;00:03:14;1.016;-0.009;0.056;0.019547687843441963;-0.0073303827084600925;0.004886921960860491
01:00:0A:00:00:00:00;1727740995;01/10/24;00:03:15;1.016;-0.013;0.055;0.02076941914856434;-0.012217304669320583;0.0024434609804302454
01:00:0A:00:00:00:00;1727740996;01/10/24;00:03:16;1.016;-0.009;0.055;0.02076941914856434;-0.014660765416920185;0.0024434609804302454
01:00:0A:00:00:00:00;1727740997;01/10/24;00:03:17;1.017;-0.009;0.058;0.019547687843441963;-0.012217304669320583;0.006108652334660292
01:00:0A:00:00:00:00;1727740998;01/10/24;00:03:18;1.016;-0.012;0.059;0.02076941914856434;-0.009773843921720982;0.0024434609804302454
01:00:0A:00:00:00:00;1727740999;01/10/24;00:03:19;1.016;-0.009;0.057;0.02076941914856434;-0.00855211354792118;0.0
01:00:0A:00:00:00:00;1727741000;01/10/24;00:03:20;1.016;-0.01;0.056;0.019547687843441963;-0.00855211354792118;0.004886921960860491
01:00:0A:00:00:00:00;1727741001;01/10/24;00:03:21;1.016;-0.013;0.055;0.02076941914856434;-0.012217304669320583;0.0024434609804302454
01:00:0A:00:00:00:00;1727741002;01/10/24;00:03:22;1.017;-0.009;0.056;0.019547687843441963;-0.014660765416920185;0.0012217304902151227
01:00:0A:00:00:00:00;1727741003;01/10/24;00:03:23;1.017;-0.009;0.057;0.018325956538319588;-0.012217304669320583;0.006108652334660292
01:00:0A:00:00:00:00;1727741004;01/10/24;00:03:24;1.017;-0.011;0.059;0.019547687843441963;-0.009773843921720982;0.0024434609804302454
01:00:0A:00:00:00:00;1727741005;01/10/24;00:03:25;1.016;-0.008;0.058;0.019547687843441963;-0.00855211354792118;0.0
01:00:0A:00:00:00:00;1727741006;01/10/24;00:03:26;1.016;-0.01;0.056;0.01710422709584236;-0.00855211354792118;0.0024434609804302454
01:00:0A:00:00:00:00;1727741007;01/10/24;00:03:27;1.015;-0.012;0.056;0.01710422709584236;-0.010995574295520782;0.004886921960860491
01:00:0A:00:00:00:00;1727741008;01/10/24;00:03:28;1.017;-0.01;0.055;0.018325956538319588;-0.013439035043120384;0.0024434609804302454
01:00:0A:00:00:00:00;1727741009;01/10/24;00:03:29;1.016;-0.009;0.057;0.01710422709584236;-0.010995574295520782;0.004886921960860491
01:00:0A:00:00:00:00;1727741010;01/10/24;00:03:30;1.017;-0.009;0.058;0.01710422709584236;-0.009773843921720982;0.0024434609804302454
01:00:0A:00:00:00:00;1727741011;01/10/24;00:03:31;1.016;-0.01;0.057;0.018325956538319588;-0.010995574295520782;0.0
01:00:0A:00:00:00:00;1727741012;01/10/24;00:03:32;1.016;-0.009;0.057;0.015882495790719986;-0.00855211354792118;0.004886921960860491
01:00:0A:00:00:00:00;1727741013;01/10/24;00:03:33;1.016;-0.011;0.056;0.01710422709584236;-0.010995574295520782;0.0024434609804302454
01:00:0A:00:00:00:00;1727741014;01/10/24;00:03:34;1.016;-0.009;0.057;0.01710422709584236;-0.012217304669320583;0.0012217304902151227
01:00:0A:00:00:00:00;1727741015;01/10/24;00:03:35;1.016;-0.009;0.057;0.015882495790719986;-0.010995574295520782;0.0036651913542300463
01:00:0A:00:00:00:00;1727741016;01/10/24;00:03:36;1.016;-0.011;0.058;0.015882495790719986;-0.009773843921720982;0.0036651913542300463
01:00:0A:00:00:00:00;1727741017;01/10/24;00:03:37;1.016;-0.01;0.057;0.01710422709584236;-0.010995574295520782;0.0012217304902151227
01:00:0A:00:00:00:00;1727741018;01/10/24;00:03:38;1.017;-0.01;0.056;0.015882495790719986;-0.009773843921720982;0.0024434609804302454
01:00:0A:00:00:00:00;1727741019;01/10/24;00:03:39;1.016;-0.012;0.058;0.014660765416920185;-0.00855211354792118;0.004886921960860491
01:00:0A:00:00:00:00;1727741020;01/10/24;00:03:40;1.016;-0.01;0.057;0.015882495790719986;-0.012217304669320583;0.0012217304902151227
01:00:0A:00:00:00:00;1727741021;01/10/24;00:03:41;1.016;-0.01;0.055;0.014660765416920185;-0.010995574295520782;0.0036651913542300463
01:00:0A:00:00:00:00;1727741022;01/10/24;00:03:42;1.016;-0.012;0.057;0.014660765416920185;-0.010995574295520782;0.0036651913542300463
01:00:0A:00:00:00:00;1727741023;01/10/24;00:03:43;1.016;-0.01;0.057;0.014660765416920185;-0.012217304669320583;0.0024434609804302454
01:00:0A:00:00:00:00;1727741024;01/10/24;00:03:44;1.017;-0.01;0.056;0.013439035043120384;-0.010995574295520782;0.0036651913542300463
01:00:0A:00:00:00:00;1727741025;01/10/24;00:03:45;1.017;-0.01;0.057;0.013439035043120384;-0.009773843921720982;0.0024434609804302454
01:00:0A:00:00:00:00;1727741026;01/10/24;00:03:46;1.016;-0.011;0.056;0.014660765416920185;-0.010995574295520782;0.0012217304902151227
01:00:0A:00:00:00:00;1727741027;01/10/24;00:03:47;1.016;-0.009;0.055;0.013439035043120384;-0.010995574295520782;0.0036651913542300463
01:00:0A:00:00:00:00;1727741028;01/10/24;00:03:48;1.016;-0.011;0.056;0.013439035043120384;-0.010995574295520782;0.006108652334660292
01:00:0A:00:00:00:00;1727741029;01/10/24;00:03:49;1.017;-0.011;0.057;0.013439035043120384;-0.013439035043120384;0.0012217304902151227
01:00:0A:00:00:00:00;1727741030;01/10/24;00:03:50;1.017;-0.011;0.058;0.013439035043120384;-0.010995574295520782;0.0036651913542300463
01:00:0A:00:00:00:00;1727741031;01/10/24;00:03:51;1.016;-0.01;0.057;0.013439035043120384;-0.0073303827084600925;0.004886921960860491
01:00:0A:00:00:00:00;1727741032;01/10/24;00:03:52;1.016;-0.011;0.057;0.013439035043120384;-0.009773843921720982;0.0012217304902151227
01:00:0A:00:00:00:00;1727741033;01/10/24;00:03:53;1.015;-0.01;0.054;0.013439035043120384;-0.010995574295520782;0.0024434609804302454
01:00:0A:00:00:00:00;1727741034;01/10/24;00:03:54;1.015;-0.012;0.056;0.012217304669320583;-0.012217304669320583;0.0036651913542300463
01:00:0A:00:00:00:00;1727741035;01/10/24;00:03:55;1.016;-0.012;0.057;0.013439035043120384;-0.014660765416920185;0.0036651913542300463
01:00:0A:00:00:00:00;1727741036;01/10/24;00:03:56;1.019;-0.009;0.057;0.013439035043120384;-0.010995574295520782;0.0024434609804302454
01:00:0A:00:00:00:00;1727741037;01/10/24;00:03:57;1.018;-0.011;0.058;0.012217304669320583;-0.00855211354792118;0.0036651913542300463
01:00:0A:00:00:00:00;1727741038;01/10/24;00:03:58;1.016;-0.01;0.058;0.013439035043120384;-0.00855211354792118;0.0012217304902151227
01:00:0A:00:00:00:00;1727741039;01/10/24;00:03:59;1.015;-0.009;0.056;0.013439035043120384;-0.009773843921720982;0.0024434609804302454
01:00:0A:00:00:00:00;1727741040;01/10/24;00:04:00;1.015;-0.011;0.056;0.012217304669320583;-0.012217304669320583;0.004886921960860491
01:00:0A:00:00:00:00;1727741041;01/10/24;00:04:01;1.016;-0.011;0.057;0.013439035043120384;-0.015882495790719986;0.0024434609804302454
01:00:0A:00:00:00:00;1727741042;01/10/24;00:04:02;1.017;-0.01;0.058;0.013439035043120384;-0.012217304669320583;0.0036651913542300463
01:00:0A:00:00:00:00;1727741043;01/10/24;00:04:03;1.018;-0.009;0.057;0.012217304669320583;-0.006108652334660292;0.0036651913542300463
01:00:0A:00:00:00:00;1727741044;01/10/24;00:04:04;1.016;-0.011;0.056;0.013439035043120384;-0.00855211354792118;0.0012217304902151227
01:00:0A:00:00:00:00;1727741045;01/10/24;00:04:05;1.015;-0.01;0.055;0.013439035043120384;-0.012217304669320583;0.0012217304902151227
01:00:0A:00:00:00:00;1727741046;01/10/24;00:04:06;1.015;-0.01;0.056;0.012217304669320583;-0.012217304669320583;0.0036651913542300463
01:00:0A:00:00:00:00;1727741047;01/10/24;00:04:07;1.016;-0.01;0.056;0.013439035043120384;-0.013439035043120384;0.0036651913542300463
01:00:0A:00:00:00:00;1727741048;01/10/24;00:04:08;1.017;-0.01;0.057;0.013439035043120384;-0.013439035043120384;0.0024434609804302454
01:00:0A:00:00:00:00;1727741049;01/10/24;00:04:09;1.018;-0.011;0.058;0.012217304669320583;-0.0073303827084600925;0.0036651913542300463
01:00:0A:00:00:00:00;1727741050;01/10/24;00:04:10;1.016;-0.011;0.058;0.012217304669320583;-0.00855211354792118;0.0024434609804302454
01:00:0A:00:00:00:00;1727741051;01/10/24;00:04:11;1.015;-0.01;0.054;0.012217304669320583;-0.010995574295520782;0.0024434609804302454
01:00:0A:00:00:00:00;1727741052;01/10/24;00:04:12;1.014;-0.01;0.055;0.012217304669320583;-0.012217304669320583;0.0036651913542300463
01:00:0A:00:00:00:00;1727741053;01/10/24;00:04:13;1.016;-0.01;0.057;0.012217304669320583;-0.014660765416920185;0.0024434609804302454
01:00:0A:00:00:00:00;1727741054;01/10/24;00:04:14;1.018;-0.011;0.057;0.010995574295520782;-0.010995574295520782;0.0024434609804302454
01:00:0A:00:00:00:00;1727741055;01/10/24;00:04:15;1.017;-0.01;0.056;0.010995574295520782;-0.00855211354792118;0.0036651913542300463
01:00:0A:00:00:00:00;1727741056;01/10/24;00:04:16;1.016;-0.011;0.057;0.010995574295520782;-0.00855211354792118;0.0024434609804302454
01:00:0A:00:00:00:00;1727741057;01/10/24;00:04:17;1.015;-0.009;0.056;0.010995574295520782;-0.012217304669320583;0.0012217304902151227
01:00:0A:00:00:00:00;1727741058;01/10/24;00:04:18;1.015;-0.011;0.057;0.009773843921720982;-0.010995574295520782;0.0036651913542300463
01:00:0A:00:00:00:00;1727741059;01/10/24;00:04:19;1.018;-0.01;0.057;0.009773843921720982;-0.012217304669320583;0.0024434609804302454
01:00:0A:00:00:00:00;1727741060;01/10/24;00:04:20;1.018;-0.009;0.057;0.009773843921720982;-0.013439035043120384;0.0012217304902151227
01:00:0A:00:00:00:00;1727741061;01/10/24;00:04:21;1.018;-0.01;0.057;0.009773843921720982;-0.00855211354792118;0.0036651913542300463
01:00:0A:00:00:00:00;1727741062;01/10/24;00:04:22;1.016;-0.011;0.057;0.009773843921720982;-0.00855211354792118;0.0036651913542300463
01:00:0A:00:00:00:00;1727741063;01/10/24;00:04:23;1.014;-0.008;0.056;0.009773843921720982;-0.010995574295520782;0.0024434609804302454
01:00:0A:00:00:00:00;1727741064;01/10/24;00:04:24;1.016;-0.01;0.056;0.00855211354792118;-0.010995574295520782;0.0036651913542300463
01:00:0A:00:00:00:00;1727741065;01/10/24;00:04:25;1.016;-0.01;0.057;0.00855211354792118;-0.012217304669320583;0.0024434609804302454
01:00:0A:00:00:00:00;1727741066;01/10/24;00:04:26;1.017;-0.011;0.057;0.00855211354792118;-0.012217304669320583;0.0024434609804302454
01:00:0A:00:00:00:00;1727741067;01/10/24;00:04:27;1.018;-0.011;0.057;0.0073303827084600925;-0.009773843921720982;0.0036651913542300463
01:00:0A:00:00:00:00;1727741068;01/10/24;00:04:28;1.016;-0.01;0.056;0.0073303827084600925;-0.00855211354792118;0.0024434609804302454
01:00:0A:00:00:00:00;1727741069;01/10/24;00:04:29;1.016;-0.011;0.057;0.0073303827084600925;-0.012217304669320583;0.0012217304902151227
01:00:0A:00:00:00:00;1727741070;01/10/24;00:04:30;1.016;-0.01;0.056;0.006108652334660292;-0.009773843921720982;0.0036651913542300463
01:00:0A:00:00:00:00;1727741071;01/10/24;00:04:31;1.016;-0.01;0.058;0.006108652334660292;-0.010995574295520782;0.0024434609804302454
01:00:0A:00:00:00:00;1727741072;01/10/24;00:04:32;1.016;-0.01;0.058;0.006108652334660292;-0.012217304669320583;0.0012217304902151227
01:00:0A:00:00:00:00;1727741073;01/10/24;00:04:33;1.017;-0.01;0.057;0.006108652334660292;-0.010995574295520782;0.0024434609804302454
01:00:0A:00:00:00:00;1727741074;01/10/24;00:04:34;1.016;-0.01;0.057;0.004886921960860491;-0.009773843921720982;0.0036651913542300463
01:00:0A:00:00:00:00;1727741075;01/10/24;00:04:35;1.016;-0.009;0.056;0.006108652334660292;-0.010995574295520782;0.0024434609804302454
01:00:0A:00:00:00:00;1727741076;01/10/24;00:04:36;1.016;-0.01;0.055;0.004886921960860491;-0.010995574295520782;0.0024434609804302454
01:00:0A:00:00:00:00;1727741077;01/10/24;00:04:37;1.016;-0.01;0.058;0.004886921960860491;-0.009773843921720982;0.0036651913542300463
01:00:0A:00:00:00:00;1727741078;01/10/24;00:04:38;1.016;-0.009;0.057;0.004886921960860491;-0.012217304669320583;0.0012217304902151227
01:00:0A:00:00:00:00;1727741079;01/10/24;00:04:39;1.016;-0.01;0.056;0.004886921960860491;-0.010995574295520782;0.0024434609804302454
01:00:0A:00:00:00:00;1727741080;01/10/24;00:04:40;1.016;-0.011;0.058;0.004886921960860491;-0.009773843921720982;0.0024434609804302454
01:00:0A:00:00:00:00;1727741081;01/10/24;00:04:41;1.016;-0.011;0.057;0.004886921960860491;-0.012217304669320583;0.0012217304902151227
01:00:0A:00:00:00:00;1727741082;01/10/24;00:04:42;1.018;-0.009;0.056;0.0036651913542300463;-0.009773843921720982;0.0036651913542300463
01:00:0A:00:00:00:00;1727741083;01/10/24;00:04:43;1.016;-0.009;0.056;0.0036651913542300463;-0.009773843921720982;0.0024434609804302454
01:00:0A:00:00:00:00;1727741084;01/10/24;00:04:44;1.016;-0.01;0.058;0.004886921960860491;-0.012217304669320583;0.0012217304902151227
01:00:0A:00:00:00:00;1727741085;01/10/24;00:04:45;1.016;-0.01;0.056;0.0036651913542300463;-0.012217304669320583;0.0024434609804302454
01:00:0A:00:00:00:00;1727741086;01/10/24;00:04:46;1.017;-0.011;0.058;0.0036651913542300463;-0.009773843921720982;0.0036651913542300463
01:00:0A:00:00:00:00;1727741087;01/10/24;00:04:47;1.018;-0.01;0.057;0.0036651913542300463;-0.010995574295520782;0.0024434609804302454
01:00:0A:00:00:00:00;1727741088;01/10/24;00:04:48;1.016;-0.01;0.055;0.0036651913542300463;-0.010995574295520782;0.0024434609804302454
01:00:0A:00:00:00:00;1727741089;01/10/24;00:04:49;1.015;-0.01;0.056;0.0024434609804302454;-0.00855211354792118;0.0036651913542300463
01:00:0A:00:00:00:00;1727741090;01/10/24;00:04:50;1.016;-0.011;0.058;0.0036651913542300463;-0.012217304669320583;0.0012217304902151227
01:00:0A:00:00:00:00;1727741091;01/10/24;00:04:51;1.016;-0.01;0.055;0.0036651913542300463;-0.012217304669320583;0.0024434609804302454
01:00:0A:00:00:00:00;1727741092;01/10/24;00:04:52;1.017;-0.01;0.057;0.0024434609804302454;-0.010995574295520782;0.0024434609804302454
01:00:0A:00:00:00:00;1727741093;01/10/24;00:04:53;1.017;-0.01;0.056;0.0036651913542300463;-0.010995574295520782;0.0024434609804302454
01:00:0A:00:00:00:00;1727741094;01/10/24;00:04:54;1.017;-0.009;0.055;0.0024434609804302454;-0.009773843921720982;0.0024434609804302454
01:00:0A:00:00:00:00;1727741095;01/10/24;00:04:55;1.016;-0.01;0.056;0.0024434609804302454;-0.009773843921720982;0.0036651913542300463
01:00:0A:00:00:00:00;1727741096;01/10/24;00:04:56;1.015;-0.01;0.057;0.0024434609804302454;-0.012217304669320583;0.0012217304902151227
01:00:0A:00:00:00:00;1727741097;01/10/24;00:04:57;1.014;-0.009;0.054;0.0024434609804302454;-0.013439035043120384;0.0012217304902151227
01:00:0A:00:00:00:00;1727741098;01/10/24;00:04:58;1.016;-0.01;0.057;0.0024434609804302454;-0.009773843921720982;0.0036651913542300463
01:00:0A:00:00:00:00;1727741099;01/10/24;00:04:59;1.016;-0.009;0.057;0.0024434609804302454;-0.010995574295520782;0.0012217304902151227
01:00:0A:00:00:00:00;1727741100;01/10/24;00:05:00;1.017;-0.01;0.056;0.0024434609804302454;-0.010995574295520782;0.0024434609804302454
01:00:0A:00:00:00:00;1727741101;01/10/24;00:05:01;1.016;-0.009;0.056;0.0012217304902151227;-0.00855211354792118;0.004886921960860491
01:00:0A:00:00:00:00;1727741102;01/10/24;00:05:02;1.016;-0.01;0.057;0.0012217304902151227;-0.012217304669320583;0.0024434609804302454
01:00:0A:00:00:00:00;1727741103;01/10/24;00:05:03;1.016;-0.008;0.056;0.0012217304902151227;-0.012217304669320583;0.0012217304902151227
01:00:0A:00:00:00:00;1727741104;01/10/24;00:05:04;1.018;-0.01;0.057;0.0012217304902151227;-0.010995574295520782;0.0024434609804302454
01:00:0A:00:00:00:00;1727741105;01/10/24;00:05:05;1.018;-0.011;0.058;0.0012217304902151227;-0.010995574295520782;0.0024434609804302454
01:00:0A:00:00:00:00;1727741106;01/10/24;00:05:06;1.016;-0.009;0.056;0.0012217304902151227;-0.010995574295520782;0.0024434609804302454
01:00:0A:00:00:00:00;1727741107;01/10/24;00:05:07;1.016;-0.01;0.055;0.0;-0.00855211354792118;0.0036651913542300463
01:00:0A:00:00:00:00;1727741108;01/10/24;00:05:08;1.016;-0.01;0.057;0.0;-0.010995574295520782;0.0024434609804302454
01:00:0A:00:00:00:00;1727741109;01/10/24;00:05:09;1.016;-0.01;0.057;0.0;-0.013439035043120384;0.0
01:00:0A:00:00:00:00;1727741110;01/10/24;00:05:10;1.017;-0.01;0.056;-0.0012217304902151227;-0.009773843921720982;0.0036651913542300463
01:00:0A:00:00:00:00;1727741111;01/10/24;00:05:11;1.017;-0.011;0.057;0.0;-0.009773843921720982;0.0012217304902151227
01:00:0A:00:00:00:00;1727741112;01/10/24;00:05:12;1.016;-0.01;0.057;0.0;-0.010995574295520782;0.0012217304902151227
01:00:0A:00:00:00:00;1727741113;01/10/24;00:05:13;1.016;-0.01;0.056;-0.0012217304902151227;-0.009773843921720982;0.0036651913542300463
01:00:0A:00:00:00:00;1727741114;01/10/24;00:05:14;1.015;-0.01;0.058;-0.0012217304902151227;-0.010995574295520782;0.0024434609804302454
01:00:0A:00:00:00:00;1727741115;01/10/24;00:05:15;1.016;-0.009;0.056;0.0;-0.013439035043120384;0.0
01:00:0A:00:00:00:00;1727741116;01/10/24;00:05:16;1.017;-0.01;0.057;-0.0012217304902151227;-0.010995574295520782;0.0024434609804302454
01:00:0A:00:00:00:00;1727741117;01/10/24;00:05:17;1.017;-0.011;0.057;-0.0012217304902151227;-0.009773843921720982;0.0024434609804302454
01:00:0A:00:00:00:00;1727741118;01/10/24;00:05:18;1.017;-0.01;0.055;-0.0012217304902151227;-0.010995574295520782;0.0012217304902151227
01:00:0A:00:00:00:00;1727741119;01/10/24;00:05:19;1.016;-0.01;0.057;-0.0024434609804302454;-0.00855211354792118;0.0036651913542300463
01:00:0A:00:00:00:00;1727741120;01/10/24;00:05:20;1.016;-0.011;0.057;-0.0024434609804302454;-0.010995574295520782;0.0024434609804302454
01:00:0A:00:00:00:00;1727741121;01/10/24;00:05:21;1.016;-0.01;0.056;-0.0012217304902151227;-0.012217304669320583;0.0012217304902151227
01:00:0A:00:00:00:00;1727741122;01/10/24;00:05:22;1.017;-0.009;0.057;-0.0024434609804302454;-0.010995574295520782;0.0024434609804302454
01:00:0A:00:00:00:00;1727741123;01/10/24;00:05:23;1.017;-0.009;0.057;-0.0024434609804302454;-0.010995574295520782;0.0024434609804302454
01:00:0A:00:00:00:00;1727741124;01/10/24;00:05:24;1.017;-0.01;0.057;-0.0012217304902151227;-0.010995574295520782;0.0012217304902151227
01:00:0A:00:00:00:00;1727741125;01/10/24;00:05:25;1.016;-0.009;0.056;-0.0024434609804302454;-0.009773843921720982;0.0024434609804302454
01:00:0A:00:00:00:00;1727741126;01/10/24;00:05:26;1.016;-0.01;0.056;-0.0024434609804302454;-0.009773843921720982;0.0036651913542300463
01:00:0A:00:00:00:00;1727741127;01/10/24;00:05:27;1.016;-0.01;0.057;-0.0024434609804302454;-0.013439035043120384;0.0
01:00:0A:00:00:00:00;1727741128;01/10/24;00:05:28;1.016;-0.009;0.057;-0.0024434609804302454;-0.010995574295520782;0.0024434609804302454
01:00:0A:00:00:00:00;1727741129;01/10/24;00:05:29;1.016;-0.011;0.056;-0.0036651913542300463;-0.010995574295520782;0.0024434609804302454
01:00:0A:00:00:00:00;1727741130;01/10/24;00:05:30;1.016;-0.01;0.057;-0.0024434609804302454;-0.012217304669320583;0.0012217304902151227
01:00:0A:00:00:00:00;1727741131;01/10/24;00:05:31;1.016;-0.01;0.055;-0.0036651913542300463;-0.009773843921720982;0.0024434609804302454
01:00:0A:00:00:00:00;1727741132;01/10/24;00:05:32;1.016;-0.011;0.057;-0.0036651913542300463;-0.009773843921720982;0.0036651913542300463
01:00:0A:00:00:00:00;1727741133;01/10/24;00:05:33;1.016;-0.01;0.057;-0.0024434609804302454;-0.012217304669320583;0.0012217304902151227
01:00:0A:00:00:00:00;1727741134;01/10/24;00:05:34;1.016;-0.01;0.056;-0.0036651913542300463;-0.010995574295520782;0.0024434609804302454
01:00:0A:00:00:00:00;1727741135;01/10/24;00:05:35;1.016;-0.011;0.056;-0.0036651913542300463;-0.009773843921720982;0.0036651913542300463
01:00:0A:00:00:00:00;1727741136;01/10/24;00:05:36;1.016;-0.011;0.057;-0.0024434609804302454;-0.012217304669320583;0.0012217304902151227
01:00:0A:00:00:00:00;1727741137;01/10/24;00:05:37;1.016;-0.009;0.056;-0.0036651913542300463;-0.010995574295520782;0.0024434609804302454
01:00:0A:00:00:00:00;1727741138;01/10/24;00:05:38;1.016;-0.01;0.056;-0.0036651913542300463;-0.009773843921720982;0.0036651913542300463
01:00:0A:00:00:00:00;1727741139;01/10/24;00:05:39;1.016;-0.01;0.057;-0.0036651913542300463;-0.012217304669320583;0.0
01:00:0A:00:00:00:00;1727741140;01/10/24;00:05:40;1.016;-0.01;0.056;-0.0036651913542300463;-0.010995574295520782;0.0024434609804302454
01:00:0A:00:00:00:00;1727741141;01/10/24;00:05:41;1.017;-0.01;0.056;-0.004886921960860491;-0.009773843921720982;0.0024434609804302454
01:00:0A:00:00:00:00;1727741142;01/10/24;00:05:42;1.017;-0.011;0.058;-0.0036651913542300463;-0.012217304669320583;0.0012217304902151227
01:00:0A:00:00:00:00;1727741143;01/10/24;00:05:43;1.016;-0.008;0.056;-0.0036651913542300463;-0.012217304669320583;0.0024434609804302454
01:00:0A:00:00:00:00;1727741144;01/10/24;00:05:44;1.018;-0.011;0.057;-0.004886921960860491;-0.009773843921720982;0.0036651913542300463
01:00:0A:00:00:00:00;1727741145;01/10/24;00:05:45;1.017;-0.011;0.057;-0.0036651913542300463;-0.009773843921720982;0.0012217304902151227
01:00:0A:00:00:00:00;1727741146;01/10/24;00:05:46;1.016;-0.009;0.055;-0.0036651913542300463;-0.010995574295520782;0.0012217304902151227
01:00:0A:00:00:00:00;1727741147;01/10/24;00:05:47;1.015;-0.011;0.056;-0.004886921960860491;-0.010995574295520782;0.0036651913542300463
01:00:0A:00:00:00:00;1727741148;01/10/24;00:05:48;1.016;-0.01;0.056;-0.0036651913542300463;-0.013439035043120384;0.0012217304902151227
01:00:0A:00:00:00:00;1727741149;01/10/24;00:05:49;1.017;-0.01;0.057;-0.0036651913542300463;-0.012217304669320583;0.0024434609804302454
01:00:0A:00:00:00:00;1727741150;01/10/24;00:05:50;1.017;-0.008;0.057;-0.004886921960860491;-0.009773843921720982;0.0036651913542300463
01:00:0A:00:00:00:00;1727741151;01/10/24;00:05:51;1.016;-0.011;0.057;-0.0036651913542300463;-0.009773843921720982;0.0012217304902151227
01:00:0A:00:00:00:00;1727741152;01/10/24;00:05:52;1.016;-0.009;0.056;-0.0036651913542300463;-0.010995574295520782;0.0012217304902151227
01:00:0A:00:00:00:00;1727741153;01/10/24;00:05:53;1.016;-0.01;0.055;-0.004886921960860491;-0.010995574295520782;0.0036651913542300463
01:00:0A:00:00:00:00;1727741154;01/10/24;00:05:54;1.016;-0.011;0.057;-0.004886921960860491;-0.012217304669320583;0.0024434609804302454
01:00:0A:00:00:00:00;1727741155;01/10/24;00:05:55;1.016;-0.009;0.057;-0.0036651913542300463;-0.013439035043120384;0.0012217304902151227
01:00:0A:00:00:00:00;1727741156;01/10/24;00:05:56;1.016;-0.01;0.058;-0.004886921960860491;-0.00855211354792118;0.0036651913542300463
01:00:0A:00:00:00:00;1727741157;01/10/24;00:05:57;1.016;-0.01;0.057;-0.004886921960860491;-0.00855211354792118;0.0012217304902151227
01:00:0A:00:00:00:00;1727741158;01/10/24;00:05:58;1.016;-0.01;0.055;-0.0036651913542300463;-0.010995574295520782;0.0
01:00:0A:00:00:00:00;1727741159;01/10/24;00:05:59;1.015;-0.009;0.055;-0.004886921960860491;-0.010995574295520782;0.0036651913542300463
01:00:0A:00:00:00:00;1727741160;01/10/24;00:06:00;1.016;-0.012;0.057;-0.004886921960860491;-0.012217304669320583;0.0024434609804302454
01:00:0A:00:00:00:00;1727741161;01/10/24;00:06:01;1.016;-0.01;0.057;-0.0036651913542300463;-0.012217304669320583;0.0012217304902151227
01:00:0A:00:00:00:00;1727741162;01/10/24;00:06:02;1.016;-0.01;0.056;-0.004886921960860491;-0.009773843921720982;0.0024434609804302454
01:00:0A:00:00:00:00;1727741163;01/10/24;00:06:03;1.016;-0.01;0.056;-0.004886921960860491;-0.00855211354792118;0.0024434609804302454
01:00:0A:00:00:00:00;1727741164;01/10/24;00:06:04;1.016;-0.009;0.057;-0.0036651913542300463;-0.010995574295520782;0.0012217304902151227
01:00:0A:00:00:00:00;1727741165;01/10/24;00:06:05;1.016;-0.01;0.056;-0.004886921960860491;-0.012217304669320583;0.0036651913542300463
01:00:0A:00:00:00:00;1727741166;01/10/24;00:06:06;1.017;-0.012;0.056;-0.004886921960860491;-0.012217304669320583;0.0024434609804302454
01:00:0A:00:00:00:00;1727741167;01/10/24;00:06:07;1.017;-0.01;0.056;-0.0036651913542300463;-0.012217304669320583;0.0012217304902151227
01:00:0A:00:00:00:00;1727741168;01/10/24;00:06:08;1.017;-0.009;0.058;-0.004886921960860491;-0.009773843921720982;0.0036651913542300463
01:00:0A:00:00:00:00;1727741169;01/10/24;00:06:09;1.016;-0.01;0.057;-0.004886921960860491;-0.00855211354792118;0.0024434609804302454
01:00:0A:00:00:00:00;1727741170;01/10/24;00:06:10;1.016;-0.009;0.056;-0.0036651913542300463;-0.010995574295520782;0.0012217304902151227
01:00:0A:00:00:00:00;1727741171;01/10/24;00:06:11;1.016;-0.009;0.056;-0.004886921960860491;-0.012217304669320583;0.0036651913542300463
01:00:0A:00:00:00:00;1727741172;01/10/24;00:06:12;1.016;-0.01;0.056;-0.004886921960860491;-0.012217304669320583;0.0036651913542300463
01:00:0A:00:00:00:00;1727741173;01/10/24;00:06:13;1.017;-0.01;0.057;-0.0036651913542300463;-0.012217304669320583;0.0012217304902151227
01:00:0A:00:00:00:00;1727741174;01/10/24;00:06:14;1.016;-0.009;0.057;-0.004886921960860491;-0.009773843921720982;0.0024434609804302454
01:00:0A:00:00:00:00;1727741175;01/10/24;00:06:15;1.016;-0.011;0.056;-0.004886921960860491;-0.009773843921720982;0.0036651913542300463
01:00:0A:00:00:00:00;1727741176;01/10/24;00:06:16;1.016;-0.01;0.056;-0.0036651913542300463;-0.010995574295520782;0.0
01:00:0A:00:00:00:00;1727741177;01/10/24;00:06:17;1.016;-0.01;0.055;-0.004886921960860491;-0.010995574295520782;0.0036651913542300463
01:00:0A:00:00:00:00;1727741178;01/10/24;00:06:18;1.016;-0.009;0.057;-0.006108652334660292;-0.010995574295520782;0.0024434609804302454
01:00:0A:00:00:00:00;1727741179;01/10/24;00:06:19;1.017;-0.01;0.057;-0.004886921960860491;-0.010995574295520782;0.0012217304902151227
01:00:0A:00:00:00:00;1727741180;01/10/24;00:06:20;1.016;-0.008;0.056;-0.004886921960860491;-0.009773843921720982;0.0036651913542300463
01:00:0A:00:00:00:00;1727741181;01/10/24;00:06:21;1.016;-0.01;0.057;-0.006108652334660292;-0.009773843921720982;0.0024434609804302454
01:00:0A:00:00:00:00;1727741182;01/10/24;00:06:22;1.016;-0.011;0.056;-0.004886921960860491;-0.010995574295520782;0.0012217304902151227
01:00:0A:00:00:00:00;1727741183;01/10/24;00:06:23;1.016;-0.01;0.057;-0.006108652334660292;-0.010995574295520782;0.0024434609804302454
01:00:0A:00:00:00:00;1727741184;01/10/24;00:06:24;1.015;-0.01;0.057;-0.006108652334660292;-0.010995574295520782;0.0036651913542300463
01:00:0A:00:00:00:00;1727741185;01/10/24;00:06:25;1.017;-0.01;0.056;-0.004886921960860491;-0.010995574295520782;0.0
01:00:0A:00:00:00:00;1727741186;01/10/24;00:06:26;1.016;-0.011;0.056;-0.006108652334660292;-0.010995574295520782;0.0024434609804302454
01:00:0A:00:00:00:00;1727741187;01/10/24;00:06:27;1.016;-0.011;0.057;-0.006108652334660292;-0.010995574295520782;0.0036651913542300463
01:00:0A:00:00:00:00;1727741188;01/10/24;00:06:28;1.016;-0.01;0.056;-0.004886921960860491;-0.010995574295520782;0.0012217304902151227
01:00:0A:00:00:00:00;1727741189;01/10/24;00:06:29;1.016;-0.009;0.056;-0.006108652334660292;-0.010995574295520782;0.0024434609804302454
01:00:0A:00:00:00:00;1727741190;01/10/24;00:06:30;1.017;-0.011;0.057;-0.0073303827084600925;-0.010995574295520782;0.0024434609804302454
01:00:0A:00:00:00:00;1727741191;01/10/24;00:06:31;1.016;-0.011;0.056;-0.006108652334660292;-0.010995574295520782;0.0012217304902151227
01:00:0A:00:00:00:00;1727741192;01/10/24;00:06:32;1.016;-0.009;0.057;-0.006108652334660292;-0.010995574295520782;0.0024434609804302454
01:00:0A:00:00:00:00;1727741193;01/10/24;00:06:33;1.016;-0.011;0.057;-0.0073303827084600925;-0.010995574295520782;0.0024434609804302454
01:00:0A:00:00:00:00;1727741194;01/10/24;00:06:34;1.016;-0.01;0.056;-0.006108652334660292;-0.010995574295520782;0.0012217304902151227
01:00:0A:00:00:00:00;1727741195;01/10/24;00:06:35;1.016;-0.009;0.056;-0.0073303827084600925;-0.010995574295520782;0.0024434609804302454
01:00:0A:00:00:00:00;1727741196;01/10/24;00:06:36;1.016;-0.01;0.057;-0.0073303827084600925;-0.010995574295520782;0.0036651913542300463
01:00:0A:00:00:00:00;1727741197;01/10/24;00:06:37;1.017;-0.01;0.057;-0.006108652334660292;-0.010995574295520782;0.0012217304902151227
01:00:0A:00:00:00:00;1727741198;01/10/24;00:06:38;1.017;-0.01;0.056;-0.0073303827084600925;-0.010995574295520782;0.0012217304902151227
01:00:0A:00:00:00:00;1727741199;01/10/24;00:06:39;1.017;-0.01;0.057;-0.0073303827084600925;-0.012217304669320583;0.0036651913542300463
01:00:0A:00:00:00:00;1727741200;01/10/24;00:06:40;1.016;-0.012;0.056;-0.0073303827084600925;-0.010995574295520782;0.0012217304902151227
01:00:0A:00:00:00:00;1727741201;01/10/24;00:06:41;1.017;-0.01;0.057;-0.0073303827084600925;-0.009773843921720982;0.0012217304902151227
01:00:0A:00:00:00:00;1727741202;01/10/24;00:06:42;1.016;-0.01;0.056;-0.00855211354792118;-0.009773843921720982;0.0036651913542300463
01:00:0A:00:00:00:00;1727741203;01/10/24;00:06:43;1.016;-0.01;0.056;-0.0073303827084600925;-0.010995574295520782;0.0024434609804302454
01:00:0A:00:00:00:00;1727741204;01/10/24;00:06:44;1.016;-0.009;0.056;-0.0073303827084600925;-0.010995574295520782;0.0012217304902151227
01:00:0A:00:00:00:00;1727741205;01/10/24;00:06:45;1.016;-0.01;0.056;-0.00855211354792118;-0.012217304669320583;0.0024434609804302454
01:00:0A:00:00:00:00;1727741206;01/10/24;00:06:46;1.016;-0.011;0.058;-0.00855211354792118;-0.010995574295520782;0.0012217304902151227
01:00:0A:00:00:00:00;1727741207;01/10/24;00:06:47;1.016;-0.01;0.057;-0.00855211354792118;-0.009773843921720982;0.0012217304902151227
01:00:0A:00:00:00:00;1727741208;01/10/24;00:06:48;1.016;-0.009;0.057;-0.00855211354792118;-0.009773843921720982;0.0036651913542300463
01:00:0A:00:00:00:00;1727741209;01/10/24;00:06:49;1.016;-0.011;0.057;-0.00855211354792118;-0.010995574295520782;0.0012217304902151227
01:00:0A:00:00:00:00;1727741210;01/10/24;00:06:50;1.016;-0.01;0.057;-0.00855211354792118;-0.012217304669320583;0.0012217304902151227
01:00:0A:00:00:00:00;1727741211;01/10/24;00:06:51;1.016;-0.009;0.057;-0.00855211354792118;-0.012217304669320583;0.0024434609804302454
01:00:0A:00:00:00:00;1727741212;01/10/24;00:06:52;1.017;-0.011;0.056;-0.00855211354792118;-0.010995574295520782;0.0012217304902151227
01:00:0A:00:00:00:00;1727741213;01/10/24;00:06:53;1.016;-0.01;0.057;-0.00855211354792118;-0.009773843921720982;0.0012217304902151227
01:00:0A:00:00:00:00;1727741214;01/10/24;00:06:54;1.016;-0.011;0.056;-0.009773843921720982;-0.009773843921720982;0.0036651913542300463
01:00:0A:00:00:00:00;1727741215;01/10/24;00:06:55;1.016;-0.011;0.056;-0.00855211354792118;-0.010995574295520782;0.0024434609804302454
01:00:0A:00:00:00:00;1727741216;01/10/24;00:06:56;1.016;-0.009;0.056;-0.00855211354792118;-0.010995574295520782;0.0
01:00:0A:00:00:00:00;1727741217;01/10/24;00:06:57;1.017;-0.01;0.057;-0.009773843921720982;-0.012217304669320583;0.0024434609804302454
01:00:0A:00:00:00:00;1727741218;01/10/24;00:06:58;1.016;-0.01;0.057;-0.00855211354792118;-0.010995574295520782;0.0024434609804302454
01:00:0A:00:00:00:00;1727741219;01/10/24;00:06:59;1.016;-0.01;0.057;-0.00855211354792118;-0.009773843921720982;0.0024434609804302454
01:00:0A:00:00:00:00;1727741220;01/10/24;00:07:00;1.016;-0.009;0.057;-0.009773843921720982;-0.009773843921720982;0.0024434609804302454
01:00:0A:00:00:00:00;1727741221;01/10/24;00:07:01;1.016;-0.01;0.056;-0.009773843921720982;-0.010995574295520782;0.0024434609804302454
01:00:0A:00:00:00:00;1727741222;01/10/24;00:07:02;1.016;-0.008;0.056;-0.00855211354792118;-0.012217304669320583;0.0012217304902151227
01:00:0A:00:00:00:00;1727741223;01/10/24;00:07:03;1.017;-0.009;0.057;-0.009773843921720982;-0.012217304669320583;0.0024434609804302454
01:00:0A:00:00:00:00;1727741224;01/10/24;00:07:04;1.016;-0.01;0.056;-0.009773843921720982;-0.010995574295520782;0.0024434609804302454
01:00:0A:00:00:00:00;1727741225;01/10/24;00:07:05;1.017;-0.011;0.057;-0.00855211354792118;-0.009773843921720982;0.0012217304902151227
01:00:0A:00:00:00:00;1727741226;01/10/24;00:07:06;1.016;-0.01;0.057;-0.009773843921720982;-0.010995574295520782;0.0024434609804302454
01:00:0A:00:00:00:00;1727741227;01/10/24;00:07:07;1.016;-0.01;0.056;-0.009773843921720982;-0.010995574295520782;0.0024434609804302454
01:00:0A:00:00:00:00;1727741228;01/10/24;00:07:08;1.017;-0.009;0.056;-0.00855211354792118;-0.012217304669320583;0.0
01:00:0A:00:00:00:00;1727741229;01/10/24;00:07:09;1.016;-0.01;0.056;-0.009773843921720982;-0.012217304669320583;0.0024434609804302454
01:00:0A:00:00:00:00;1727741230;01/10/24;00:07:10;1.016;-0.01;0.056;-0.009773843921720982;-0.010995574295520782;0.0024434609804302454
01:00:0A:00:00:00:00;1727741231;01/10/24;00:07:11;1.016;-0.01;0.057;-0.00855211354792118;-0.010995574295520782;0.0024434609804302454
01:00:0A:00:00:00:00;1727741232;01/10/24;00:07:12;1.016;-0.009;0.056;-0.009773843921720982;-0.009773843921720982;0.0024434609804302454
01:00:0A:00:00:00:00;1727741233;01/10/24;00:07:13;1.018;-0.011;0.056;-0.009773843921720982;-0.0073303827084600925;0.006108652334660292
01:00:0A:00:00:00:00;1727741234;01/10/24;00:07:14;1.018;-0.012;0.058;-0.009773843921720982;-0.013439035043120384;0.0073303827084600925
01:00:0A:00:00:00:00;1727741235;01/10/24;00:07:15;1.015;-0.002;0.062;-0.012217304669320583;-0.019547687843441963;0.0
01:00:0A:00:00:00:00;1727741236;01/10/24;00:07:16;1.016;0.0;0.057;-0.01710422709584236;-0.0012217304902151227;-0.004886921960860491
01:00:0A:00:00:00:00;1727741237;01/10/24;00:07:17;1.018;-0.008;0.055;-0.018325956538319588;0.0024434609804302454;-0.01710422709584236
01:00:0A:00:00:00:00;1727741238;01/10/24;00:07:18;1.021;-0.021;0.055;-0.018325956538319588;-0.0024434609804302454;-0.009773843921720982
01:00:0A:00:00:00:00;1727741239;01/10/24;00:07:19;1.016;-0.018;0.049;-0.021991148591041565;-0.014660765416920185;0.015882495790719986
01:00:0A:00:00:00:00;1727741240;01/10/24;00:07:20;1.014;-0.017;0.05;-0.02687807008624077;-0.02321287989616394;0.02932153083384037
01:00:0A:00:00:00:00;1727741241;01/10/24;00:07:21;1.015;-0.009;0.058;-0.02321287989616394;-0.03176499158143997;0.021991148591041565
01:00:0A:00:00:00:00;1727741242;01/10/24;00:07:22;1.022;0.0;0.067;-0.019547687843441963;-0.01710422709584236;0.0024434609804302454
01:00:0A:00:00:00:00;1727741243;01/10/24;00:07:23;1.027;0.0;0.062;-0.018325956538319588;0.006108652334660292;-0.006108652334660292
01:00:0A:00:00:00:00;1727741244;01/10/24;00:07:24;1.017;-0.011;0.057;-0.010995574295520782;0.025656338781118393;-0.02321287989616394
01:00:0A:00:00:00:00;1727741245;01/10/24;00:07:25;1.004;-0.019;0.044;-0.006108652334660292;0.012217304669320583;-0.021991148591041565
01:00:0A:00:00:00:00;1727741246;01/10/24;00:07:26;0.992;-0.022;0.036;-0.0073303827084600925;-0.025656338781118393;0.009773843921720982
01:00:0A:00:00:00:00;1727741247;01/10/24;00:07:27;0.999;-0.017;0.039;-0.0073303827084600925;-0.040317103266716;0.02076941914856434
01:00:0A:00:00:00:00;1727741248;01/10/24;00:07:28;1.031;-0.008;0.057;-0.004886921960860491;-0.04398229718208313;0.015882495790719986
01:00:0A:00:00:00:00;1727741249;01/10/24;00:07:29;1.048;0.0;0.055;-0.00855211354792118;-0.02076941914856434;0.006108652334660292
01:00:0A:00:00:00:00;1727741250;01/10/24;00:07:30;1.049;-0.028;-0.039;0.09407324343919754;0.012217304669320583;0.0012217304902151227
01:00:0A:00:00:00:00;1727741251;01/10/24;00:07:31;1.015;-0.001;0.027;0.14905111491680145;0.0073303827084600925;-0.045204028487205505
01:00:0A:00:00:00:00;1727741252;01/10/24;00:07:32;0.986;-0.015;0.055;0.11728612333536148;0.059864792972803116;0.010995574295520782
01:00:0A:00:00:00:00;1727741253;01/10/24;00:07:33;0.976;-0.024;0.032;0.12217304855585098;-0.09407324343919754;0.025656338781118393
01:00:0A:00:00:00:00;1727741254;01/10/24;00:07:34;0.997;-0.035;0.015;0.14049901068210602;0.009773843921720982;0.012217304669320583
01:00:0A:00:00:00:00;1727741255;01/10/24;00:07:35;1.036;-0.01;0.097;0.1270599663257599;-0.1563815027475357;-0.019547687843441963
01:00:0A:00:00:00:00;1727741256;01/10/24;00:07:36;1.029;-0.162;-0.149;0.024434609338641167;0.1258382350206375;0.23090705275535583
01:00:0A:00:00:00:00;1727741257;01/10/24;00:07:37;1.032;-0.09;0.203;0.6756169199943542;-0.36651912331581116;0.2981022298336029
01:00:0A:00:00:00:00;1727741258;01/10/24;00:07:38;1.009;-0.006;-0.145;-0.3701843321323395;0.2272418737411499;0.36529743671417236
01:00:0A:00:00:00:00;1727741259;01/10/24;00:07:39;0.985;-0.18;0.125;-0.5595525503158569;0.30543261766433716;-0.11239919811487198
01:00:0A:00:00:00:00;1727741260;01/10/24;00:07:40;0.976;0.034;0.261;-0.5277875661849976;-0.0354301817715168;-0.44348815083503723
01:00:0A:00:00:00:00;1727741261;01/10/24;00:07:41;0.969;0.19;0.188;-0.8417722582817078;-0.5729915499687195;-0.1014036238193512
01:00:0A:00:00:00:00;1727741262;01/10/24;00:07:42;1.017;-0.059;-0.098;-1.0690141916275024;-0.21868975460529327;0.4764748811721802
01:00:0A:00:00:00:00;1727741263;01/10/24;00:07:43;1.006;-0.204;0.043;-1.2131783962249756;0.5021312236785889;0.14905111491680145
01:00:0A:00:00:00:00;1727741264;01/10/24;00:07:44;0.952;-0.301;0.23;-0.8393288850784302;0.18936821818351746;-0.1160643920302391
01:00:0A:00:00:00:00;1727741265;01/10/24;00:07:45;0.997;0.012;0.213;-0.6108652353286743;-0.06841690838336945;-0.4715879559516907
01:00:0A:00:00:00:00;1727741266;01/10/24;00:07:46;0.988;0.021;0.228;-0.8124507665634155;-0.1661553531885147;0.13561207056045532
01:00:0A:00:00:00:00;1727741267;01/10/24;00:07:47;0.998;0.07;-0.04;-0.7965682148933411;-0.26022857427597046;-0.10262535512447357
01:00:0A:00:00:00:00;1727741268;01/10/24;00:07:48;0.994;-0.061;-0.043;-0.8210028409957886;0.11728612333536148;0.3897320330142975
01:00:0A:00:00:00:00;1727741269;01/10/24;00:07:49;0.981;-0.214;0.007;-0.50335294008255;0.1918116807937622;-0.1417207270860672
01:00:0A:00:00:00:00;1727741270;01/10/24;00:07:50;1.021;0.029;0.115;-0.3445279896259308;-0.014660765416920185;-0.23457224667072296
01:00:0A:00:00:00:00;1727741271;01/10/24;00:07:51;1.04;0.073;0.089;-0.436157763004303;-0.015882495790719986;0.06841690838336945
01:00:0A:00:00:00:00;1727741272;01/10/24;00:07:52;1.033;-0.086;0.082;-0.35552355647087097;0.030543262138962746;0.1111774742603302
01:00:0A:00:00:00:00;1727741273;01/10/24;00:07:53;1.01;-0.039;-0.048;-0.20525071024894714;-0.12217304855585098;-0.10873401165008545
01:00:0A:00:00:00:00;1727741274;01/10/24;00:07:54;1.002;-0.044;0.034;-0.15515977144241333;0.16493360698223114;-0.09651670604944229
01:00:0A:00:00:00:00;1727741275;01/10/24;00:07:55;1.004;-0.044;0.143;-0.1466076523065567;0.042760565876960754;-0.17348572611808777
01:00:0A:00:00:00:00;1727741276;01/10/24;00:07:56;1.019;0.118;0.13;-0.24190263450145721;-0.27611109614372253;-0.16004669666290283
01:00:0A:00:00:00:00;1727741277;01/10/24;00:07:57;1.028;0.249;0.115;-0.5106833577156067;-0.1062905490398407;-0.10384709388017654
01:00:0A:00:00:00:00;1727741278;01/10/24;00:07:58;1.048;-0.089;0.052;-0.5864306092262268;-0.19058994948863983;0.3152064383029938
01:00:0A:00:00:00:00;1727741279;01/10/24;00:07:59;1.004;0.006;0.07;-0.533896267414093;0.09773843735456467;0.03420845419168472
01:00:0A:00:00:00:00;1727741280;01/10/24;00:08:00;0.945;-0.11;-0.009;-0.513126790523529;-0.05619959905743599;0.2895500957965851
01:00:0A:00:00:00:00;1727741281;01/10/24;00:08:01;0.949;-0.161;-0.002;-0.1966986060142517;0.27611109614372253;-0.2981022298336029
01:00:0A:00:00:00:00;1727741282;01/10/24;00:08:02;1.035;-0.072;0.119;-0.04764748737215996;-0.20647244155406952;-0.07330382615327835
01:00:0A:00:00:00:00;1727741283;01/10/24;00:08:03;1.083;-0.048;-0.044;-0.010995574295520782;0.1466076523065567;-0.010995574295520782
01:00:0A:00:00:00:00;1727741284;01/10/24;00:08:04;1.021;0.089;0.411;-0.08552113175392151;0.2822197377681732;-0.46792274713516235
01:00:0A:00:00:00:00;1727741285;01/10/24;00:08:05;0.942;0.387;-0.105;-0.4801400899887085;-0.739146888256073;-0.43737950921058655
01:00:0A:00:00:00:00;1727741286;01/10/24;00:08:06;0.993;-0.119;-0.123;-0.8674286603927612;-0.08429940044879913;0.7220427393913269
01:00:0A:00:00:00:00;1727741287;01/10/24;00:08:07;0.912;-0.319;0.133;-1.7654005289077759;0.6841690540313721;0.24434609711170197
01:00:0A:00:00:00:00;1727741288;01/10/24;00:08:08;0.997;-0.013;0.039;-1.1362093687057495;0.2932153046131134;-1.0054842233657837
01:00:0A:00:00:00:00;1727741289;01/10/24;00:08:09;0.861;-0.028;0.554;-1.3048081398010254;-0.45692718029022217;0.4508185386657715
01:00:0A:00:00:00:00;1727741290;01/10/24;00:08:10;1.011;0.099;-0.235;-0.8515461683273315;-0.13561207056045532;-0.5387831330299377
01:00:0A:00:00:00:00;1727741291;01/10/24;00:08:11;1.041;0.012;0.085;-0.9089674949645996;0.07208210229873657;0.46792274713516235
01:00:0A:00:00:00:00;1727741292;01/10/24;00:08:12;0.991;-0.048;-0.081;-0.6866125464439392;-0.040317103266716;-0.0659734457731247
01:00:0A:00:00:00:00;1727741293;01/10/24;00:08:13;0.945;0.025;0.083;-0.5522221922874451;0.35674530267715454;0.012217304669320583
01:00:0A:00:00:00:00;1727741294;01/10/24;00:08:14;0.987;-0.022;0.076;-0.42638394236564636;-0.42760565876960754;-0.19425514340400696
01:00:0A:00:00:00:00;1727741295;01/10/24;00:08:15;1.02;0.076;-0.056;-0.5668829083442688;0.15027284622192383;0.4483751058578491
01:00:0A:00:00:00:00;1727741296;01/10/24;00:08:16;1.04;-0.277;0.06;-0.43860122561454773;0.33597588539123535;-0.42638394236564636
01:00:0A:00:00:00:00;1727741297;01/10/24;00:08:17;1.013;0.201;0.349;-0.588874101638794;-0.010995574295520782;-0.2028072476387024
01:00:0A:00:00:00:00;1727741298;01/10/24;00:08:18;1.024;0.02;0.281;-0.6682865619659424;-0.14782939851284027;-0.19547687470912933
01:00:0A:00:00:00:00;1727741299;01/10/24;00:08:19;0.976;0.193;-0.122;-0.7269296050071716;-0.4715879559516907;-0.09529497474431992
01:00:0A:00:00:00:00;1727741300;01/10/24;00:08:20;0.967;-0.118;0.035;-0.8613200187683105;0.12217304855585098;0.6328563690185547
01:00:0A:00:00:00:00;1727741301;01/10/24;00:08:21;0.973;0.038;0.05;-0.5778785347938538;0.10995574295520782;-0.7183775305747986
01:00:0A:00:00:00:00;1727741302;01/10/24;00:08:22;0.948;0.208;0.193;-0.8063421249389648;-0.4996877610683441;0.32620203495025635
01:00:0A:00:00:00:00;1727741303;01/10/24;00:08:23;1.039;0.039;-0.125;-0.8283332586288452;-0.14294245839118958;0.004886921960860491
01:00:0A:00:00:00:00;1727741304;01/10/24;00:08:24;1.067;0.011;0.128;-0.8222246170043945;0.03787364438176155;0.09162978082895279
01:00:0A:00:00:00:00;1727741305;01/10/24;00:08:25;1.049;-0.028;-0.008;-0.6951646208763123;-0.10506881773471832;-0.042760565876960754
01:00:0A:00:00:00:00;1727741306;01/10/24;00:08:26;0.987;0.102;0.125;-0.6988298296928406;0.07941248267889023;-0.10995574295520782
01:00:0A:00:00:00:00;1727741307;01/10/24;00:08:27;0.947;0.003;-0.076;-0.7049384713172913;-0.5253441333770752;0.12828169763088226
01:00:0A:00:00:00:00;1727741308;01/10/24;00:08:28;0.923;0.037;-0.156;-0.8429940342903137;0.19547687470912933;0.7257078886032104
01:00:0A:00:00:00:00;1727741309;01/10/24;00:08:29;0.949;-0.205;-0.205;-0.6792821884155273;0.6206390857696533;0.03787364438176155
01:00:0A:00:00:00:00;1727741310;01/10/24;00:08:30;1.032;-0.171;0.07;-0.48380526900291443;0.29077184200286865;-0.4349360466003418
01:00:0A:00:00:00:00;1727741311;01/10/24;00:08:31;1.063;0.029;0.268;-0.50335294008255;0.00855211354792118;-0.012217304669320583
01:00:0A:00:00:00:00;1727741312;01/10/24;00:08:32;1.047;-0.157;-0.016;-0.3885102868080139;-0.23090705275535583;-0.018325956538319588
01:00:0A:00:00:00:00;1727741313;01/10/24;00:08:33;0.974;0.107;0.12;-0.39217546582221985;0.2724458873271942;-0.32009339332580566
01:00:0A:00:00:00:00;1727741314;01/10/24;00:08:34;0.931;0.008;-0.079;-0.5314527750015259;-0.6524040699005127;0.28099802136421204
01:00:0A:00:00:00:00;1727741315;01/10/24;00:08:35;0.942;0.062;0.027;-0.598647952079773;0.7171557545661926;-0.036651913076639175
01:00:0A:00:00:00:00;1727741316;01/10/24;00:08:36;0.971;-0.116;0.187;-0.49357908964157104;-0.7489207983016968;0.04886921867728233
01:00:0A:00:00:00:00;1727741317;01/10/24;00:08:37;0.993;-0.02;-0.253;-0.4349360466003418;0.24923302233219147;0.32498031854629517
01:00:0A:00:00:00:00;1727741318;01/10/24;00:08:38;1.029;-0.28;0.146;-0.34574973583221436;0.5314527750015259;0.08307767659425735
01:00:0A:00:00:00:00;1727741319;01/10/24;00:08:39;0.964;-0.06;0.433;-0.18325956165790558;0.17959438264369965;-0.37262779474258423
01:00:0A:00:00:00:00;1727741320;01/10/24;00:08:40;0.975;0.203;0.013;-0.3347541391849518;-0.5742133259773254;-0.21135938167572021
01:00:0A:00:00:00:00;1727741321;01/10/24;00:08:41;0.974;-0.073;-0.002;-0.5461135506629944;0.12217304855585098;0.6255260109901428
01:00:0A:00:00:00:00;1727741322;01/10/24;00:08:42;0.978;-0.12;0.023;-0.20036379992961884;0.05009094998240471;-0.6181955933570862
01:00:0A:00:00:00:00;1727741323;01/10/24;00:08:43;0.983;0.258;0.115;-0.3481931686401367;-0.29565879702568054;0.09651670604944229
01:00:0A:00:00:00:00;1727741324;01/10/24;00:08:44;1.0;-0.003;-0.325;-0.513126790523529;-0.3078760802745819;0.32131510972976685
01:00:0A:00:00:00:00;1727741325;01/10/24;00:08:45;0.976;-0.317;-0.234;-0.45204028487205505;0.6988298296928406;0.6633996367454529
01:00:0A:00:00:00:00;1727741326;01/10/24;00:08:46;0.833;-0.182;0.628;-0.26511549949645996;0.3738495111465454;-1.0396926403045654
01:00:0A:00:00:00:00;1727741327;01/10/24;00:08:47;0.983;0.304;-0.033;-0.6670648455619812;-1.193630576133728;-0.15393804013729095
01:00:0A:00:00:00:00;1727741328;01/10/24;00:08:48;1.016;0.142;0.018;-1.0238101482391357;-0.08185594528913498;0.06108652427792549
01:00:0A:00:00:00:00;1727741329;01/10/24;00:08:49;0.999;0.157;-0.073;-1.1789698600769043;-0.5534439086914062;0.2981022298336029
01:00:0A:00:00:00:00;1727741330;01/10/24;00:08:50;0.92;0.155;-0.379;-1.2986994981765747;-0.26022857427597046;0.3579670488834381
01:00:0A:00:00:00:00;1727741331;01/10/24;00:08:51;1.008;0.096;-0.137;-1.3023645877838135;0.009773843921720982;0.42149701714515686
01:00:0A:00:00:00:00;1727741332;01/10/24;00:08:52;1.015;-0.136;0.01;-1.1410963535308838;0.22968533635139465;0.251676470041275
01:00:0A:00:00:00:00;1727741333;01/10/24;00:08:53;1.009;-0.089;0.192;-0.9236282110214233;0.21502456068992615;-0.20525071024894714
01:00:0A:00:00:00:00;1727741334;01/10/24;00:08:54;0.993;0.0;0.207;-0.9285151362419128;-0.03420845419168472;-0.05009094998240471
01:00:0A:00:00:00:00;1727741335;01/10/24;00:08:55;1.001;0.058;-0.099;-0.8955284357070923;-0.26022857427597046;-0.12461651116609573
01:00:0A:00:00:00:00;1727741336;01/10/24;00:08:56;1.0;-0.041;-0.007;-0.9517280459403992;0.32009339332580566;0.38240164518356323
01:00:0A:00:00:00:00;1727741337;01/10/24;00:08:57;1.002;-0.058;0.009;-0.7941248416900635;0.04764748737215996;-0.26022857427597046
01:00:0A:00:00:00:00;1727741338;01/10/24;00:08:58;1.009;0.025;0.046;-0.9150761365890503;0.34574973583221436;0.29077184200286865
01:00:0A:00:00:00:00;1727741339;01/10/24;00:08:59;0.93;-0.083;0.418;-0.7770205736160278;0.010995574295520782;-1.2192870378494263
01:00:0A:00:00:00:00;1727741340;01/10/24;00:09:00;0.948;0.258;-0.389;-1.5149457454681396;-1.0311404466629028;0.9932668209075928
01:00:0A:00:00:00:00;1727741341;01/10/24;00:09:01;1.037;-0.169;-0.194;-1.4721851348876953;0.2590068578720093;0.46181410551071167
01:00:0A:00:00:00:00;1727741342;01/10/24;00:09:02;1.012;-0.139;0.222;-1.2473868131637573;0.17959438264369965;0.03420845419168472
01:00:0A:00:00:00:00;1727741343;01/10/24;00:09:03;1.007;-0.044;-0.014;-1.0030406713485718;-0.1869247555732727;-0.2015855312347412
01:00:0A:00:00:00:00;1727741344;01/10/24;00:09:04;0.964;0.186;0.109;-1.0824532508850098;-0.251676470041275;0.06719517707824707
01:00:0A:00:00:00:00;1727741345;01/10/24;00:09:05;1.018;-0.018;-0.077;-1.1068878173828125;-0.294437050819397;0.32009339332580566
01:00:0A:00:00:00:00;1727741346;01/10/24;00:09:06;0.992;0.055;-0.297;-1.0030406713485718;0.14538592100143433;0.3335324227809906
01:00:0A:00:00:00:00;1727741347;01/10/24;00:09:07;1.03;-0.253;-0.019;-0.7586946487426758;0.2736676335334778;0.16493360698223114
01:00:0A:00:00:00:00;1727741348;01/10/24;00:09:08;1.045;-0.001;0.123;-0.5497786998748779;0.1160643920302391;-0.21013763546943665
01:00:0A:00:00:00:00;1727741349;01/10/24;00:09:09;1.011;0.09;0.008;-0.598647952079773;-0.17348572611808777;-0.013439035043120384
01:00:0A:00:00:00:00;1727741350;01/10/24;00:09:10;0.959;-0.034;-0.061;-0.6084217429161072;-0.080634206533432;0.23335053026676178
01:00:0A:00:00:00:00;1727741351;01/10/24;00:09:11;0.925;-0.222;0.122;-0.43737950921058655;0.7892378568649292;0.16371189057826996
01:00:0A:00:00:00:00;1727741352;01/10/24;00:09:12;0.854;0.01;0.442;-0.19792033731937408;-0.3946189284324646;-1.263269305229187
01:00:0A:00:00:00:00;1727741353;01/10/24;00:09:13;0.912;0.371;0.025;-0.7855727076530457;-0.7586946487426758;0.15882496535778046
01:00:0A:00:00:00:00;1727741354;01/10/24;00:09:14;1.025;0.044;0.061;-1.1447614431381226;-0.28099802136421204;0.42149701714515686
01:00:0A:00:00:00:00;1727741355;01/10/24;00:09:15;0.996;-0.021;-0.218;-1.0604619979858398;-0.20402899384498596;0.009773843921720982
01:00:0A:00:00:00:00;1727741356;01/10/24;00:09:16;1.0;-0.099;0.036;-1.0225883722305298;0.251676470041275;0.4239404499530792
01:00:0A:00:00:00:00;1727741357;01/10/24;00:09:17;0.989;-0.013;0.015;-0.8283332586288452;0.07696902006864548;-0.2736676335334778
01:00:0A:00:00:00:00;1727741358;01/10/24;00:09:18;0.975;0.069;0.146;-0.8698720932006836;-0.09040805697441101;0.08918632566928864
01:00:0A:00:00:00:00;1727741359;01/10/24;00:09:19;1.013;-0.039;0.012;-0.7929030656814575;-0.21135938167572021;-0.0036651913542300463
01:00:0A:00:00:00:00;1727741360;01/10/24;00:09:20;1.036;0.016;0.031;-0.7464773058891296;0.15027284622192383;0.0757472887635231
01:00:0A:00:00:00:00;1727741361;01/10/24;00:09:21;1.039;-0.076;0.057;-0.6475171446800232;-0.012217304669320583;-0.00855211354792118
01:00:0A:00:00:00:00;1727741362;01/10/24;00:09:22;1.018;0.071;0.106;-0.5558874011039734;0.19547687470912933;-0.05009094998240471
01:00:0A:00:00:00:00;1727741363;01/10/24;00:09:23;0.991;-0.046;0.103;-0.4508185386657715;-0.20036379992961884;0.1258382350206375
01:00:0A:00:00:00:00;1727741364;01/10/24;00:09:24;0.976;-0.044;-0.02;-0.24678954482078552;-0.04398229718208313;-0.21868975460529327
01:00:0A:00:00:00:00;1727741365;01/10/24;00:09:25;0.975;-0.077;0.056;-0.1563815027475357;0.04398229718208313;0.15515977144241333
01:00:0A:00:00:00:00;1727741366;01/10/24;00:09:26;0.997;-0.084;0.033;0.02932153083384037;0.080634206533432;-0.10262535512447357
01:00:0A:00:00:00:00;1727741367;01/10/24;00:09:27;1.0;-0.033;0.208;0.08429940044879913;0.1160643920302391;0.1062905490398407
01:00:0A:00:00:00:00;1727741368;01/10/24;00:09:28;1.018;0.007;0.265;0.13316862285137177;-0.37140607833862305;-0.08552113175392151
01:00:0A:00:00:00:00;1727741369;01/10/24;00:09:29;1.036;0.028;-0.188;-0.06963863223791122;-0.03420845419168472;0.08185594528913498
01:00:0A:00:00:00:00;1727741370;01/10/24;00:09:30;1.037;-0.051;0.132;-0.08674286305904388;0.2590068578720093;0.0354301817715168
01:00:0A:00:00:00:00;1727741371;01/10/24;00:09:31;1.015;0.041;0.043;-0.07696902006864548;-0.16004669666290283;-0.0708603635430336
01:00:0A:00:00:00:00;1727741372;01/10/24;00:09:32;0.973;0.012;-0.01;-0.14538592100143433;0.0354301817715168;0.05619959905743599
01:00:0A:00:00:00:00;1727741373;01/10/24;00:09:33;0.976;-0.032;0.034;-0.13805554807186127;0.05253440886735916;-0.08674286305904388
01:00:0A:00:00:00:00;1727741374;01/10/24;00:09:34;0.999;-0.006;0.02;-0.16249015927314758;-0.10384709388017654;-0.0036651913542300463
01:00:0A:00:00:00:00;1727741375;01/10/24;00:09:35;1.028;-0.026;-0.04;-0.18814648687839508;-0.030543262138962746;0.07330382615327835
01:00:0A:00:00:00:00;1727741376;01/10/24;00:09:36;1.016;-0.033;0.048;-0.1563815027475357;-0.05497787147760391;-0.021991148591041565
01:00:0A:00:00:00:00;1727741377;01/10/24;00:09:37;1.004;0.01;0.073;-0.14049901068210602;-0.1368338167667389;-0.045204028487205505
01:00:0A:00:00:00:00;1727741378;01/10/24;00:09:38;1.005;0.0;0.038;-0.1722639948129654;-0.05619959905743599;0.04886921867728233
01:00:0A:00:00:00:00;1727741379;01/10/24;00:09:39;1.055;-0.048;0.066;-0.1576032191514969;-0.036651913076639175;-0.004886921960860491
01:00:0A:00:00:00:00;1727741380;01/10/24;00:09:40;1.083;0.015;0.076;-0.14905111491680145;-0.08185594528913498;0.028099799528717995
01:00:0A:00:00:00:00;1727741381;01/10/24;00:09:41;1.082;-0.017;0.025;-0.14049901068210602;0.00855211354792118;0.06352998316287994
01:00:0A:00:00:00:00;1727741382;01/10/24;00:09:42;1.014;0.034;0.069;-0.1258382350206375;0.16249015927314758;-0.05864306166768074
01:00:0A:00:00:00:00;1727741383;01/10/24;00:09:43;0.974;0.015;-0.029;-0.12950342893600464;-0.09162978082895279;0.009773843921720982
01:00:0A:00:00:00:00;1727741384;01/10/24;00:09:44;0.941;0.025;0.013;-0.12950342893600464;0.20402899384498596;-0.08918632566928864
01:00:0A:00:00:00:00;1727741385;01/10/24;00:09:45;0.959;0.017;0.026;-0.13561207056045532;-0.21624629199504852;-0.030543262138962746
01:00:0A:00:00:00:00;1727741386;01/10/24;00:09:46;1.005;-0.016;-0.024;-0.15882496535778046;0.07208210229873657;-0.019547687843441963
01:00:0A:00:00:00:00;1727741387;01/10/24;00:09:47;1.021;-0.034;0.109;-0.15271630883216858;0.004886921960860491;-0.024434609338641167
01:00:0A:00:00:00:00;1727741388;01/10/24;00:09:48;1.033;-0.017;0.066;-0.1514945775270462;-0.08552113175392151;0.015882495790719986
01:00:0A:00:00:00:00;1727741389;01/10/24;00:09:49;1.018;0.015;0.006;-0.1673770695924759;0.013439035043120384;0.0354301817715168
01:00:0A:00:00:00:00;1727741390;01/10/24;00:09:50;0.993;0.001;0.064;-0.1673770695924759;0.040317103266716;0.02932153083384037
01:00:0A:00:00:00:00;1727741391;01/10/24;00:09:51;0.993;-0.011;0.059;-0.12095131725072861;-0.1576032191514969;-0.09040805697441101
01:00:0A:00:00:00:00;1727741392;01/10/24;00:09:52;1.017;0.019;0.001;-0.14416420459747314;-0.021991148591041565;-0.0036651913542300463
01:00:0A:00:00:00:00;1727741393;01/10/24;00:09:53;1.057;-0.041;0.091;-0.14049901068210602;-0.0354301817715168;0.03176499158143997
01:00:0A:00:00:00:00;1727741394;01/10/24;00:09:54;1.066;-0.018;0.075;-0.10506881773471832;-0.05742133408784866;-0.02687807008624077
01:00:0A:00:00:00:00;1727741395;01/10/24;00:09:55;1.038;0.023;0.077;-0.11362093687057495;0.040317103266716;-0.00855211354792118
01:00:0A:00:00:00:00;1727741396;01/10/24;00:09:56;1.01;-0.032;0.095;-0.11239919811487198;0.059864792972803116;0.06841690838336945
01:00:0A:00:00:00:00;1727741397;01/10/24;00:09:57;0.978;0.008;0.03;-0.0708603635430336;-0.04642575979232788;-0.06719517707824707
01:00:0A:00:00:00:00;1727741398;01/10/24;00:09:58;0.982;0.005;0.033;-0.10384709388017654;0.05742133408784866;0.09651670604944229
01:00:0A:00:00:00:00;1727741399;01/10/24;00:09:59;1.005;-0.033;0.059;-0.06719517707824707;-0.08429940044879913;0.0073303827084600925
01:00:0A:00:00:00:00;1727741400;01/10/24;00:10:00;1.038;-0.011;0.034;-0.02687807008624077;-0.07208210229873657;-0.0659734457731247
01:00:0A:00:00:00:00;1727741401;01/10/24;00:10:01;1.048;0.017;0.046;-0.05253440886735916;0.0012217304902151227;0.0012217304902151227
01:00:0A:00:00:00:00;1727741402;01/10/24;00:10:02;1.046;-0.053;0.085;-0.04642575979232788;0.009773843921720982;0.03176499158143997
01:00:0A:00:00:00:00;1727741403;01/10/24;00:10:03;1.034;-0.017;0.04;-0.021991148591041565;-0.02687807008624077;-0.03420845419168472
01:00:0A:00:00:00:00;1727741404;01/10/24;00:10:04;0.995;0.006;0.046;-0.05619959905743599;0.05619959905743599;0.039095375686883926
01:00:0A:00:00:00:00;1727741405;01/10/24;00:10:05;0.974;-0.017;0.054;-0.05742133408784866;-0.018325956538319588;0.051312677562236786
01:00:0A:00:00:00:00;1727741406;01/10/24;00:10:06;0.97;0.003;0.041;-0.036651913076639175;-0.05742133408784866;-0.051312677562236786
01:00:0A:00:00:00:00;1727741407;01/10/24;00:10:07;0.986;0.011;0.055;-0.07330382615327835;0.0024434609804302454;0.06230825558304787
01:00:0A:00:00:00:00;1727741408;01/10/24;00:10:08;1.039;-0.038;0.075;-0.05619959905743599;-0.05253440886735916;-0.02076941914856434
01:00:0A:00:00:00:00;1727741409;01/10/24;00:10:09;1.073;0.017;0.028;-0.0708603635430336;0.006108652334660292;0.030543262138962746
01:00:0A:00:00:00:00;1727741410;01/10/24;00:10:10;1.07;-0.005;0.073;-0.08796459436416626;0.028099799528717995;0.05253440886735916
01:00:0A:00:00:00:00;1727741411;01/10/24;00:10:11;1.038;0.012;0.04;-0.0708603635430336;-0.04886921867728233;-0.00855211354792118
01:00:0A:00:00:00:00;1727741412;01/10/24;00:10:12;1.013;0.024;0.054;-0.07208210229873657;0.0;-0.03298672288656235
01:00:0A:00:00:00:00;1727741413;01/10/24;00:10:13;0.978;-0.003;0.066;-0.07208210229873657;-0.0024434609804302454;-0.009773843921720982
01:00:0A:00:00:00:00;1727741414;01/10/24;00:10:14;0.976;-0.018;0.06;-0.051312677562236786;0.0012217304902151227;-0.05864306166768074
01:00:0A:00:00:00:00;1727741415;01/10/24;00:10:15;0.982;-0.021;0.053;-0.05497787147760391;0.024434609338641167;0.0036651913542300463
01:00:0A:00:00:00:00;1727741416;01/10/24;00:10:16;1.005;-0.023;0.052;-0.051312677562236786;-0.04642575979232788;0.03298672288656235
01:00:0A:00:00:00:00;1727741417;01/10/24;00:10:17;1.019;-0.015;0.048;-0.036651913076639175;-0.03420845419168472;0.0073303827084600925
01:00:0A:00:00:00:00;1727741418;01/10/24;00:10:18;1.053;0.01;0.063;-0.03787364438176155;-0.0073303827084600925;0.03787364438176155
01:00:0A:00:00:00:00;1727741419;01/10/24;00:10:19;1.062;-0.005;0.059;-0.030543262138962746;-0.010995574295520782;0.02932153083384037
01:00:0A:00:00:00:00;1727741420;01/10/24;00:10:20;1.05;0.011;0.042;-0.02076941914856434;0.012217304669320583;-0.039095375686883926
01:00:0A:00:00:00:00;1727741421;01/10/24;00:10:21;1.024;-0.002;0.056;-0.021991148591041565;0.02932153083384037;-0.030543262138962746
01:00:0A:00:00:00:00;1727741422;01/10/24;00:10:22;0.976;-0.032;0.053;-0.014660765416920185;-0.0073303827084600925;-0.024434609338641167
01:00:0A:00:00:00:00;1727741423;01/10/24;00:10:23;0.972;-0.033;0.053;-0.004886921960860491;-0.004886921960860491;-0.03787364438176155
01:00:0A:00:00:00:00;1727741424;01/10/24;00:10:24;1.005;-0.033;0.059;-0.015882495790719986;-0.019547687843441963;0.03298672288656235
01:00:0A:00:00:00:00;1727741425;01/10/24;00:10:25;1.043;-0.018;0.06;-0.012217304669320583;-0.021991148591041565;0.02932153083384037
01:00:0A:00:00:00:00;1727741426;01/10/24;00:10:26;1.057;-0.013;0.059;-0.0036651913542300463;-0.04398229718208313;0.00855211354792118
01:00:0A:00:00:00:00;1727741427;01/10/24;00:10:27;1.057;-0.001;0.063;-0.006108652334660292;-0.019547687843441963;-0.0012217304902151227
01:00:0A:00:00:00:00;1727741428;01/10/24;00:10:28;1.036;-0.012;0.081;-0.014660765416920185;0.014660765416920185;0.010995574295520782
01:00:0A:00:00:00:00;1727741429;01/10/24;00:10:29;0.984;-0.016;0.062;-0.014660765416920185;0.00855211354792118;0.01710422709584236
01:00:0A:00:00:00:00;1727741430;01/10/24;00:10:30;0.96;-0.007;0.052;-0.014660765416920185;0.014660765416920185;0.006108652334660292
01:00:0A:00:00:00:00;1727741431;01/10/24;00:10:31;0.975;0.0;0.045;-0.025656338781118393;-0.021991148591041565;0.051312677562236786
01:00:0A:00:00:00:00;1727741432;01/10/24;00:10:32;1.005;0.0;0.041;-0.013439035043120384;-0.0354301817715168;-0.0036651913542300463
01:00:0A:00:00:00:00;1727741433;01/10/24;00:10:33;1.045;0.01;0.051;-0.012217304669320583;-0.02321287989616394;-0.03176499158143997
01:00:0A:00:00:00:00;1727741434;01/10/24;00:10:34;1.055;-0.005;0.059;-0.02076941914856434;0.0036651913542300463;-0.010995574295520782
01:00:0A:00:00:00:00;1727741435;01/10/24;00:10:35;1.05;-0.019;0.052;-0.01710422709584236;0.012217304669320583;-0.014660765416920185
01:00:0A:00:00:00:00;1727741436;01/10/24;00:10:36;1.027;-0.01;0.045;-0.01710422709584236;0.025656338781118393;-0.004886921960860491
01:00:0A:00:00:00:00;1727741437;01/10/24;00:10:37;1.014;-0.002;0.049;-0.02932153083384037;0.012217304669320583;0.019547687843441963
01:00:0A:00:00:00:00;1727741438;01/10/24;00:10:38;0.985;-0.005;0.046;-0.03176499158143997;-0.02932153083384037;0.013439035043120384
01:00:0A:00:00:00:00;1727741439;01/10/24;00:10:39;0.979;0.0;0.054;-0.028099799528717995;-0.004886921960860491;-0.006108652334660292
01:00:0A:00:00:00:00;1727741440;01/10/24;00:10:40;0.992;0.014;0.066;-0.036651913076639175;-0.01710422709584236;0.012217304669320583
01:00:0A:00:00:00:00;1727741441;01/10/24;00:10:41;1.01;0.004;0.061;-0.03787364438176155;-0.02932153083384037;0.0024434609804302454
01:00:0A:00:00:00:00;1727741442;01/10/24;00:10:42;1.042;0.0;0.048;-0.03176499158143997;-0.00855211354792118;-0.02932153083384037
01:00:0A:00:00:00:00;1727741443;01/10/24;00:10:43;1.054;0.004;0.062;-0.036651913076639175;-0.0036651913542300463;-0.02932153083384037
01:00:0A:00:00:00:00;1727741444;01/10/24;00:10:44;1.049;-0.015;0.05;-0.04642575979232788;-0.006108652334660292;-0.0073303827084600925
01:00:0A:00:00:00:00;1727741445;01/10/24;00:10:45;1.01;-0.011;0.04;-0.05009094998240471;0.004886921960860491;0.015882495790719986
01:00:0A:00:00:00:00;1727741446;01/10/24;00:10:46;0.983;0.001;0.053;-0.06352998316287994;0.012217304669320583;0.018325956538319588
01:00:0A:00:00:00:00;1727741447;01/10/24;00:10:47;0.978;0.005;0.043;-0.07330382615327835;-0.05375614017248154;0.04153883829712868
01:00:0A:00:00:00:00;1727741448;01/10/24;00:10:48;0.996;0.001;0.036;-0.06841690838336945;-0.006108652334660292;0.00855211354792118
01:00:0A:00:00:00:00;1727741449;01/10/24;00:10:49;1.033;0.01;0.061;-0.06719517707824707;-0.036651913076639175;-0.01710422709584236
01:00:0A:00:00:00:00;1727741450;01/10/24;00:10:50;1.047;-0.002;0.053;-0.0708603635430336;-0.04398229718208313;-0.010995574295520782
01:00:0A:00:00:00:00;1727741451;01/10/24;00:10:51;1.054;-0.009;0.042;-0.07208210229873657;0.0036651913542300463;-0.010995574295520782
01:00:0A:00:00:00:00;1727741452;01/10/24;00:10:52;1.024;-0.003;0.068;-0.07696902006864548;0.04642575979232788;0.0012217304902151227
01:00:0A:00:00:00:00;1727741453;01/10/24;00:10:53;1.004;-0.005;0.049;-0.08429940044879913;0.015882495790719986;0.019547687843441963
01:00:0A:00:00:00:00;1727741454;01/10/24;00:10:54;0.979;0.0;0.03;-0.09040805697441101;0.028099799528717995;0.014660765416920185
01:00:0A:00:00:00:00;1727741455;01/10/24;00:10:55;0.978;0.006;0.041;-0.09529497474431992;-0.006108652334660292;0.004886921960860491
01:00:0A:00:00:00:00;1727741456;01/10/24;00:10:56;1.0;0.004;0.04;-0.09773843735456467;-0.0659734457731247;-0.010995574295520782
01:00:0A:00:00:00:00;1727741457;01/10/24;00:10:57;1.016;-0.002;0.03;-0.10384709388017654;-0.03787364438176155;-0.012217304669320583
01:00:0A:00:00:00:00;1727741458;01/10/24;00:10:58;1.038;-0.011;0.059;-0.10751228034496307;-0.04642575979232788;-0.004886921960860491
01:00:0A:00:00:00:00;1727741459;01/10/24;00:10:59;1.038;-0.007;0.06;-0.1111774742603302;-0.05619959905743599;-0.009773843921720982
01:00:0A:00:00:00:00;1727741460;01/10/24;00:11:00;1.033;-0.012;0.056;-0.11850785464048386;-0.02076941914856434;0.010995574295520782
01:00:0A:00:00:00:00;1727741461;01/10/24;00:11:01;1.022;-0.009;0.07;-0.11850785464048386;0.03298672288656235;0.013439035043120384
01:00:0A:00:00:00:00;1727741462;01/10/24;00:11:02;1.018;-0.009;0.057;-0.11362093687057495;0.019547687843441963;0.0
01:00:0A:00:00:00:00;1727741463;01/10/24;00:11:03;1.015;-0.005;0.032;-0.11484266817569733;0.006108652334660292;0.006108652334660292
01:00:0A:00:00:00:00;1727741464;01/10/24;00:11:04;1.015;-0.004;0.038;-0.11484266817569733;0.009773843921720982;0.0036651913542300463
01:00:0A:00:00:00:00;1727741465;01/10/24;00:11:05;0.995;-0.005;0.04;-0.10873401165008545;-0.04153883829712868;-0.021991148591041565
01:00:0A:00:00:00:00;1727741466;01/10/24;00:11:06;0.981;0.001;0.042;-0.10995574295520782;-0.04398229718208313;-0.028099799528717995
01:00:0A:00:00:00:00;1727741467;01/10/24;00:11:07;0.983;-0.012;0.051;-0.11850785464048386;-0.03420845419168472;0.0036651913542300463
01:00:0A:00:00:00:00;1727741468;01/10/24;00:11:08;1.024;-0.02;0.062;-0.11728612333536148;-0.04398229718208313;-0.0036651913542300463
01:00:0A:00:00:00:00;1727741469;01/10/24;00:11:09;1.051;-0.009;0.054;-0.12217304855585098;-0.03176499158143997;0.018325956538319588
01:00:0A:00:00:00:00;1727741470;01/10/24;00:11:10;1.07;-0.005;0.065;-0.12828169763088226;-0.0012217304902151227;0.02932153083384037
01:00:0A:00:00:00:00;1727741471;01/10/24;00:11:11;1.058;-0.004;0.062;-0.12828169763088226;0.015882495790719986;0.01710422709584236
01:00:0A:00:00:00:00;1727741472;01/10/24;00:11:12;1.004;0.012;0.046;-0.12950342893600464;0.024434609338641167;-0.015882495790719986
01:00:0A:00:00:00:00;1727741473;01/10/24;00:11:13;0.975;0.003;0.041;-0.13927726447582245;0.006108652334660292;0.009773843921720982
01:00:0A:00:00:00:00;1727741474;01/10/24;00:11:14;0.969;0.001;0.029;-0.1319468915462494;-0.036651913076639175;-0.039095375686883926
01:00:0A:00:00:00:00;1727741475;01/10/24;00:11:15;0.993;0.006;0.033;-0.13805554807186127;-0.009773843921720982;-0.040317103266716
01:00:0A:00:00:00:00;1727741476;01/10/24;00:11:16;1.031;-0.016;0.051;-0.1466076523065567;-0.05009094998240471;-0.012217304669320583
01:00:0A:00:00:00:00;1727741477;01/10/24;00:11:17;1.046;-0.021;0.05;-0.14905111491680145;-0.04153883829712868;0.00855211354792118
01:00:0A:00:00:00:00;1727741478;01/10/24;00:11:18;1.041;-0.007;0.051;-0.15515977144241333;-0.015882495790719986;0.025656338781118393
01:00:0A:00:00:00:00;1727741479;01/10/24;00:11:19;1.02;0.0;0.069;-0.1576032191514969;-0.018325956538319588;0.02321287989616394
01:00:0A:00:00:00:00;1727741480;01/10/24;00:11:20;1.01;0.0;0.06;-0.14905111491680145;-0.018325956538319588;-0.004886921960860491
01:00:0A:00:00:00:00;1727741481;01/10/24;00:11:21;1.002;-0.003;0.061;-0.14782939851284027;0.00855211354792118;-0.018325956538319588
01:00:0A:00:00:00:00;1727741482;01/10/24;00:11:22;1.009;-0.015;0.065;-0.14538592100143433;-0.0012217304902151227;-0.0024434609804302454
01:00:0A:00:00:00:00;1727741483;01/10/24;00:11:23;1.023;-0.012;0.043;-0.1417207270860672;-0.009773843921720982;0.012217304669320583
01:00:0A:00:00:00:00;1727741484;01/10/24;00:11:24;1.029;-0.003;0.047;-0.14294245839118958;-0.004886921960860491;0.018325956538319588
01:00:0A:00:00:00:00;1727741485;01/10/24;00:11:25;1.02;-0.004;0.058;-0.14294245839118958;-0.00855211354792118;0.00855211354792118
01:00:0A:00:00:00:00;1727741486;01/10/24;00:11:26;0.998;0.0;0.051;-0.14049901068210602;-0.01710422709584236;-0.00855211354792118
01:00:0A:00:00:00:00;1727741487;01/10/24;00:11:27;0.987;0.0;0.052;-0.1466076523065567;0.010995574295520782;0.009773843921720982
01:00:0A:00:00:00:00;1727741488;01/10/24;00:11:28;0.995;-0.004;0.046;-0.14049901068210602;-0.019547687843441963;-0.009773843921720982
01:00:0A:00:00:00:00;1727741489;01/10/24;00:11:29;1.012;-0.001;0.04;-0.13927726447582245;-0.030543262138962746;-0.00855211354792118
01:00:0A:00:00:00:00;1727741490;01/10/24;00:11:30;1.042;-0.001;0.053;-0.14294245839118958;-0.02932153083384037;-0.0024434609804302454
01:00:0A:00:00:00:00;1727741491;01/10/24;00:11:31;1.051;-0.012;0.06;-0.1368338167667389;-0.024434609338641167;-0.03176499158143997
01:00:0A:00:00:00:00;1727741492;01/10/24;00:11:32;1.048;-0.003;0.052;-0.1417207270860672;-0.00855211354792118;-0.018325956538319588
01:00:0A:00:00:00:00;1727741493;01/10/24;00:11:33;1.031;-0.019;0.058;-0.15027284622192383;0.009773843921720982;0.019547687843441963
01:00:0A:00:00:00:00;1727741494;01/10/24;00:11:34;1.0;-0.015;0.042;-0.14416420459747314;-0.012217304669320583;0.019547687843441963
01:00:0A:00:00:00:00;1727741495;01/10/24;00:11:35;0.983;0.004;0.046;-0.14294245839118958;-0.03787364438176155;0.006108652334660292
01:00:0A:00:00:00:00;1727741496;01/10/24;00:11:36;0.986;0.0;0.054;-0.1466076523065567;-0.045204028487205505;0.019547687843441963
01:00:0A:00:00:00:00;1727741497;01/10/24;00:11:37;1.008;-0.008;0.059;-0.13439035415649414;-0.0354301817715168;-0.015882495790719986
01:00:0A:00:00:00:00;1727741498;01/10/24;00:11:38;1.022;-0.001;0.067;-0.13072516024112701;-0.02076941914856434;-0.006108652334660292
01:00:0A:00:00:00:00;1727741499;01/10/24;00:11:39;1.042;-0.008;0.061;-0.1319468915462494;0.0024434609804302454;0.009773843921720982
01:00:0A:00:00:00:00;1727741500;01/10/24;00:11:40;1.044;-0.009;0.044;-0.12339477241039276;0.01710422709584236;0.0012217304902151227
01:00:0A:00:00:00:00;1727741501;01/10/24;00:11:41;1.03;-0.001;0.052;-0.11484266817569733;0.012217304669320583;-0.0073303827084600925
01:00:0A:00:00:00:00;1727741502;01/10/24;00:11:42;1.02;-0.003;0.048;-0.10873401165008545;-0.018325956538319588;-0.012217304669320583
01:00:0A:00:00:00:00;1727741503;01/10/24;00:11:43;1.001;-0.01;0.041;-0.1014036238193512;-0.025656338781118393;-0.012217304669320583
01:00:0A:00:00:00:00;1727741504;01/10/24;00:11:44;0.996;-0.012;0.055;-0.09651670604944229;-0.021991148591041565;-0.009773843921720982
01:00:0A:00:00:00:00;1727741505;01/10/24;00:11:45;1.002;-0.011;0.064;-0.08796459436416626;-0.042760565876960754;-0.00855211354792118
01:00:0A:00:00:00:00;1727741506;01/10/24;00:11:46;1.023;-0.008;0.057;-0.08552113175392151;-0.00855211354792118;0.01710422709584236
01:00:0A:00:00:00:00;1727741507;01/10/24;00:11:47;1.035;-0.011;0.062;-0.07941248267889023;0.014660765416920185;0.015882495790719986
01:00:0A:00:00:00:00;1727741508;01/10/24;00:11:48;1.036;-0.006;0.054;-0.06841690838336945;0.004886921960860491;-0.0024434609804302454
01:00:0A:00:00:00:00;1727741509;01/10/24;00:11:49;1.028;0.0;0.044;-0.06352998316287994;-0.0012217304902151227;-0.0036651913542300463
01:00:0A:00:00:00:00;1727741510;01/10/24;00:11:50;1.008;-0.009;0.051;-0.06108652427792549;0.0036651913542300463;0.006108652334660292
01:00:0A:00:00:00:00;1727741511;01/10/24;00:11:51;0.998;-0.01;0.055;-0.04764748737215996;-0.025656338781118393;-0.014660765416920185
01:00:0A:00:00:00:00;1727741512;01/10/24;00:11:52;0.995;-0.008;0.056;-0.04398229718208313;-0.03176499158143997;-0.012217304669320583
01:00:0A:00:00:00:00;1727741513;01/10/24;00:11:53;1.01;-0.013;0.06;-0.045204028487205505;-0.009773843921720982;0.009773843921720982
01:00:0A:00:00:00:00;1727741514;01/10/24;00:11:54;1.022;-0.021;0.064;-0.036651913076639175;-0.012217304669320583;0.0036651913542300463
01:00:0A:00:00:00:00;1727741515;01/10/24;00:11:55;1.038;-0.004;0.052;-0.0354301817715168;-0.0036651913542300463;0.009773843921720982
01:00:0A:00:00:00:00;1727741516;01/10/24;00:11:56;1.039;-0.008;0.05;-0.039095375686883926;0.0036651913542300463;0.015882495790719986
01:00:0A:00:00:00:00;1727741517;01/10/24;00:11:57;1.027;-0.011;0.059;-0.03176499158143997;-0.0024434609804302454;0.0012217304902151227
01:00:0A:00:00:00:00;1727741518;01/10/24;00:11:58;1.018;-0.001;0.055;-0.025656338781118393;-0.0024434609804302454;-0.015882495790719986
01:00:0A:00:00:00:00;1727741519;01/10/24;00:11:59;0.996;-0.009;0.053;-0.02932153083384037;0.0024434609804302454;0.0036651913542300463
01:00:0A:00:00:00:00;1727741520;01/10/24;00:12:00;0.99;-0.018;0.055;-0.02076941914856434;-0.00855211354792118;-0.010995574295520782
01:00:0A:00:00:00:00;1727741521;01/10/24;00:12:01;1.0;-0.01;0.051;-0.01710422709584236;-0.028099799528717995;-0.006108652334660292
01:00:0A:00:00:00:00;1727741522;01/10/24;00:12:02;1.029;-0.005;0.057;-0.021991148591041565;-0.028099799528717995;0.01710422709584236
01:00:0A:00:00:00:00;1727741523;01/10/24;00:12:03;1.041;-0.017;0.061;-0.01710422709584236;-0.021991148591041565;0.0024434609804302454
01:00:0A:00:00:00:00;1727741524;01/10/24;00:12:04;1.047;0.0;0.061;-0.01710422709584236;-0.0036651913542300463;-0.0036651913542300463
01:00:0A:00:00:00:00;1727741525;01/10/24;00:12:05;1.034;-0.006;0.062;-0.021991148591041565;0.019547687843441963;0.00855211354792118
01:00:0A:00:00:00:00;1727741526;01/10/24;00:12:06;1.0;-0.014;0.049;-0.01710422709584236;0.021991148591041565;0.010995574295520782
01:00:0A:00:00:00:00;1727741527;01/10/24;00:12:07;0.982;-0.004;0.044;-0.015882495790719986;0.0024434609804302454;0.006108652334660292
01:00:0A:00:00:00:00;1727741528;01/10/24;00:12:08;0.989;0.0;0.045;-0.021991148591041565;-0.03420845419168472;0.02932153083384037
01:00:0A:00:00:00:00;1727741529;01/10/24;00:12:09;1.02;-0.003;0.052;-0.012217304669320583;-0.042760565876960754;-0.013439035043120384
01:00:0A:00:00:00:00;1727741530;01/10/24;00:12:10;1.034;0.003;0.063;-0.010995574295520782;-0.028099799528717995;-0.019547687843441963
01:00:0A:00:00:00:00;1727741531;01/10/24;00:12:11;1.045;-0.006;0.064;-0.019547687843441963;0.0024434609804302454;-0.0012217304902151227
01:00:0A:00:00:00:00;1727741532;01/10/24;00:12:12;1.036;-0.02;0.059;-0.014660765416920185;0.00855211354792118;-0.010995574295520782
01:00:0A:00:00:00:00;1727741533;01/10/24;00:12:13;1.015;-0.014;0.054;-0.012217304669320583;0.015882495790719986;-0.006108652334660292
01:00:0A:00:00:00:00;1727741534;01/10/24;00:12:14;1.01;-0.012;0.05;-0.019547687843441963;-0.010995574295520782;0.02687807008624077
01:00:0A:00:00:00:00;1727741535;01/10/24;00:12:15;1.01;-0.011;0.052;-0.01710422709584236;-0.028099799528717995;0.02076941914856434
01:00:0A:00:00:00:00;1727741536;01/10/24;00:12:16;1.016;-0.003;0.059;-0.012217304669320583;-0.018325956538319588;0.0036651913542300463
01:00:0A:00:00:00:00;1727741537;01/10/24;00:12:17;1.016;0.0;0.062;-0.015882495790719986;-0.006108652334660292;0.0073303827084600925
01:00:0A:00:00:00:00;1727741538;01/10/24;00:12:18;1.011;-0.009;0.054;-0.013439035043120384;-0.0024434609804302454;-0.0036651913542300463
01:00:0A:00:00:00:00;1727741539;01/10/24;00:12:19;1.007;-0.005;0.046;-0.0073303827084600925;-0.006108652334660292;-0.018325956538319588
01:00:0A:00:00:00:00;1727741540;01/10/24;00:12:20;1.008;-0.004;0.046;-0.009773843921720982;-0.040317103266716;-0.0036651913542300463
01:00:0A:00:00:00:00;1727741541;01/10/24;00:12:21;1.013;-0.013;0.048;-0.00855211354792118;-0.04398229718208313;-0.00855211354792118
01:00:0A:00:00:00:00;1727741542;01/10/24;00:12:22;1.022;-0.012;0.055;-0.004886921960860491;-0.019547687843441963;-0.006108652334660292
01:00:0A:00:00:00:00;1727741543;01/10/24;00:12:23;1.028;-0.007;0.064;-0.0073303827084600925;-0.015882495790719986;0.012217304669320583
01:00:0A:00:00:00:00;1727741540;01/10/24;00:12:20;1.032;-0.01;0.057;-0.009773843921720982;0.00855211354792118;0.018325956538319588
01:00:0A:00:00:00:00;1727741541;01/10/24;00:12:21;1.027;-0.007;0.051;-0.004886921960860491;0.02076941914856434;0.0073303827084600925
01:00:0A:00:00:00:00;1727741542;01/10/24;00:12:22;1.013;0.0;0.044;-0.004886921960860491;0.004886921960860491;-0.004886921960860491
01:00:0A:00:00:00:00;1727741543;01/10/24;00:12:23;0.998;-0.007;0.04;-0.004886921960860491;-0.03787364438176155;-0.0036651913542300463
01:00:0A:00:00:00:00;1727741544;01/10/24;00:12:24;0.993;-0.01;0.046;0.0;-0.03176499158143997;-0.012217304669320583
01:00:0A:00:00:00:00;1727741545;01/10/24;00:12:25;1.002;-0.011;0.06;0.0012217304902151227;-0.028099799528717995;-0.006108652334660292
01:00:0A:00:00:00:00;1727741546;01/10/24;00:12:26;1.016;-0.013;0.06;0.0012217304902151227;-0.03787364438176155;-0.0012217304902151227
01:00:0A:00:00:00:00;1727741547;01/10/24;00:12:27;1.041;-0.011;0.058;-0.0012217304902151227;-0.0024434609804302454;0.009773843921720982
01:00:0A:00:00:00:00;1727741548;01/10/24;00:12:28;1.047;-0.005;0.057;-0.0024434609804302454;0.0036651913542300463;0.009773843921720982
01:00:0A:00:00:00:00;1727741549;01/10/24;00:12:29;1.036;-0.003;0.058;-0.0036651913542300463;0.0;0.009773843921720982
01:00:0A:00:00:00:00;1727741550;01/10/24;00:12:30;1.019;-0.004;0.054;-0.004886921960860491;0.0073303827084600925;0.0024434609804302454
01:00:0A:00:00:00:00;1727741551;01/10/24;00:12:31;0.992;0.0;0.03;0.1160643920302391;-0.07696902006864548;-0.013439035043120384
01:00:0A:00:00:00:00;1727741552;01/10/24;00:12:32;0.987;0.016;-0.028;0.11972958594560623;-0.0354301817715168;-0.028099799528717995
01:00:0A:00:00:00:00;1727741553;01/10/24;00:12:33;1.003;0.018;-0.031;0.4153883755207062;0.02687807008624077;-0.025656338781118393
01:00:0A:00:00:00:00;1727741554;01/10/24;00:12:34;1.026;0.031;0.015;0.645073652267456;0.09773843735456467;-0.004886921960860491
01:00:0A:00:00:00:00;1727741555;01/10/24;00:12:35;1.029;0.043;0.101;0.5754350423812866;0.013439035043120384;0.09162978082895279
01:00:0A:00:00:00:00;1727741556;01/10/24;00:12:36;1.034;-0.043;0.059;0.5485569834709167;-0.05619959905743599;0.1014036238193512
01:00:0A:00:00:00:00;1727741557;01/10/24;00:12:37;1.027;-0.024;0.029;0.5900958180427551;-0.019547687843441963;-0.05375614017248154
01:00:0A:00:00:00:00;1727741558;01/10/24;00:12:38;1.013;0.037;0.037;0.5522221922874451;0.042760565876960754;-0.030543262138962746
01:00:0A:00:00:00:00;1727741559;01/10/24;00:12:39;1.009;-0.001;0.074;0.4862487316131592;0.05742133408784866;0.09285151958465576
01:00:0A:00:00:00:00;1727741560;01/10/24;00:12:40;1.006;-0.024;0.069;0.48869219422340393;-0.05253440886735916;0.028099799528717995
01:00:0A:00:00:00:00;1727741561;01/10/24;00:12:41;1.01;-0.008;0.017;0.48258352279663086;-0.04764748737215996;-0.014660765416920185
01:00:0A:00:00:00:00;1727741562;01/10/24;00:12:42;1.013;0.004;0.037;0.445931613445282;0.045204028487205505;0.018325956538319588
01:00:0A:00:00:00:00;1727741563;01/10/24;00:12:43;1.018;0.007;0.081;0.4105014204978943;-0.012217304669320583;0.05864306166768074
01:00:0A:00:00:00:00;1727741564;01/10/24;00:12:44;1.023;-0.024;0.045;0.40194931626319885;-0.04642575979232788;0.04642575979232788
01:00:0A:00:00:00:00;1727741565;01/10/24;00:12:45;1.023;-0.014;0.03;0.4153883755207062;-0.0073303827084600925;-0.02687807008624077
01:00:0A:00:00:00:00;1727741565;01/10/24;00:12:45;1.017;0.019;0.056;0.3848450779914856;0.010995574295520782;0.0012217304902151227
01:00:0A:00:00:00:00;1727741566;01/10/24;00:12:46;1.012;-0.008;0.066;0.35185837745666504;-0.010995574295520782;0.06230825558304787
01:00:0A:00:00:00:00;1727741567;01/10/24;00:12:47;1.008;-0.025;0.064;0.36651912331581116;-0.03298672288656235;-0.006108652334660292
01:00:0A:00:00:00:00;1727741568;01/10/24;00:12:48;1.008;0.004;0.049;0.36163222789764404;-0.014660765416920185;-0.025656338781118393
01:00:0A:00:00:00:00;1727741569;01/10/24;00:12:49;1.018;0.001;0.059;0.3274237811565399;0.024434609338641167;0.025656338781118393
01:00:0A:00:00:00:00;1727741570;01/10/24;00:12:50;1.024;-0.019;0.082;0.3188716471195221;-0.012217304669320583;0.012217304669320583
01:00:0A:00:00:00:00;1727741571;01/10/24;00:12:51;1.031;-0.011;0.049;0.3152064383029938;-0.013439035043120384;0.0036651913542300463
01:00:0A:00:00:00:00;1727741572;01/10/24;00:12:52;1.029;-0.003;0.046;0.2993239760398865;0.04153883829712868;0.0036651913542300463
01:00:0A:00:00:00:00;1727741573;01/10/24;00:12:53;1.019;-0.004;0.065;0.2834414541721344;0.02321287989616394;0.012217304669320583
01:00:0A:00:00:00:00;1727741574;01/10/24;00:12:54;1.016;-0.013;0.05;0.2724458873271942;-0.02687807008624077;0.02687807008624077
01:00:0A:00:00:00:00;1727741575;01/10/24;00:12:55;1.007;-0.007;0.042;0.27000245451927185;-0.00855211354792118;0.0024434609804302454
01:00:0A:00:00:00:00;1727741576;01/10/24;00:12:56;1.008;0.009;0.059;0.2565633952617645;0.0024434609804302454;0.0
01:00:0A:00:00:00:00;1727741577;01/10/24;00:12:57;1.011;0.001;0.059;0.2370157092809677;-0.019547687843441963;0.021991148591041565
01:00:0A:00:00:00:00;1727741578;01/10/24;00:12:58;1.016;-0.016;0.047;0.2382374405860901;-0.021991148591041565;-0.006108652334660292
01:00:0A:00:00:00:00;1727741579;01/10/24;00:12:59;1.016;-0.003;0.046;0.23335053026676178;-0.012217304669320583;-0.012217304669320583
01:00:0A:00:00:00:00;1727741580;01/10/24;00:13:00;1.021;-0.003;0.056;0.21624629199504852;-0.012217304669320583;0.02932153083384037
01:00:0A:00:00:00:00;1727741581;01/10/24;00:13:01;1.023;-0.018;0.058;0.2174680233001709;-0.019547687843441963;0.021991148591041565
01:00:0A:00:00:00:00;1727741582;01/10/24;00:13:02;1.024;-0.005;0.05;0.22357667982578278;-0.0073303827084600925;-0.004886921960860491
01:00:0A:00:00:00:00;1727741583;01/10/24;00:13:03;1.02;0.001;0.053;0.21380282938480377;0.018325956538319588;0.006108652334660292
01:00:0A:00:00:00:00;1727741584;01/10/24;00:13:04;1.01;-0.014;0.054;0.21135938167572021;-0.0024434609804302454;0.010995574295520782
01:00:0A:00:00:00:00;1727741585;01/10/24;00:13:05;1.002;-0.018;0.048;0.2174680233001709;-0.02932153083384037;0.0
01:00:0A:00:00:00:00;1727741586;01/10/24;00:13:06;1.005;-0.007;0.049;0.2125810980796814;-0.0024434609804302454;0.009773843921720982
01:00:0A:00:00:00:00;1727741587;01/10/24;00:13:07;1.014;-0.006;0.06;0.20402899384498596;-0.00855211354792118;0.02687807008624077
01:00:0A:00:00:00:00;1727741588;01/10/24;00:13:08;1.017;-0.012;0.055;0.20402899384498596;-0.02687807008624077;0.018325956538319588
01:00:0A:00:00:00:00;1727741589;01/10/24;00:13:09;1.025;-0.002;0.049;0.20525071024894714;-0.012217304669320583;-0.0012217304902151227
01:00:0A:00:00:00:00;1727741590;01/10/24;00:13:10;1.026;0.0;0.058;0.19547687470912933;-0.006108652334660292;0.006108652334660292
01:00:0A:00:00:00:00;1727741591;01/10/24;00:13:11;1.027;-0.011;0.062;0.19058994948863983;-0.010995574295520782;0.009773843921720982
01:00:0A:00:00:00:00;1727741592;01/10/24;00:13:12;1.022;-0.01;0.054;0.19058994948863983;0.0012217304902151227;0.0012217304902151227
01:00:0A:00:00:00:00;1727741593;01/10/24;00:13:13;1.018;0.0;0.051;0.18325956165790558;0.018325956538319588;0.0036651913542300463
01:00:0A:00:00:00:00;1727741594;01/10/24;00:13:14;1.009;-0.009;0.053;0.17470745742321014;0.0012217304902151227;0.015882495790719986
01:00:0A:00:00:00:00;1727741595;01/10/24;00:13:15;1.006;-0.014;0.046;0.17592918872833252;-0.02076941914856434;0.004886921960860491
01:00:0A:00:00:00:00;1727741596;01/10/24;00:13:16;1.001;-0.008;0.047;0.17348572611808777;-0.015882495790719986;0.006108652334660292
01:00:0A:00:00:00:00;1727741597;01/10/24;00:13:17;1.002;-0.005;0.06;0.16493360698223114;-0.010995574295520782;0.013439035043120384
01:00:0A:00:00:00:00;1727741598;01/10/24;00:13:18;1.015;-0.005;0.062;0.16249015927314758;-0.03176499158143997;0.006108652334660292
01:00:0A:00:00:00:00;1727741599;01/10/24;00:13:19;1.024;-0.003;0.052;0.16004669666290283;-0.013439035043120384;-0.0024434609804302454
01:00:0A:00:00:00:00;1727741600;01/10/24;00:13:20;1.036;-0.005;0.06;0.15393804013729095;0.010995574295520782;-0.0012217304902151227
01:00:0A:00:00:00:00;1727741601;01/10/24;00:13:21;1.028;-0.01;0.06;0.14782939851284027;0.0012217304902151227;0.013439035043120384
01:00:0A:00:00:00:00;1727741602;01/10/24;00:13:22;1.021;-0.011;0.048;0.14538592100143433;0.0012217304902151227;0.013439035043120384
01:00:0A:00:00:00:00;1727741603;01/10/24;00:13:23;1.006;-0.004;0.051;0.14294245839118958;0.006108652334660292;0.00855211354792118
01:00:0A:00:00:00:00;1727741604;01/10/24;00:13:24;1.002;-0.001;0.056;0.13561207056045532;-0.01710422709584236;0.018325956538319588
01:00:0A:00:00:00:00;1727741605;01/10/24;00:13:25;1.004;-0.009;0.049;0.13561207056045532;-0.025656338781118393;0.006108652334660292
01:00:0A:00:00:00:00;1727741606;01/10/24;00:13:26;1.012;-0.003;0.054;0.13561207056045532;-0.013439035043120384;-0.006108652334660292
01:00:0A:00:00:00:00;1727741607;01/10/24;00:13:27;1.02;0.0;0.061;0.12828169763088226;-0.014660765416920185;0.006108652334660292
01:00:0A:00:00:00:00;1727741608;01/10/24;00:13:28;1.021;-0.012;0.054;0.12461651116609573;-0.012217304669320583;0.00855211354792118
01:00:0A:00:00:00:00;1727741609;01/10/24;00:13:29;1.021;-0.008;0.053;0.1270599663257599;-0.004886921960860491;-0.00855211354792118
01:00:0A:00:00:00:00;1727741610;01/10/24;00:13:30;1.018;-0.004;0.056;0.11850785464048386;-0.0036651913542300463;0.00855211354792118
01:00:0A:00:00:00:00;1727741611;01/10/24;00:13:31;1.016;-0.013;0.055;0.11362093687057495;-0.0073303827084600925;0.019547687843441963
01:00:0A:00:00:00:00;1727741612;01/10/24;00:13:32;1.012;-0.007;0.053;0.1160643920302391;-0.009773843921720982;0.0012217304902151227
01:00:0A:00:00:00:00;1727741613;01/10/24;00:13:33;1.01;0.002;0.054;0.10751228034496307;-0.006108652334660292;0.012217304669320583
01:00:0A:00:00:00:00;1727741614;01/10/24;00:13:34;1.013;-0.004;0.056;0.1014036238193512;-0.01710422709584236;0.009773843921720982
01:00:0A:00:00:00:00;1727741615;01/10/24;00:13:35;1.016;-0.006;0.055;0.10506881773471832;-0.02321287989616394;-0.010995574295520782
01:00:0A:00:00:00:00;1727741616;01/10/24;00:13:36;1.019;0.0;0.054;0.09651670604944229;-0.015882495790719986;-0.0036651913542300463
01:00:0A:00:00:00:00;1727741617;01/10/24;00:13:37;1.02;-0.008;0.061;0.08796459436416626;-0.010995574295520782;0.009773843921720982
01:00:0A:00:00:00:00;1727741618;01/10/24;00:13:38;1.019;-0.012;0.059;0.09040805697441101;-0.012217304669320583;0.0
01:00:0A:00:00:00:00;1727741619;01/10/24;00:13:39;1.015;-0.002;0.05;0.08552113175392151;-0.006108652334660292;0.0036651913542300463
01:00:0A:00:00:00:00;1727741620;01/10/24;00:13:40;1.012;-0.004;0.055;0.0757472887635231;0.0024434609804302454;0.018325956538319588
01:00:0A:00:00:00:00;1727741621;01/10/24;00:13:41;1.012;-0.008;0.054;0.07819075137376785;-0.02321287989616394;0.0
01:00:0A:00:00:00:00;1727741622;01/10/24;00:13:42;1.016;-0.001;0.047;0.07452555745840073;-0.02321287989616394;0.004886921960860491
01:00:0A:00:00:00:00;1727741623;01/10/24;00:13:43;1.021;-0.004;0.058;0.06719517707824707;-0.010995574295520782;0.012217304669320583
01:00:0A:00:00:00:00;1727741624;01/10/24;00:13:44;1.02;-0.007;0.061;0.06963863223791122;-0.018325956538319588;0.0
01:00:0A:00:00:00:00;1727741625;01/10/24;00:13:45;1.016;-0.003;0.05;0.06719517707824707;-0.013439035043120384;-0.004886921960860491
01:00:0A:00:00:00:00;1727741626;01/10/24;00:13:46;1.013;-0.007;0.057;0.06108652427792549;0.004886921960860491;0.004886921960860491
01:00:0A:00:00:00:00;1727741627;01/10/24;00:13:47;1.009;-0.011;0.059;0.06108652427792549;-0.012217304669320583;0.0036651913542300463
01:00:0A:00:00:00:00;1727741628;01/10/24;00:13:48;1.014;-0.006;0.049;0.059864792972803116;-0.021991148591041565;0.004886921960860491
01:00:0A:00:00:00:00;1727741629;01/10/24;00:13:49;1.015;-0.003;0.05;0.05375614017248154;-0.0073303827084600925;0.012217304669320583
01:00:0A:00:00:00:00;1727741630;01/10/24;00:13:50;1.019;-0.004;0.059;0.05375614017248154;-0.02076941914856434;0.0012217304902151227
01:00:0A:00:00:00:00;1727741631;01/10/24;00:13:51;1.021;-0.002;0.049;0.051312677562236786;-0.024434609338641167;-0.0024434609804302454
01:00:0A:00:00:00:00;1727741632;01/10/24;00:13:52;1.019;-0.007;0.051;0.04886921867728233;-0.0073303827084600925;0.0
01:00:0A:00:00:00:00;1727741633;01/10/24;00:13:53;1.02;-0.009;0.063;0.04764748737215996;-0.014660765416920185;0.0012217304902151227
01:00:0A:00:00:00:00;1727741634;01/10/24;00:13:54;1.017;-0.008;0.052;0.04764748737215996;-0.015882495790719986;0.006108652334660292
01:00:0A:00:00:00:00;1727741635;01/10/24;00:13:55;1.015;-0.007;0.052;0.045204028487205505;0.0036651913542300463;0.00855211354792118
01:00:0A:00:00:00:00;1727741636;01/10/24;00:13:56;1.009;-0.004;0.057;0.04642575979232788;-0.0073303827084600925;0.004886921960860491
01:00:0A:00:00:00:00;1727741637;01/10/24;00:13:57;1.011;-0.007;0.05;0.04764748737215996;-0.030543262138962746;-0.0036651913542300463
01:00:0A:00:00:00:00;1727741638;01/10/24;00:13:58;1.016;-0.008;0.05;0.04886921867728233;-0.013439035043120384;-0.0024434609804302454
01:00:0A:00:00:00:00;1727741639;01/10/24;00:13:59;1.023;-0.011;0.064;0.04886921867728233;-0.012217304669320583;0.006108652334660292
01:00:0A:00:00:00:00;1727741640;01/10/24;00:14:00;1.024;-0.011;0.056;0.05009094998240471;-0.018325956538319588;0.010995574295520782
01:00:0A:00:00:00:00;1727741641;01/10/24;00:14:01;1.02;-0.008;0.048;0.05253440886735916;0.0;0.00855211354792118
01:00:0A:00:00:00:00;1727741642;01/10/24;00:14:02;1.016;-0.005;0.056;0.05253440886735916;-0.0012217304902151227;0.00855211354792118
01:00:0A:00:00:00:00;1727741643;01/10/24;00:14:03;1.011;-0.007;0.052;0.05253440886735916;-0.019547687843441963;0.004886921960860491
01:00:0A:00:00:00:00;1727741644;01/10/24;00:14:04;1.013;-0.009;0.048;0.05375614017248154;-0.010995574295520782;-0.0012217304902151227
01:00:0A:00:00:00:00;1727741645;01/10/24;00:14:05;1.017;-0.006;0.058;0.051312677562236786;-0.009773843921720982;0.0012217304902151227
01:00:0A:00:00:00:00;1727741646;01/10/24;00:14:06;1.017;-0.007;0.054;0.04764748737215996;-0.014660765416920185;0.009773843921720982
01:00:0A:00:00:00:00;1727741647;01/10/24;00:14:07;1.018;-0.008;0.051;0.04886921867728233;-0.0073303827084600925;0.004886921960860491
01:00:0A:00:00:00:00;1727741648;01/10/24;00:14:08;1.017;-0.004;0.054;0.04642575979232788;-0.0036651913542300463;0.0012217304902151227
01:00:0A:00:00:00:00;1727741649;01/10/24;00:14:09;1.019;-0.008;0.053;0.042760565876960754;-0.015882495790719986;0.006108652334660292
01:00:0A:00:00:00:00;1727741650;01/10/24;00:14:10;1.021;-0.01;0.049;0.042760565876960754;-0.010995574295520782;0.0012217304902151227
01:00:0A:00:00:00:00;1727741651;01/10/24;00:14:11;1.019;-0.007;0.055;0.040317103266716;-0.00855211354792118;0.006108652334660292
01:00:0A:00:00:00:00;1727741652;01/10/24;00:14:12;1.013;-0.005;0.057;0.0354301817715168;-0.012217304669320583;0.013439035043120384
01:00:0A:00:00:00:00;1727741653;01/10/24;00:14:13;1.007;-0.007;0.051;0.0354301817715168;-0.012217304669320583;0.004886921960860491
01:00:0A:00:00:00:00;1727741654;01/10/24;00:14:14;1.007;-0.004;0.051;0.03420845419168472;-0.014660765416920185;0.0024434609804302454
01:00:0A:00:00:00:00;1727741655;01/10/24;00:14:15;1.016;-0.005;0.055;0.03176499158143997;-0.02321287989616394;0.0073303827084600925
01:00:0A:00:00:00:00;1727741656;01/10/24;00:14:16;1.022;-0.007;0.053;0.03176499158143997;-0.015882495790719986;0.0
01:00:0A:00:00:00:00;1727741657;01/10/24;00:14:17;1.027;-0.004;0.057;0.030543262138962746;-0.004886921960860491;-0.0036651913542300463
01:00:0A:00:00:00:00;1727741658;01/10/24;00:14:18;1.026;-0.008;0.056;0.024434609338641167;-0.0073303827084600925;0.006108652334660292
01:00:0A:00:00:00:00;1727741659;01/10/24;00:14:19;1.016;-0.009;0.052;0.02321287989616394;-0.004886921960860491;0.0073303827084600925
01:00:0A:00:00:00:00;1727741660;01/10/24;00:14:20;1.012;-0.005;0.05;0.021991148591041565;-0.006108652334660292;0.006108652334660292
01:00:0A:00:00:00:00;1727741661;01/10/24;00:14:21;1.008;-0.005;0.05;0.019547687843441963;-0.02076941914856434;0.014660765416920185
01:00:0A:00:00:00:00;1727741662;01/10/24;00:14:22;1.015;-0.006;0.053;0.02076941914856434;-0.02076941914856434;0.006108652334660292
01:00:0A:00:00:00:00;1727741663;01/10/24;00:14:23;1.019;-0.001;0.055;0.019547687843441963;-0.015882495790719986;0.0
01:00:0A:00:00:00:00;1727741664;01/10/24;00:14:24;1.022;-0.003;0.056;0.015882495790719986;-0.010995574295520782;0.0024434609804302454
01:00:0A:00:00:00:00;1727741665;01/10/24;00:14:25;1.02;-0.009;0.054;0.014660765416920185;-0.006108652334660292;0.0012217304902151227
01:00:0A:00:00:00:00;1727741666;01/10/24;00:14:26;1.016;-0.004;0.052;0.013439035043120384;-0.00855211354792118;0.0
01:00:0A:00:00:00:00;1727741667;01/10/24;00:14:27;1.016;-0.006;0.054;0.00855211354792118;-0.013439035043120384;0.00855211354792118
01:00:0A:00:00:00:00;1727741668;01/10/24;00:14:28;1.017;-0.008;0.052;0.00855211354792118;-0.013439035043120384;0.006108652334660292
01:00:0A:00:00:00:00;1727741669;01/10/24;00:14:29;1.018;-0.005;0.055;0.00855211354792118;-0.009773843921720982;0.0
01:00:0A:00:00:00:00;1727741670;01/10/24;00:14:30;1.017;-0.003;0.056;0.006108652334660292;-0.012217304669320583;0.006108652334660292
01:00:0A:00:00:00:00;1727741671;01/10/24;00:14:31;1.019;-0.008;0.055;0.006108652334660292;-0.009773843921720982;0.004886921960860491
01:00:0A:00:00:00:00;1727741672;01/10/24;00:14:32;1.016;-0.006;0.055;0.0073303827084600925;-0.004886921960860491;-0.0012217304902151227
01:00:0A:00:00:00:00;1727741673;01/10/24;00:14:33;1.012;-0.005;0.053;0.004886921960860491;-0.012217304669320583;0.0036651913542300463
01:00:0A:00:00:00:00;1727741674;01/10/24;00:14:34;1.012;-0.008;0.051;0.004886921960860491;-0.01710422709584236;0.004886921960860491
01:00:0A:00:00:00:00;1727741675;01/10/24;00:14:35;1.018;-0.005;0.053;0.006108652334660292;-0.015882495790719986;0.0
01:00:0A:00:00:00:00;1727741676;01/10/24;00:14:36;1.024;-0.004;0.057;0.0036651913542300463;-0.015882495790719986;0.0036651913542300463
01:00:0A:00:00:00:00;1727741677;01/10/24;00:14:37;1.024;-0.007;0.056;0.0024434609804302454;-0.0073303827084600925;0.006108652334660292
01:00:0A:00:00:00:00;1727741678;01/10/24;00:14:38;1.021;-0.006;0.054;0.0036651913542300463;0.0;0.0012217304902151227
01:00:0A:00:00:00:00;1727741679;01/10/24;00:14:39;1.012;-0.003;0.053;0.0012217304902151227;-0.0012217304902151227;0.0024434609804302454
01:00:0A:00:00:00:00;1727741680;01/10/24;00:14:40;1.005;-0.006;0.05;0.0012217304902151227;-0.010995574295520782;0.0036651913542300463
01:00:0A:00:00:00:00;1727741681;01/10/24;00:14:41;1.006;-0.006;0.051;0.0024434609804302454;-0.01710422709584236;-0.0012217304902151227
01:00:0A:00:00:00:00;1727741682;01/10/24;00:14:42;1.016;-0.004;0.056;0.0;-0.019547687843441963;0.0012217304902151227
01:00:0A:00:00:00:00;1727741683;01/10/24;00:14:43;1.023;-0.006;0.057;-0.0012217304902151227;-0.01710422709584236;0.0036651913542300463
01:00:0A:00:00:00:00;1727741684;01/10/24;00:14:44;1.026;-0.007;0.055;-0.0012217304902151227;-0.006108652334660292;0.0024434609804302454
01:00:0A:00:00:00:00;1727741685;01/10/24;00:14:45;1.021;-0.005;0.056;-0.0024434609804302454;-0.0036651913542300463;0.004886921960860491
01:00:0A:00:00:00:00;1727741686;01/10/24;00:14:46;1.014;-0.007;0.055;-0.0036651913542300463;-0.00855211354792118;0.006108652334660292
01:00:0A:00:00:00:00;1727741687;01/10/24;00:14:47;1.015;-0.004;0.053;-0.0036651913542300463;-0.009773843921720982;0.0012217304902151227
01:00:0A:00:00:00:00;1727741688;01/10/24;00:14:48;1.015;-0.005;0.054;-0.004886921960860491;-0.010995574295520782;0.0
01:00:0A:00:00:00:00;1727741689;01/10/24;00:14:49;1.014;-0.007;0.055;-0.006108652334660292;-0.012217304669320583;0.0024434609804302454
01:00:0A:00:00:00:00;1727741690;01/10/24;00:14:50;1.013;-0.007;0.053;-0.004886921960860491;-0.010995574295520782;0.0
01:00:0A:00:00:00:00;1727741691;01/10/24;00:14:51;1.015;-0.005;0.054;-0.004886921960860491;-0.009773843921720982;0.0036651913542300463
01:00:0A:00:00:00:00;1727741692;01/10/24;00:14:52;1.014;-0.006;0.054;-0.006108652334660292;-0.013439035043120384;0.004886921960860491
01:00:0A:00:00:00:00;1727741693;01/10/24;00:14:53;1.018;-0.006;0.054;-0.004886921960860491;-0.015882495790719986;0.0012217304902151227
01:00:0A:00:00:00:00;1727741694;01/10/24;00:14:54;1.023;-0.004;0.056;-0.004886921960860491;-0.010995574295520782;0.0012217304902151227
01:00:0A:00:00:00:00;1727741695;01/10/24;00:14:55;1.021;-0.006;0.057;-0.004886921960860491;-0.006108652334660292;0.0036651913542300463
01:00:0A:00:00:00:00;1727741696;01/10/24;00:14:56;1.016;-0.006;0.056;-0.004886921960860491;-0.0036651913542300463;0.0024434609804302454
01:00:0A:00:00:00:00;1727741697;01/10/24;00:14:57;1.011;-0.005;0.054;-0.004886921960860491;-0.0073303827084600925;0.0024434609804302454
01:00:0A:00:00:00:00;1727741698;01/10/24;00:14:58;1.01;-0.006;0.053;-0.006108652334660292;-0.015882495790719986;0.004886921960860491
01:00:0A:00:00:00:00;1727741699;01/10/24;00:14:59;1.012;-0.007;0.052;-0.0036651913542300463;-0.018325956538319588;0.0
01:00:0A:00:00:00:00;1727741700;01/10/24;00:15:00;1.021;-0.006;0.057;-0.0036651913542300463;-0.015882495790719986;0.0
01:00:0A:00:00:00:00;1727741701;01/10/24;00:15:01;1.026;-0.007;0.059;-0.004886921960860491;-0.010995574295520782;0.0036651913542300463
