Source;Epoch timestamp (UTC);Date;Time (UTC);Accel X (G);Accel Y (G);Accel Z (G);Gyro X (rad/s);Gyro Y (rad/s);Gyro Z (rad/s)
01:00:0A:00:00:00:00;1725408010;04/09/24;00:00:10;1.014;-0.026;0.089;-0.02076941914856434;-0.012217304669320583;0.0012217304902151227
01:00:0A:00:00:00:00;1725408011;04/09/24;00:00:11;1.016;-0.025;0.085;-0.02076941914856434;-0.012217304669320583;0.0012217304902151227
01:00:0A:00:00:00:00;1725408012;04/09/24;00:00:12;1.014;-0.025;0.087;-0.019547687843441963;-0.009773843921720982;0.0024434609804302454
01:00:0A:00:00:00:00;1725408013;04/09/24;00:00:13;1.014;-0.026;0.088;-0.019547687843441963;-0.012217304669320583;0.0012217304902151227
01:00:0A:00:00:00:00;1725408014;04/09/24;00:00:14;1.014;-0.025;0.087;-0.018325956538319588;-0.012217304669320583;0.0012217304902151227
01:00:0A:00:00:00:00;1725408015;04/09/24;00:00:15;1.014;-0.025;0.088;-0.01710422709584236;-0.009773843921720982;0.0036651913542300463
01:00:0A:00:00:00:00;1725408016;04/09/24;00:00:16;1.015;-0.025;0.088;-0.01710422709584236;-0.012217304669320583;0.0012217304902151227
01:00:0A:00:00:00:00;1725408017;04/09/24;00:00:17;1.015;-0.024;0.087;-0.015882495790719986;-0.012217304669320583;0.0024434609804302454
01:00:0A:00:00:00:00;1725408018;04/09/24;00:00:18;1.014;-0.025;0.087;-0.014660765416920185;-0.009773843921720982;0.0024434609804302454
01:00:0A:00:00:00:00;1725408019;04/09/24;00:00:19;1.014;-0.025;0.087;-0.014660765416920185;-0.012217304669320583;0.0012217304902151227
01:00:0A:00:00:00:00;1725408020;04/09/24;00:00:20;1.014;-0.023;0.085;-0.013439035043120384;-0.010995574295520782;0.0024434609804302454
01:00:0A:00:00:00:00;1725408021;04/09/24;00:00:21;1.014;-0.025;0.088;-0.013439035043120384;-0.009773843921720982;0.0036651913542300463
01:00:0A:00:00:00:00;1725408022;04/09/24;00:00:22;1.015;-0.024;0.088;-0.012217304669320583;-0.012217304669320583;0.0012217304902151227
01:00:0A:00:00:00:00;1725408023;04/09/24;00:00:23;1.014;-0.025;0.088;-0.012217304669320583;-0.010995574295520782;0.0024434609804302454
01:00:0A:00:00:00:00;1725408024;04/09/24;00:00:24;1.015;-0.025;0.088;-0.012217304669320583;-0.009773843921720982;0.0036651913542300463
01:00:0A:00:00:00:00;1725408025;04/09/24;00:00:25;1.015;-0.025;0.087;-0.010995574295520782;-0.012217304669320583;0.0024434609804302454
01:00:0A:00:00:00:00;1725408026;04/09/24;00:00:26;1.014;-0.025;0.086;-0.010995574295520782;-0.010995574295520782;0.0024434609804302454
01:00:0A:00:00:00:00;1725408027;04/09/24;00:00:27;1.014;-0.025;0.087;-0.009773843921720982;-0.010995574295520782;0.0036651913542300463
01:00:0A:00:00:00:00;1725408028;04/09/24;00:00:28;1.015;-0.025;0.086;-0.009773843921720982;-0.012217304669320583;0.0024434609804302454
01:00:0A:00:00:00:00;1725408029;04/09/24;00:00:29;1.015;-0.026;0.086;-0.009773843921720982;-0.010995574295520782;0.0036651913542300463
01:00:0A:00:00:00:00;1725408030;04/09/24;00:00:30;1.015;-0.026;0.087;-0.009773843921720982;-0.010995574295520782;0.0036651913542300463
01:00:0A:00:00:00:00;1725408031;04/09/24;00:00:31;1.015;-0.024;0.087;-0.00855211354792118;-0.012217304669320583;0.0024434609804302454
01:00:0A:00:00:00:00;1725408032;04/09/24;00:00:32;1.015;-0.025;0.087;-0.00855211354792118;-0.010995574295520782;0.0024434609804302454
01:00:0A:00:00:00:00;1725408033;04/09/24;00:00:33;1.014;-0.024;0.088;-0.00855211354792118;-0.010995574295520782;0.0024434609804302454
01:00:0A:00:00:00:00;1725408034;04/09/24;00:00:34;1.015;-0.025;0.087;-0.0073303827084600925;-0.012217304669320583;0.0024434609804302454
01:00:0A:00:00:00:00;1725408035;04/09/24;00:00:35;1.014;-0.024;0.087;-0.0073303827084600925;-0.010995574295520782;0.0024434609804302454
01:00:0A:00:00:00:00;1725408036;04/09/24;00:00:36;1.015;-0.026;0.088;-0.0073303827084600925;-0.010995574295520782;0.0024434609804302454
01:00:0A:00:00:00:00;1725408037;04/09/24;00:00:37;1.015;-0.025;0.087;-0.0073303827084600925;-0.010995574295520782;0.0024434609804302454
01:00:0A:00:00:00:00;1725408038;04/09/24;00:00:38;1.016;-0.026;0.087;-0.0073303827084600925;-0.010995574295520782;0.0036651913542300463
01:00:0A:00:00:00:00;1725408039;04/09/24;00:00:39;1.015;-0.025;0.087;-0.0073303827084600925;-0.010995574295520782;0.0036651913542300463
01:00:0A:00:00:00:00;1725408040;04/09/24;00:00:40;1.014;-0.025;0.088;-0.006108652334660292;-0.012217304669320583;0.0024434609804302454
01:00:0A:00:00:00:00;1725408041;04/09/24;00:00:41;1.014;-0.025;0.087;-0.006108652334660292;-0.010995574295520782;0.0024434609804302454
01:00:0A:00:00:00:00;1725408042;04/09/24;00:00:42;1.015;-0.025;0.087;-0.006108652334660292;-0.010995574295520782;0.0024434609804302454
01:00:0A:00:00:00:00;1725408043;04/09/24;00:00:43;1.015;-0.026;0.087;-0.006108652334660292;-0.010995574295520782;0.0024434609804302454
01:00:0A:00:00:00:00;1725408044;04/09/24;00:00:44;1.015;-0.026;0.088;-0.006108652334660292;-0.010995574295520782;0.0036651913542300463
01:00:0A:00:00:00:00;1725408045;04/09/24;00:00:45;1.014;-0.025;0.088;-0.006108652334660292;-0.010995574295520782;0.0024434609804302454
01:00:0A:00:00:00:00;1725408046;04/09/24;00:00:46;1.015;-0.025;0.086;-0.006108652334660292;-0.010995574295520782;0.0024434609804302454
01:00:0A:00:00:00:00;1725408047;04/09/24;00:00:47;1.014;-0.024;0.087;-0.006108652334660292;-0.010995574295520782;0.0036651913542300463
01:00:0A:00:00:00:00;1725408048;04/09/24;00:00:48;1.014;-0.025;0.088;-0.006108652334660292;-0.010995574295520782;0.0024434609804302454
01:00:0A:00:00:00:00;1725408049;04/09/24;00:00:49;1.015;-0.025;0.086;-0.006108652334660292;-0.012217304669320583;0.0024434609804302454
01:00:0A:00:00:00:00;1725408050;04/09/24;00:00:50;1.014;-0.025;0.087;-0.004886921960860491;-0.010995574295520782;0.0024434609804302454
01:00:0A:00:00:00:00;1725408051;04/09/24;00:00:51;1.015;-0.026;0.087;-0.004886921960860491;-0.012217304669320583;0.0024434609804302454
01:00:0A:00:00:00:00;1725408052;04/09/24;00:00:52;1.015;-0.024;0.087;-0.004886921960860491;-0.010995574295520782;0.0024434609804302454
01:00:0A:00:00:00:00;1725408053;04/09/24;00:00:53;1.015;-0.025;0.087;-0.004886921960860491;-0.010995574295520782;0.0036651913542300463
01:00:0A:00:00:00:00;1725408054;04/09/24;00:00:54;1.015;-0.025;0.088;-0.004886921960860491;-0.010995574295520782;0.0024434609804302454
01:00:0A:00:00:00:00;1725408055;04/09/24;00:00:55;1.015;-0.025;0.087;-0.004886921960860491;-0.010995574295520782;0.0024434609804302454
01:00:0A:00:00:00:00;1725408056;04/09/24;00:00:56;1.014;-0.025;0.086;-0.004886921960860491;-0.010995574295520782;0.0036651913542300463
01:00:0A:00:00:00:00;1725408057;04/09/24;00:00:57;1.016;-0.026;0.087;-0.004886921960860491;-0.010995574295520782;0.0024434609804302454
01:00:0A:00:00:00:00;1725408058;04/09/24;00:00:58;1.015;-0.025;0.087;-0.004886921960860491;-0.010995574295520782;0.0024434609804302454
01:00:0A:00:00:00:00;1725408059;04/09/24;00:00:59;1.014;-0.026;0.086;-0.004886921960860491;-0.010995574295520782;0.0024434609804302454
01:00:0A:00:00:00:00;1725408060;04/09/24;00:01:00;1.014;-0.025;0.087;-0.0036651913542300463;-0.010995574295520782;0.0024434609804302454
01:00:0A:00:00:00:00;1725408061;04/09/24;00:01:01;1.015;-0.025;0.088;-0.0036651913542300463;-0.010995574295520782;0.0036651913542300463
01:00:0A:00:00:00:00;1725408062;04/09/24;00:01:02;1.015;-0.026;0.087;-0.0036651913542300463;-0.010995574295520782;0.0024434609804302454
01:00:0A:00:00:00:00;1725408063;04/09/24;00:01:03;1.015;-0.025;0.087;-0.0036651913542300463;-0.012217304669320583;0.0024434609804302454
01:00:0A:00:00:00:00;1725408064;04/09/24;00:01:04;1.014;-0.026;0.087;-0.0036651913542300463;-0.010995574295520782;0.0024434609804302454
01:00:0A:00:00:00:00;1725408065;04/09/24;00:01:05;1.015;-0.025;0.086;-0.0036651913542300463;-0.010995574295520782;0.0024434609804302454
01:00:0A:00:00:00:00;1725408066;04/09/24;00:01:06;1.015;-0.026;0.087;-0.0036651913542300463;-0.010995574295520782;0.0036651913542300463
01:00:0A:00:00:00:00;1725408067;04/09/24;00:01:07;1.015;-0.025;0.087;-0.0036651913542300463;-0.010995574295520782;0.0036651913542300463
01:00:0A:00:00:00:00;1725408068;04/09/24;00:01:08;1.014;-0.025;0.088;-0.0024434609804302454;-0.010995574295520782;0.0036651913542300463
01:00:0A:00:00:00:00;1725408069;04/09/24;00:01:09;1.014;-0.025;0.087;-0.0024434609804302454;-0.010995574295520782;0.0024434609804302454
01:00:0A:00:00:00:00;1725408070;04/09/24;00:01:10;1.015;-0.025;0.088;-0.0024434609804302454;-0.010995574295520782;0.0024434609804302454
01:00:0A:00:00:00:00;1725408071;04/09/24;00:01:11;1.015;-0.025;0.088;-0.0024434609804302454;-0.010995574295520782;0.0036651913542300463
01:00:0A:00:00:00:00;1725408072;04/09/24;00:01:12;1.015;-0.025;0.087;-0.0024434609804302454;-0.010995574295520782;0.0024434609804302454
01:00:0A:00:00:00:00;1725408073;04/09/24;00:01:13;1.014;-0.026;0.086;-0.0024434609804302454;-0.010995574295520782;0.0036651913542300463
01:00:0A:00:00:00:00;1725408074;04/09/24;00:01:14;1.016;-0.025;0.088;-0.0012217304902151227;-0.010995574295520782;0.0036651913542300463
01:00:0A:00:00:00:00;1725408075;04/09/24;00:01:15;1.016;-0.025;0.087;-0.0012217304902151227;-0.010995574295520782;0.0036651913542300463
01:00:0A:00:00:00:00;1725408076;04/09/24;00:01:16;1.014;-0.025;0.086;-0.0012217304902151227;-0.010995574295520782;0.0024434609804302454
01:00:0A:00:00:00:00;1725408077;04/09/24;00:01:17;1.016;-0.025;0.087;-0.0012217304902151227;-0.012217304669320583;0.0024434609804302454
01:00:0A:00:00:00:00;1725408078;04/09/24;00:01:18;1.014;-0.025;0.087;-0.0012217304902151227;-0.010995574295520782;0.0024434609804302454
01:00:0A:00:00:00:00;1725408079;04/09/24;00:01:19;1.014;-0.024;0.087;0.0;-0.010995574295520782;0.0024434609804302454
01:00:0A:00:00:00:00;1725408080;04/09/24;00:01:20;1.014;-0.025;0.087;0.0;-0.012217304669320583;0.0036651913542300463
01:00:0A:00:00:00:00;1725408081;04/09/24;00:01:21;1.015;-0.026;0.087;0.0;-0.010995574295520782;0.0024434609804302454
01:00:0A:00:00:00:00;1725408082;04/09/24;00:01:22;1.015;-0.025;0.087;0.0;-0.010995574295520782;0.0036651913542300463
01:00:0A:00:00:00:00;1725408083;04/09/24;00:01:23;1.015;-0.026;0.087;0.0;-0.010995574295520782;0.0036651913542300463
01:00:0A:00:00:00:00;1725408084;04/09/24;00:01:24;1.014;-0.025;0.087;0.0;-0.010995574295520782;0.0036651913542300463
01:00:0A:00:00:00:00;1725408085;04/09/24;00:01:25;1.014;-0.026;0.087;0.0012217304902151227;-0.010995574295520782;0.0036651913542300463
01:00:0A:00:00:00:00;1725408086;04/09/24;00:01:26;1.014;-0.024;0.087;0.0012217304902151227;-0.010995574295520782;0.0036651913542300463
01:00:0A:00:00:00:00;1725408087;04/09/24;00:01:27;1.014;-0.025;0.086;0.0012217304902151227;-0.010995574295520782;0.0036651913542300463
01:00:0A:00:00:00:00;1725408088;04/09/24;00:01:28;1.014;-0.025;0.086;0.0012217304902151227;-0.010995574295520782;0.0036651913542300463
01:00:0A:00:00:00:00;1725408089;04/09/24;00:01:29;1.016;-0.024;0.086;0.0012217304902151227;-0.012217304669320583;0.0036651913542300463
01:00:0A:00:00:00:00;1725408090;04/09/24;00:01:30;1.016;-0.025;0.087;0.0024434609804302454;-0.010995574295520782;0.0036651913542300463
01:00:0A:00:00:00:00;1725408091;04/09/24;00:01:31;1.015;-0.025;0.087;0.0024434609804302454;-0.010995574295520782;0.0036651913542300463
01:00:0A:00:00:00:00;1725408092;04/09/24;00:01:32;1.014;-0.025;0.087;0.0024434609804302454;-0.010995574295520782;0.0036651913542300463
01:00:0A:00:00:00:00;1725408093;04/09/24;00:01:33;1.015;-0.026;0.087;0.0024434609804302454;-0.010995574295520782;0.0036651913542300463
01:00:0A:00:00:00:00;1725408094;04/09/24;00:01:34;1.015;-0.025;0.088;0.0024434609804302454;-0.012217304669320583;0.0036651913542300463
01:00:0A:00:00:00:00;1725408095;04/09/24;00:01:35;1.016;-0.025;0.087;0.0036651913542300463;-0.010995574295520782;0.0036651913542300463
01:00:0A:00:00:00:00;1725408096;04/09/24;00:01:36;1.015;-0.025;0.086;0.0036651913542300463;-0.010995574295520782;0.0036651913542300463
01:00:0A:00:00:00:00;1725408097;04/09/24;00:01:37;1.015;-0.025;0.087;0.0036651913542300463;-0.010995574295520782;0.0036651913542300463
01:00:0A:00:00:00:00;1725408098;04/09/24;00:01:38;1.014;-0.025;0.087;0.0036651913542300463;-0.010995574295520782;0.0036651913542300463
01:00:0A:00:00:00:00;1725408099;04/09/24;00:01:39;1.015;-0.025;0.088;0.0036651913542300463;-0.010995574295520782;0.0036651913542300463
01:00:0A:00:00:00:00;1725408100;04/09/24;00:01:40;1.015;-0.025;0.086;0.0036651913542300463;-0.010995574295520782;0.0036651913542300463
01:00:0A:00:00:00:00;1725408101;04/09/24;00:01:41;1.016;-0.025;0.087;0.004886921960860491;-0.010995574295520782;0.0036651913542300463
01:00:0A:00:00:00:00;1725408102;04/09/24;00:01:42;1.014;-0.024;0.086;0.004886921960860491;-0.010995574295520782;0.0036651913542300463
01:00:0A:00:00:00:00;1725408103;04/09/24;00:01:43;1.015;-0.025;0.087;0.004886921960860491;-0.010995574295520782;0.0036651913542300463
01:00:0A:00:00:00:00;1725408104;04/09/24;00:01:44;1.015;-0.025;0.087;0.004886921960860491;-0.012217304669320583;0.0036651913542300463
01:00:0A:00:00:00:00;1725408105;04/09/24;00:01:45;1.015;-0.026;0.087;0.004886921960860491;-0.010995574295520782;0.0036651913542300463
01:00:0A:00:00:00:00;1725408106;04/09/24;00:01:46;1.015;-0.026;0.087;0.004886921960860491;-0.010995574295520782;0.0036651913542300463
01:00:0A:00:00:00:00;1725408107;04/09/24;00:01:47;1.015;-0.026;0.086;0.006108652334660292;-0.012217304669320583;0.0036651913542300463
01:00:0A:00:00:00:00;1725408108;04/09/24;00:01:48;1.015;-0.026;0.087;0.006108652334660292;-0.010995574295520782;0.0036651913542300463
01:00:0A:00:00:00:00;1725408109;04/09/24;00:01:49;1.015;-0.024;0.087;0.006108652334660292;-0.012217304669320583;0.0036651913542300463
01:00:0A:00:00:00:00;1725408110;04/09/24;00:01:50;1.014;-0.026;0.088;0.006108652334660292;-0.010995574295520782;0.0036651913542300463
01:00:0A:00:00:00:00;1725408111;04/09/24;00:01:51;0.995;-0.024;0.093;0.0;0.11239919811487198;-0.03787364438176155
01:00:0A:00:00:00:00;1725408112;04/09/24;00:01:52;0.999;-0.047;0.184;-0.19058994948863983;0.018325956538319588;-0.03298672288656235
01:00:0A:00:00:00:00;1725408113;04/09/24;00:01:53;0.97;-0.237;0.215;-0.5803219676017761;-1.5894713401794434;0.4153883755207062
01:00:0A:00:00:00:00;1725408114;04/09/24;00:01:54;0.758;-0.485;-0.015;0.607200026512146;-0.24068090319633484;0.9639453291893005
01:00:0A:00:00:00:00;1725408115;04/09/24;00:01:55;1.063;0.068;-0.098;1.9828685522079468;-1.2290607690811157;-1.1594222784042358
01:00:0A:00:00:00:00;1725408116;04/09/24;00:01:56;0.638;0.466;0.64;-0.5583308339118958;2.370157241821289;0.11728612333536148
01:00:0A:00:00:00:00;1725408117;04/09/24;00:01:57;1.079;-0.04;-0.174;-0.7281513810157776;-0.5375614166259766;-0.18448130786418915
01:00:0A:00:00:00:00;1725408118;04/09/24;00:01:58;0.964;-0.335;-0.315;0.2223549485206604;0.12828169763088226;-0.06475171446800232
01:00:0A:00:00:00:00;1725408119;04/09/24;00:01:59;0.797;0.639;-0.007;-0.13561207056045532;-0.13805554807186127;-1.1508700847625732
01:00:0A:00:00:00:00;1725408120;04/09/24;00:02:00;1.017;0.051;0.233;-0.93095862865448;-0.6023131012916565;0.5998696088790894
01:00:0A:00:00:00:00;1725408121;04/09/24;00:02:01;0.809;-0.3;0.505;-0.7367035150527954;-0.5705481767654419;-0.3090977966785431
01:00:0A:00:00:00:00;1725408122;04/09/24;00:02:02;1.002;0.161;-0.094;-0.3946189284324646;-0.3176499307155609;-0.8747590184211731
01:00:0A:00:00:00:00;1725408123;04/09/24;00:02:03;0.94;0.286;0.232;-0.9712756872177124;0.07696902006864548;0.18814648687839508
01:00:0A:00:00:00:00;1725408124;04/09/24;00:02:04;0.969;-0.102;-0.111;-1.078787922859192;-0.626747727394104;-0.06475171446800232
01:00:0A:00:00:00:00;1725408125;04/09/24;00:02:05;0.976;0.226;0.072;-0.8038986325263977;0.9040805697441101;0.38240164518356323
01:00:0A:00:00:00:00;1725408126;04/09/24;00:02:06;0.825;-0.433;0.527;-0.9639453291893005;0.01710422709584236;-0.04398229718208313
01:00:0A:00:00:00:00;1725408127;04/09/24;00:02:07;0.975;-0.199;-0.146;-0.11728612333536148;-0.004886921960860491;-0.11362093687057495
01:00:0A:00:00:00:00;1725408128;04/09/24;00:02:08;0.915;-0.315;-0.101;0.49357908964157104;-0.5045746564865112;-1.1056660413742065
01:00:0A:00:00:00:00;1725408129;04/09/24;00:02:09;0.928;-0.092;-0.197;0.862541675567627;-0.04642575979232788;0.042760565876960754
01:00:0A:00:00:00:00;1725408130;04/09/24;00:02:10;0.971;-0.383;-0.034;1.1020008325576782;-0.17959438264369965;-0.37629297375679016
01:00:0A:00:00:00:00;1725408131;04/09/24;00:02:11;0.995;-0.008;0.001;1.1679743528366089;-0.06475171446800232;0.21380282938480377
01:00:0A:00:00:00:00;1725408132;04/09/24;00:02:12;0.929;0.216;-0.17;0.62796950340271;-0.3274237811565399;-0.013439035043120384
01:00:0A:00:00:00:00;1725408133;04/09/24;00:02:13;1.022;-0.076;0.072;0.6914994716644287;0.1869247555732727;-0.25045475363731384
01:00:0A:00:00:00:00;1725408134;04/09/24;00:02:14;0.681;0.424;0.447;-0.8576548099517822;-0.9040805697441101;0.5742133259773254
01:00:0A:00:00:00:00;1725408135;04/09/24;00:02:15;0.881;-0.079;0.516;-1.6798794269561768;-1.2315043210983276;0.8393288850784302
01:00:0A:00:00:00:00;1725408136;04/09/24;00:02:16;0.878;0.238;-0.338;-0.8002334833145142;0.4105014204978943;-0.5314527750015259
01:00:0A:00:00:00:00;1725408137;04/09/24;00:02:17;0.894;-0.347;0.116;-0.4813618063926697;-0.5155702233314514;0.4141666293144226
01:00:0A:00:00:00:00;1725408138;04/09/24;00:02:18;0.984;-0.059;0.208;0.40194931626319885;0.778242290019989;-1.3732250928878784
01:00:0A:00:00:00:00;1725408139;04/09/24;00:02:19;0.456;0.469;0.879;-0.9004153609275818;1.0946705341339111;1.540602207183838
01:00:0A:00:00:00:00;1725408140;04/09/24;00:02:20;1.026;-0.107;-0.119;-0.7098253965377808;-1.0775662660598755;-1.0775662660598755
01:00:0A:00:00:00:00;1725408141;04/09/24;00:02:21;0.847;0.571;-0.191;-0.8784241676330566;-0.030543262138962746;0.19303341209888458
01:00:0A:00:00:00:00;1725408142;04/09/24;00:02:22;1.056;0.034;0.042;-1.2803735733032227;-0.4043927788734436;0.0073303827084600925
01:00:0A:00:00:00:00;1725408143;04/09/24;00:02:23;1.013;0.152;-0.172;-0.9737191796302795;0.16249015927314758;0.10384709388017654
01:00:0A:00:00:00:00;1725408144;04/09/24;00:02:24;0.996;-0.245;0.135;-0.7843509316444397;-0.019547687843441963;0.16859880089759827
01:00:0A:00:00:00:00;1725408145;04/09/24;00:02:25;1.026;-0.109;0.11;-0.31031954288482666;0.1368338167667389;-0.48747044801712036
01:00:0A:00:00:00:00;1725408146;04/09/24;00:02:26;1.026;0.136;0.307;-0.4813618063926697;0.08429940044879913;0.1111774742603302
01:00:0A:00:00:00:00;1725408147;04/09/24;00:02:27;0.579;0.231;-0.697;1.0250318050384521;1.9865336418151855;1.330464482307434
01:00:0A:00:00:00:00;1725408148;04/09/24;00:02:28;0.909;0.295;0.122;0.5436700582504272;-0.9676105380058289;-0.7281513810157776
01:00:0A:00:00:00:00;1725408149;04/09/24;00:02:29;0.344;-0.085;0.947;-4.491081237792969;0.12828169763088226;1.1655309200286865
01:00:0A:00:00:00:00;1725408150;04/09/24;00:02:30;0.871;0.502;-0.083;-2.2101104259490967;1.0983357429504395;-0.39706242084503174
01:00:0A:00:00:00:00;1725408151;04/09/24;00:02:31;0.78;-0.471;0.55;-1.9914206266403198;-0.20402899384498596;0.161268413066864
01:00:0A:00:00:00:00;1725408152;04/09/24;00:02:32;0.958;-0.124;-0.33;-1.0201449394226074;0.12339477241039276;-0.4813618063926697
01:00:0A:00:00:00:00;1725408153;04/09/24;00:02:33;0.942;-0.17;0.411;-0.8600982427597046;0.533896267414093;0.8063421249389648
01:00:0A:00:00:00:00;1725408154;04/09/24;00:02:34;0.902;-0.521;-0.037;-0.1820378452539444;-0.3640756905078888;-0.4056144952774048
01:00:0A:00:00:00:00;1725408155;04/09/24;00:02:35;0.89;0.408;0.215;0.09773843735456467;0.009773843921720982;-1.026253581047058
01:00:0A:00:00:00:00;1725408156;04/09/24;00:02:36;0.996;0.158;0.169;-0.7611380815505981;-0.7660250067710876;0.8979718685150146
01:00:0A:00:00:00:00;1725408157;04/09/24;00:02:37;0.835;-0.085;-0.323;-0.08674286305904388;0.3029891550540924;-0.16859880089759827
01:00:0A:00:00:00:00;1725408158;04/09/24;00:02:38;0.849;0.316;0.47;-0.375071257352829;0.04764748737215996;-0.5277875661849976
01:00:0A:00:00:00:00;1725408159;04/09/24;00:02:39;0.745;-0.122;0.713;-1.145983099937439;-0.875980794429779;-0.00855211354792118
01:00:0A:00:00:00:00;1725408160;04/09/24;00:02:40;1.05;0.134;-0.059;-0.8356636166572571;0.09162978082895279;-0.6352998614311218
01:00:0A:00:00:00:00;1725408161;04/09/24;00:02:41;0.996;-0.099;0.402;-1.0005972385406494;-0.5412266254425049;0.05009094998240471
01:00:0A:00:00:00:00;1725408162;04/09/24;00:02:42;0.965;0.358;-0.293;-0.8564330339431763;-0.16249015927314758;-0.20525071024894714
01:00:0A:00:00:00:00;1725408163;04/09/24;00:02:43;1.039;-0.213;0.197;-0.9065240025520325;-0.19425514340400696;-0.21624629199504852
01:00:0A:00:00:00:00;1725408164;04/09/24;00:02:44;0.975;0.19;-0.049;-0.7574728727340698;-0.10018189996480942;-0.36163222789764404
01:00:0A:00:00:00:00;1725408165;04/09/24;00:02:45;1.02;-0.162;0.167;-0.9810495376586914;-0.09407324343919754;0.28466320037841797
01:00:0A:00:00:00:00;1725408166;04/09/24;00:02:46;0.863;0.299;0.243;-1.653001308441162;-1.0543533563613892;1.529606580734253
01:00:0A:00:00:00:00;1725408167;04/09/24;00:02:47;0.829;-0.172;-0.337;-0.8649851679801941;-0.04764748737215996;-0.1661553531885147
01:00:0A:00:00:00:00;1725408168;04/09/24;00:02:48;0.906;-0.036;0.391;-0.4251621961593628;0.978606104850769;0.26511549949645996
01:00:0A:00:00:00:00;1725408169;04/09/24;00:02:49;0.892;-0.306;0.264;-0.1160643920302391;-0.9395107626914978;-0.6426302194595337
01:00:0A:00:00:00:00;1725408170;04/09/24;00:02:50;0.875;0.13;-0.331;-0.9236282110214233;-0.5082398653030396;0.5619960427284241
01:00:0A:00:00:00:00;1725408171;04/09/24;00:02:51;0.845;-0.034;-0.67;-0.5778785347938538;-1.0763444900512695;0.3836233615875244
01:00:0A:00:00:00:00;1725408172;04/09/24;00:02:52;1.051;0.158;-0.034;-0.24190263450145721;0.8478808999061584;-0.6682865619659424
01:00:0A:00:00:00:00;1725408173;04/09/24;00:02:53;0.887;0.517;0.255;-0.44104471802711487;-0.08552113175392151;0.10873401165008545
01:00:0A:00:00:00:00;1725408174;04/09/24;00:02:54;0.87;0.033;-0.409;-0.09773843735456467;-0.5094615817070007;-0.06475171446800232
01:00:0A:00:00:00:00;1725408175;04/09/24;00:02:55;0.993;0.25;0.229;0.0757472887635231;1.292590856552124;-0.11972958594560623
01:00:0A:00:00:00:00;1725408176;04/09/24;00:02:56;1.009;-0.076;0.29;-0.25045475363731384;-0.901637077331543;0.35063666105270386
01:00:0A:00:00:00:00;1725408177;04/09/24;00:02:57;0.938;-0.26;0.411;-0.607200026512146;1.0018190145492554;0.8332201242446899
01:00:0A:00:00:00:00;1725408178;04/09/24;00:02:58;0.77;-0.379;0.598;-1.6823228597640991;1.3487904071807861;-1.222952127456665
01:00:0A:00:00:00:00;1725408179;04/09/24;00:02:59;1.011;0.177;0.362;-2.1844542026519775;-0.8283332586288452;-0.9724974632263184
01:00:0A:00:00:00:00;1725408180;04/09/24;00:03:00;0.902;0.175;0.604;-2.7366762161254883;-0.3848450779914856;-0.1966986060142517
01:00:0A:00:00:00:00;1725408181;04/09/24;00:03:01;1.015;0.286;0.08;-2.7159066200256348;-0.1111774742603302;-0.36163222789764404
01:00:0A:00:00:00:00;1725408182;04/09/24;00:03:02;0.887;-0.14;-0.364;-1.7666223049163818;-1.4208725690841675;1.1362093687057495
01:00:0A:00:00:00:00;1725408183;04/09/24;00:03:03;0.978;-0.105;0.38;-1.078787922859192;0.7318165302276611;0.10873401165008545
01:00:0A:00:00:00:00;1725408184;04/09/24;00:03:04;1.021;-0.002;-0.002;-1.0714576244354248;-0.4544837474822998;-0.5290092825889587
01:00:0A:00:00:00:00;1725408185;04/09/24;00:03:05;0.985;-0.075;0.05;-0.9419541358947754;0.2919935882091522;1.1362093687057495
01:00:0A:00:00:00:00;1725408186;04/09/24;00:03:06;0.88;-0.397;0.249;0.0354301817715168;-0.5106833577156067;-0.96883225440979
01:00:0A:00:00:00:00;1725408187;04/09/24;00:03:07;0.902;-0.083;0.052;0.21135938167572021;-0.34086278080940247;0.12461651116609573
01:00:0A:00:00:00:00;1725408188;04/09/24;00:03:08;0.949;0.181;0.148;0.019547687843441963;0.24434609711170197;-0.03787364438176155
01:00:0A:00:00:00:00;1725408189;04/09/24;00:03:09;1.039;0.029;-0.042;-0.46303585171699524;-0.6499606370925903;0.588874101638794
01:00:0A:00:00:00:00;1725408190;04/09/24;00:03:10;1.019;0.147;0.146;-0.09162978082895279;0.9419541358947754;-1.3695597648620605
01:00:0A:00:00:00:00;1725408191;04/09/24;00:03:11;0.948;0.392;0.067;-1.3658946752548218;-0.9053022265434265;0.004886921960860491
01:00:0A:00:00:00:00;1725408192;04/09/24;00:03:12;0.879;0.352;-0.118;-1.4563027620315552;-1.0555751323699951;-2.063502788543701
01:00:0A:00:00:00:00;1725408193;04/09/24;00:03:13;1.059;-0.193;0.123;-0.9944885969161987;-0.03176499158143997;0.7110471129417419
01:00:0A:00:00:00:00;1725408194;04/09/24;00:03:14;1.028;-0.337;0.118;-0.48747044801712036;0.34574973583221436;-0.3152064383029938
01:00:0A:00:00:00:00;1725408195;04/09/24;00:03:15;0.836;0.454;0.064;-0.6499606370925903;-0.7367035150527954;-0.6890559792518616
01:00:0A:00:00:00:00;1725408196;04/09/24;00:03:16;0.875;-0.288;-0.299;-0.32131510972976685;0.6902776956558228;0.9529497623443604
01:00:0A:00:00:00:00;1725408197;04/09/24;00:03:17;0.829;-0.498;0.166;-1.6297883987426758;0.9834930300712585;-0.33108896017074585
01:00:0A:00:00:00:00;1725408198;04/09/24;00:03:18;0.953;0.048;0.261;-1.320690631866455;0.19914205372333527;-1.1032226085662842
01:00:0A:00:00:00:00;1725408199;04/09/24;00:03:19;0.889;-0.281;0.386;-1.8069393634796143;-0.24556782841682434;-0.10506881773471832
01:00:0A:00:00:00:00;1725408200;04/09/24;00:03:20;0.837;0.372;0.214;-1.3634511232376099;0.42149701714515686;-0.3640756905078888
01:00:0A:00:00:00:00;1725408201;04/09/24;00:03:21;1.057;-0.068;-0.017;-1.6273449659347534;-0.807563841342926;-0.24068090319633484
01:00:0A:00:00:00:00;1725408202;04/09/24;00:03:22;0.887;0.585;0.042;-1.5357152223587036;-0.49235740303993225;0.7293730974197388
01:00:0A:00:00:00:00;1725408203;04/09/24;00:03:23;0.897;0.257;-0.452;-1.3732250928878784;-0.46670106053352356;0.3628539443016052
01:00:0A:00:00:00:00;1725408204;04/09/24;00:03:24;0.985;-0.313;-0.015;-2.1893410682678223;-0.20647244155406952;0.9566149115562439
01:00:0A:00:00:00:00;1725408205;04/09/24;00:03:25;0.979;0.151;-0.104;-2.302961826324463;0.8491026759147644;0.8197811245918274
01:00:0A:00:00:00:00;1725408206;04/09/24;00:03:26;0.884;-0.356;0.071;-1.7006487846374512;0.9358454942703247;-0.27122414112091064
01:00:0A:00:00:00:00;1725408207;04/09/24;00:03:27;0.878;-0.066;0.498;-1.8716909885406494;-1.3145819902420044;-0.2675589621067047
01:00:0A:00:00:00:00;1725408208;04/09/24;00:03:28;0.912;0.311;0.124;-1.7458528280258179;0.41172316670417786;-0.03787364438176155
01:00:0A:00:00:00:00;1725408209;04/09/24;00:03:29;1.064;-0.134;-0.013;-1.7763961553573608;-1.2962559461593628;0.015882495790719986
01:00:0A:00:00:00:00;1725408210;04/09/24;00:03:30;1.007;0.214;-0.268;-1.2705997228622437;-0.12461651116609573;0.4593706727027893
01:00:0A:00:00:00:00;1725408211;04/09/24;00:03:31;0.896;0.173;0.147;1.016479730606079;-1.7788395881652832;0.19547687470912933
01:00:0A:00:00:00:00;1725408212;04/09/24;00:03:32;0.812;-0.325;-0.122;1.0848965644836426;0.5045746564865112;0.6206390857696533
01:00:0A:00:00:00:00;1725408213;04/09/24;00:03:33;0.777;0.36;-0.223;0.5277875661849976;-0.024434609338641167;0.4056144952774048
01:00:0A:00:00:00:00;1725408214;04/09/24;00:03:34;1.024;-0.2;-0.02;0.5143485069274902;1.25593900680542;0.8478808999061584
01:00:0A:00:00:00:00;1725408215;04/09/24;00:03:35;0.924;-0.048;0.465;0.2321287840604782;-0.5485569834709167;-0.19425514340400696
01:00:0A:00:00:00:00;1725408216;04/09/24;00:03:36;0.959;-0.058;-0.192;-0.018325956538319588;0.2773328125476837;0.6389650106430054
01:00:0A:00:00:00:00;1725408217;04/09/24;00:03:37;1.021;-0.052;0.137;0.31154125928878784;-0.1270599663257599;-0.7525859475135803
01:00:0A:00:00:00:00;1725408218;04/09/24;00:03:38;0.895;0.451;-0.106;-0.1160643920302391;0.33964109420776367;-0.8637634515762329
01:00:0A:00:00:00:00;1725408219;04/09/24;00:03:39;0.973;0.008;0.203;-0.3677408695220947;-0.485027015209198;0.9676105380058289
01:00:0A:00:00:00:00;1725408220;04/09/24;00:03:40;0.935;-0.285;-0.166;0.10262535512447357;0.05497787147760391;-0.3677408695220947
01:00:0A:00:00:00:00;1725408221;04/09/24;00:03:41;0.921;-0.14;0.146;0.4789183437824249;-0.6047565937042236;-1.2082914113998413
01:00:0A:00:00:00:00;1725408222;04/09/24;00:03:42;0.848;-0.137;-0.385;0.40194931626319885;-0.27122414112091064;0.2076941877603531
01:00:0A:00:00:00:00;1725408223;04/09/24;00:03:43;0.831;0.409;0.284;0.2223549485206604;0.24923302233219147;-1.137431025505066
01:00:0A:00:00:00:00;1725408224;04/09/24;00:03:44;1.007;0.255;0.072;0.1576032191514969;-0.3078760802745819;1.2913691997528076
01:00:0A:00:00:00:00;1725408225;04/09/24;00:03:45;1.01;0.129;-0.04;-1.3585643768310547;-0.18325956165790558;-0.6120869517326355
01:00:0A:00:00:00:00;1725408226;04/09/24;00:03:46;1.011;0.078;-0.088;-2.0952677726745605;-0.6548475623130798;0.5607742667198181
01:00:0A:00:00:00:00;1725408227;04/09/24;00:03:47;0.837;0.099;-0.508;-1.1239920854568481;0.8161159753799438;1.1472049951553345
01:00:0A:00:00:00:00;1725408228;04/09/24;00:03:48;0.918;-0.397;0.234;-1.0201449394226074;0.8478808999061584;-0.5363396406173706
01:00:0A:00:00:00:00;1725408229;04/09/24;00:03:49;0.928;-0.045;0.44;-2.14902400970459;0.06841690838336945;-1.5357152223587036
01:00:0A:00:00:00:00;1725408230;04/09/24;00:03:50;0.921;0.372;0.237;-2.172236919403076;-1.4538592100143433;0.025656338781118393
01:00:0A:00:00:00:00;1725408231;04/09/24;00:03:51;0.901;0.063;-0.087;-1.9657642841339111;0.8833111524581909;0.9651670455932617
01:00:0A:00:00:00:00;1725408232;04/09/24;00:03:52;0.886;-0.218;0.177;-1.1117748022079468;0.3543018400669098;-1.6163493394851685
01:00:0A:00:00:00:00;1725408233;04/09/24;00:03:53;0.893;0.168;0.259;-1.5845844745635986;-0.42638394236564636;-0.2626720666885376
01:00:0A:00:00:00:00;1725408234;04/09/24;00:03:54;0.981;-0.056;0.13;-1.6945401430130005;-0.43737950921058655;-0.19547687470912933
01:00:0A:00:00:00:00;1725408235;04/09/24;00:03:55;1.001;-0.084;0.008;-1.2510520219802856;0.028099799528717995;0.19914205372333527
01:00:0A:00:00:00:00;1725408236;04/09/24;00:03:56;0.99;-0.143;-0.009;-0.7257078886032104;0.3090977966785431;0.019547687843441963
01:00:0A:00:00:00:00;1725408237;04/09/24;00:03:57;0.99;-0.005;0.17;-0.5766568183898926;0.02932153083384037;-0.24068090319633484
01:00:0A:00:00:00:00;1725408238;04/09/24;00:03:58;1.015;0.071;0.129;-0.7806857824325562;-0.3127630054950714;0.045204028487205505
01:00:0A:00:00:00:00;1725408239;04/09/24;00:03:59;1.051;-0.004;-0.034;-0.6817255616188049;0.12217304855585098;0.12461651116609573
01:00:0A:00:00:00:00;1725408240;04/09/24;00:04:00;1.012;-0.165;0.25;-0.5522221922874451;0.19425514340400696;0.03176499158143997
01:00:0A:00:00:00:00;1725408241;04/09/24;00:04:01;1.004;0.082;0.094;-0.5094615817070007;-0.07696902006864548;-0.3188716471195221
01:00:0A:00:00:00:00;1725408242;04/09/24;00:04:02;0.993;-0.036;0.048;-0.6805038452148438;-0.07819075137376785;0.2834414541721344
01:00:0A:00:00:00:00;1725408243;04/09/24;00:04:03;0.983;-0.113;0.041;-0.3933972120285034;0.14049901068210602;-0.12095131725072861
01:00:0A:00:00:00:00;1725408244;04/09/24;00:04:04;0.996;-0.013;0.129;-0.3176499307155609;-0.09285151958465576;-0.10262535512447357
01:00:0A:00:00:00:00;1725408245;04/09/24;00:04:05;1.029;0.0;0.056;-0.37629297375679016;-0.1514945775270462;0.06475171446800232
01:00:0A:00:00:00:00;1725408246;04/09/24;00:04:06;1.041;-0.067;0.029;-0.25045475363731384;0.08307767659425735;0.0036651913542300463
01:00:0A:00:00:00:00;1725408247;04/09/24;00:04:07;1.026;0.002;0.179;-0.2590068578720093;0.04886921867728233;-0.09285151958465576
01:00:0A:00:00:00:00;1725408248;04/09/24;00:04:08;1.023;-0.023;0.079;-0.37140607833862305;-0.08674286305904388;0.010995574295520782
01:00:0A:00:00:00:00;1725408249;04/09/24;00:04:09;1.005;-0.022;0.104;-0.37140607833862305;0.09162978082895279;-0.028099799528717995
01:00:0A:00:00:00:00;1725408249;04/09/24;00:04:09;0.986;-0.018;0.155;-0.4349360466003418;-0.036651913076639175;-0.09040805697441101
01:00:0A:00:00:00:00;1725408250;04/09/24;00:04:10;0.995;-0.018;0.097;-0.4740314185619354;-0.05253440886735916;-0.03787364438176155
01:00:0A:00:00:00:00;1725408251;04/09/24;00:04:11;0.963;-0.367;0.165;-0.36163222789764404;0.10995574295520782;0.3127630054950714
01:00:0A:00:00:00:00;1725408252;04/09/24;00:04:12;0.935;-0.334;0.221;0.3127630054950714;-0.02932153083384037;-0.44104471802711487
01:00:0A:00:00:00:00;1725408253;04/09/24;00:04:13;0.976;0.252;-0.001;0.12950342893600464;-0.22846359014511108;-0.15882496535778046
01:00:0A:00:00:00:00;1725408254;04/09/24;00:04:14;1.035;0.04;0.041;-0.11484266817569733;0.21135938167572021;0.41661006212234497
01:00:0A:00:00:00:00;1725408255;04/09/24;00:04:15;0.98;-0.259;0.225;0.12950342893600464;-0.004886921960860491;-0.18570303916931152
01:00:0A:00:00:00:00;1725408256;04/09/24;00:04:16;1.014;0.151;0.04;0.09285151958465576;-0.14782939851284027;-0.27611109614372253
01:00:0A:00:00:00:00;1725408257;04/09/24;00:04:17;1.011;-0.066;0.054;-0.11728612333536148;0.1270599663257599;0.4190535545349121
01:00:0A:00:00:00:00;1725408258;04/09/24;00:04:18;0.984;-0.112;0.125;0.07330382615327835;0.045204028487205505;-0.09773843735456467
01:00:0A:00:00:00:00;1725408259;04/09/24;00:04:19;0.992;0.092;0.082;-0.0012217304902151227;-0.14782939851284027;-0.10262535512447357
01:00:0A:00:00:00:00;1725408260;04/09/24;00:04:20;1.009;-0.025;0.068;-0.11850785464048386;0.018325956538319588;0.26022857427597046
01:00:0A:00:00:00:00;1725408261;04/09/24;00:04:21;1.001;-0.14;0.151;0.1014036238193512;0.04764748737215996;-0.17470745742321014
01:00:0A:00:00:00:00;1725408262;04/09/24;00:04:22;1.022;0.065;0.087;0.045204028487205505;-0.08307767659425735;-0.09162978082895279
01:00:0A:00:00:00:00;1725408263;04/09/24;00:04:23;1.029;-0.04;0.042;-0.042760565876960754;-0.02321287989616394;0.15027284622192383
01:00:0A:00:00:00:00;1725408264;04/09/24;00:04:24;1.01;-0.106;0.127;0.07941248267889023;0.02687807008624077;-0.051312677562236786
01:00:0A:00:00:00:00;1725408265;04/09/24;00:04:25;1.005;0.025;0.106;0.03787364438176155;-0.08918632566928864;-0.04398229718208313
01:00:0A:00:00:00:00;1725408266;04/09/24;00:04:26;1.002;-0.036;0.082;-0.01710422709584236;0.06719517707824707;0.18936821818351746
01:00:0A:00:00:00:00;1725408267;04/09/24;00:04:27;1.001;-0.083;0.122;0.08307767659425735;0.014660765416920185;-0.07330382615327835
01:00:0A:00:00:00:00;1725408268;04/09/24;00:04:28;1.013;0.014;0.094;0.04886921867728233;-0.04642575979232788;-0.028099799528717995
01:00:0A:00:00:00:00;1725408269;04/09/24;00:04:29;1.023;-0.043;0.066;0.0073303827084600925;0.05253440886735916;0.10018189996480942
01:00:0A:00:00:00:00;1725408270;04/09/24;00:04:30;1.019;-0.075;0.129;0.05253440886735916;0.03787364438176155;0.02076941914856434
01:00:0A:00:00:00:00;1725408271;04/09/24;00:04:31;1.009;0.018;0.063;0.036651913076639175;-0.0708603635430336;-0.05864306166768074
01:00:0A:00:00:00:00;1725408272;04/09/24;00:04:32;0.992;-0.037;0.068;-0.0024434609804302454;-0.02321287989616394;0.080634206533432
01:00:0A:00:00:00:00;1725408273;04/09/24;00:04:33;1.0;-0.076;0.123;0.080634206533432;-0.05619959905743599;-0.11362093687057495
01:00:0A:00:00:00:00;1725408274;04/09/24;00:04:34;1.027;0.007;0.118;0.02687807008624077;-0.05253440886735916;0.010995574295520782
01:00:0A:00:00:00:00;1725408275;04/09/24;00:04:35;1.034;-0.056;0.068;0.03298672288656235;0.0354301817715168;0.06352998316287994
01:00:0A:00:00:00:00;1725408276;04/09/24;00:04:36;1.019;-0.034;0.114;0.07330382615327835;0.012217304669320583;-0.015882495790719986
01:00:0A:00:00:00:00;1725408277;04/09/24;00:04:37;1.008;-0.006;0.077;0.03176499158143997;-0.09407324343919754;0.0073303827084600925
01:00:0A:00:00:00:00;1725408278;04/09/24;00:04:38;0.999;-0.056;0.085;0.0659734457731247;0.039095375686883926;0.030543262138962746
01:00:0A:00:00:00:00;1725408279;04/09/24;00:04:39;0.997;-0.042;0.117;0.08918632566928864;-0.013439035043120384;-0.04886921867728233
01:00:0A:00:00:00:00;1725408280;04/09/24;00:04:40;1.016;-0.013;0.061;0.05375614017248154;-0.04764748737215996;0.04153883829712868
01:00:0A:00:00:00:00;1725408281;04/09/24;00:04:41;1.024;-0.04;0.07;0.07330382615327835;-0.021991148591041565;0.02687807008624077
01:00:0A:00:00:00:00;1725408282;04/09/24;00:04:42;1.021;-0.018;0.117;0.08185594528913498;-0.02932153083384037;-0.00855211354792118
01:00:0A:00:00:00:00;1725408283;04/09/24;00:04:43;1.023;-0.014;0.075;0.06230825558304787;-0.02687807008624077;0.028099799528717995
01:00:0A:00:00:00:00;1725408284;04/09/24;00:04:44;1.017;-0.038;0.084;0.080634206533432;0.06963863223791122;0.02321287989616394
01:00:0A:00:00:00:00;1725408285;04/09/24;00:04:45;1.011;-0.017;0.086;0.06352998316287994;-0.039095375686883926;-0.0073303827084600925
01:00:0A:00:00:00:00;1725408286;04/09/24;00:04:46;1.016;-0.029;0.067;0.042760565876960754;-0.04398229718208313;0.019547687843441963
01:00:0A:00:00:00:00;1725408287;04/09/24;00:04:47;1.019;-0.05;0.093;0.06719517707824707;0.013439035043120384;-0.004886921960860491
01:00:0A:00:00:00:00;1725408288;04/09/24;00:04:48;1.008;-0.019;0.099;0.05253440886735916;-0.012217304669320583;-0.0036651913542300463
01:00:0A:00:00:00:00;1725408289;04/09/24;00:04:49;1.001;-0.029;0.073;0.03787364438176155;0.0073303827084600925;0.03298672288656235
01:00:0A:00:00:00:00;1725408290;04/09/24;00:04:50;1.005;-0.042;0.082;0.05742133408784866;-0.00855211354792118;-0.010995574295520782
01:00:0A:00:00:00:00;1725408291;04/09/24;00:04:51;1.013;-0.016;0.105;0.03298672288656235;-0.03298672288656235;-0.006108652334660292
01:00:0A:00:00:00:00;1725408292;04/09/24;00:04:52;1.023;-0.032;0.077;0.019547687843441963;-0.004886921960860491;0.018325956538319588
01:00:0A:00:00:00:00;1725408293;04/09/24;00:04:53;1.016;-0.024;0.096;0.019547687843441963;0.0024434609804302454;-0.015882495790719986
01:00:0A:00:00:00:00;1725408294;04/09/24;00:04:54;1.016;-0.021;0.086;-0.0073303827084600925;-0.03176499158143997;-0.0012217304902151227
01:00:0A:00:00:00:00;1725408295;04/09/24;00:04:55;1.026;-0.027;0.084;-0.00855211354792118;-0.0036651913542300463;-0.013439035043120384
01:00:0A:00:00:00:00;1725408296;04/09/24;00:04:56;1.036;-0.036;0.106;-0.013439035043120384;0.030543262138962746;0.010995574295520782
01:00:0A:00:00:00:00;1725408297;04/09/24;00:04:57;1.014;-0.024;0.085;-0.028099799528717995;-0.004886921960860491;0.009773843921720982
01:00:0A:00:00:00:00;1725408298;04/09/24;00:04:58;0.994;-0.017;0.081;-0.030543262138962746;0.006108652334660292;0.009773843921720982
01:00:0A:00:00:00:00;1725408299;04/09/24;00:04:59;0.99;-0.016;0.085;-0.040317103266716;-0.025656338781118393;-0.0036651913542300463
01:00:0A:00:00:00:00;1725408300;04/09/24;00:05:00;1.008;-0.021;0.092;-0.051312677562236786;-0.030543262138962746;-0.0073303827084600925
01:00:0A:00:00:00:00;1725408301;04/09/24;00:05:01;1.024;-0.038;0.09;-0.05009094998240471;-0.018325956538319588;-0.004886921960860491
01:00:0A:00:00:00:00;1725408302;04/09/24;00:05:02;1.022;-0.024;0.095;-0.05497787147760391;-0.045204028487205505;-0.012217304669320583
01:00:0A:00:00:00:00;1725408303;04/09/24;00:05:03;1.018;-0.027;0.09;-0.05742133408784866;-0.0024434609804302454;0.010995574295520782
01:00:0A:00:00:00:00;1725408304;04/09/24;00:05:04;1.02;-0.028;0.092;-0.05253440886735916;0.01710422709584236;0.015882495790719986
01:00:0A:00:00:00:00;1725408305;04/09/24;00:05:05;1.018;-0.024;0.087;-0.05497787147760391;-0.0036651913542300463;0.006108652334660292
01:00:0A:00:00:00:00;1725408306;04/09/24;00:05:06;1.009;-0.03;0.076;-0.05864306166768074;-0.010995574295520782;0.012217304669320583
01:00:0A:00:00:00:00;1725408307;04/09/24;00:05:07;1.002;-0.03;0.091;-0.04642575979232788;0.0024434609804302454;-0.0073303827084600925
01:00:0A:00:00:00:00;1725408308;04/09/24;00:05:08;1.009;-0.027;0.088;-0.05619959905743599;-0.019547687843441963;0.0036651913542300463
01:00:0A:00:00:00:00;1725408309;04/09/24;00:05:09;1.021;-0.024;0.081;-0.05253440886735916;-0.009773843921720982;0.0
01:00:0A:00:00:00:00;1725408310;04/09/24;00:05:10;1.026;-0.022;0.095;-0.05375614017248154;0.0036651913542300463;0.006108652334660292
01:00:0A:00:00:00:00;1725408311;04/09/24;00:05:11;1.022;-0.028;0.087;-0.05375614017248154;-0.019547687843441963;-0.0024434609804302454
01:00:0A:00:00:00:00;1725408312;04/09/24;00:05:12;1.011;-0.026;0.089;-0.04886921867728233;0.0012217304902151227;-0.0036651913542300463
01:00:0A:00:00:00:00;1725408313;04/09/24;00:05:13;1.008;-0.024;0.09;-0.05864306166768074;0.0024434609804302454;0.019547687843441963
01:00:0A:00:00:00:00;1725408314;04/09/24;00:05:14;1.004;-0.02;0.08;-0.05619959905743599;-0.00855211354792118;-0.0012217304902151227
01:00:0A:00:00:00:00;1725408315;04/09/24;00:05:15;1.005;-0.02;0.08;-0.05619959905743599;-0.03176499158143997;-0.019547687843441963
01:00:0A:00:00:00:00;1725408316;04/09/24;00:05:16;1.011;-0.03;0.087;-0.05742133408784866;-0.028099799528717995;-0.014660765416920185
01:00:0A:00:00:00:00;1725408317;04/09/24;00:05:17;1.024;-0.029;0.093;-0.06108652427792549;-0.018325956538319588;0.0036651913542300463
01:00:0A:00:00:00:00;1725408318;04/09/24;00:05:18;1.028;-0.025;0.09;-0.06475171446800232;-0.013439035043120384;0.0073303827084600925
01:00:0A:00:00:00:00;1725408319;04/09/24;00:05:19;1.023;-0.027;0.092;-0.06108652427792549;-0.0012217304902151227;0.009773843921720982
01:00:0A:00:00:00:00;1725408320;04/09/24;00:05:20;1.012;-0.027;0.087;-0.06475171446800232;-0.0012217304902151227;0.015882495790719986
01:00:0A:00:00:00:00;1725408321;04/09/24;00:05:21;1.001;-0.028;0.081;-0.06108652427792549;-0.010995574295520782;0.0024434609804302454
01:00:0A:00:00:00:00;1725408322;04/09/24;00:05:22;0.999;-0.022;0.087;-0.059864792972803116;-0.00855211354792118;-0.006108652334660292
01:00:0A:00:00:00:00;1725408323;04/09/24;00:05:23;1.008;-0.022;0.086;-0.059864792972803116;-0.02321287989616394;-0.015882495790719986
01:00:0A:00:00:00:00;1725408324;04/09/24;00:05:24;1.013;-0.026;0.085;-0.059864792972803116;-0.019547687843441963;-0.019547687843441963
01:00:0A:00:00:00:00;1725408325;04/09/24;00:05:25;1.013;-0.029;0.084;-0.06230825558304787;-0.019547687843441963;-0.004886921960860491
01:00:0A:00:00:00:00;1725408326;04/09/24;00:05:26;1.023;-0.029;0.094;-0.05742133408784866;-0.009773843921720982;-0.009773843921720982
01:00:0A:00:00:00:00;1725408327;04/09/24;00:05:27;1.029;-0.029;0.095;-0.059864792972803116;-0.019547687843441963;-0.006108652334660292
01:00:0A:00:00:00:00;1725408328;04/09/24;00:05:28;1.023;-0.025;0.087;0.009773843921720982;-0.01710422709584236;0.08307767659425735
01:00:0A:00:00:00:00;1725408329;04/09/24;00:05:29;1.007;-0.122;0.081;0.24190263450145721;-0.01710422709584236;0.08307767659425735
01:00:0A:00:00:00:00;1725408330;04/09/24;00:05:30;1.004;-0.122;0.075;0.06230825558304787;-0.02932153083384037;-0.05009094998240471
01:00:0A:00:00:00:00;1725408331;04/09/24;00:05:31;1.015;-0.04;0.086;-0.09773843735456467;0.025656338781118393;-0.10506881773471832
01:00:0A:00:00:00:00;1725408332;04/09/24;00:05:32;1.01;0.018;0.111;-0.15393804013729095;-0.015882495790719986;-0.0012217304902151227
01:00:0A:00:00:00:00;1725408333;04/09/24;00:05:33;1.007;-0.045;0.068;-0.17470745742321014;-0.05253440886735916;0.05864306166768074
01:00:0A:00:00:00:00;1725408334;04/09/24;00:05:34;1.007;-0.031;0.081;-0.07941248267889023;0.04642575979232788;-0.07330382615327835
01:00:0A:00:00:00:00;1725408335;04/09/24;00:05:35;1.011;-0.018;0.11;-0.12217304855585098;-0.0708603635430336;0.05253440886735916
01:00:0A:00:00:00:00;1725408336;04/09/24;00:05:36;1.021;-0.052;0.06;-0.06352998316287994;-0.00855211354792118;-0.04398229718208313
01:00:0A:00:00:00:00;1725408337;04/09/24;00:05:37;1.012;-0.022;0.098;0.0012217304902151227;0.00855211354792118;0.05864306166768074
01:00:0A:00:00:00:00;1725408338;04/09/24;00:05:38;1.012;-0.045;0.089;0.01710422709584236;-0.030543262138962746;-0.021991148591041565
01:00:0A:00:00:00:00;1725408339;04/09/24;00:05:39;1.014;-0.01;0.074;0.045204028487205505;-0.014660765416920185;-0.0036651913542300463
01:00:0A:00:00:00:00;1725408340;04/09/24;00:05:40;1.016;-0.045;0.082;0.0024434609804302454;0.0012217304902151227;0.04398229718208313
01:00:0A:00:00:00:00;1725408341;04/09/24;00:05:41;1.021;-0.029;0.099;0.05742133408784866;-0.0012217304902151227;-0.021991148591041565
01:00:0A:00:00:00:00;1725408342;04/09/24;00:05:42;1.011;-0.034;0.083;0.13927726447582245;-0.03298672288656235;-0.004886921960860491
01:00:0A:00:00:00:00;1725408343;04/09/24;00:05:43;1.009;-0.014;0.078;0.12950342893600464;-0.0024434609804302454;0.0024434609804302454
01:00:0A:00:00:00:00;1725408344;04/09/24;00:05:44;1.017;-0.025;0.095;0.1014036238193512;-0.010995574295520782;0.024434609338641167
01:00:0A:00:00:00:00;1725408345;04/09/24;00:05:45;1.022;-0.038;0.089;0.09651670604944229;-0.021991148591041565;-0.0024434609804302454
01:00:0A:00:00:00:00;1725408346;04/09/24;00:05:46;1.018;-0.018;0.082;0.08796459436416626;-0.0012217304902151227;0.004886921960860491
01:00:0A:00:00:00:00;1725408347;04/09/24;00:05:47;1.013;-0.022;0.089;0.06841690838336945;0.0024434609804302454;0.028099799528717995
01:00:0A:00:00:00:00;1725408348;04/09/24;00:05:48;1.011;-0.038;0.089;0.051312677562236786;-0.012217304669320583;0.02321287989616394
01:00:0A:00:00:00:00;1725408349;04/09/24;00:05:49;1.016;-0.053;0.082;0.004886921960860491;-0.013439035043120384;0.0
01:00:0A:00:00:00:00;1725408350;04/09/24;00:05:50;1.015;-0.033;0.09;-0.01710422709584236;0.012217304669320583;-0.012217304669320583
01:00:0A:00:00:00:00;1725408351;04/09/24;00:05:51;1.005;-0.015;0.089;-0.02932153083384037;-0.02076941914856434;-0.013439035043120384
01:00:0A:00:00:00:00;1725408352;04/09/24;00:05:52;1.005;-0.024;0.077;-0.04398229718208313;-0.02076941914856434;0.024434609338641167
01:00:0A:00:00:00:00;1725408353;04/09/24;00:05:53;1.013;-0.034;0.088;-0.019547687843441963;-0.006108652334660292;-0.019547687843441963
01:00:0A:00:00:00:00;1725408354;04/09/24;00:05:54;1.02;-0.016;0.096;-0.03420845419168472;-0.03298672288656235;-0.0024434609804302454
01:00:0A:00:00:00:00;1725408355;04/09/24;00:05:55;1.022;-0.031;0.082;-0.040317103266716;-0.014660765416920185;0.01710422709584236
01:00:0A:00:00:00:00;1725408356;04/09/24;00:05:56;1.018;-0.032;0.093;0.0036651913542300463;0.0024434609804302454;0.0
01:00:0A:00:00:00:00;1725408357;04/09/24;00:05:57;1.014;-0.037;0.09;0.04398229718208313;-0.02321287989616394;0.009773843921720982
01:00:0A:00:00:00:00;1725408358;04/09/24;00:05:58;1.016;-0.025;0.081;0.04764748737215996;-0.019547687843441963;0.015882495790719986
01:00:0A:00:00:00:00;1725408359;04/09/24;00:05:59;1.016;-0.033;0.088;0.05009094998240471;-0.0012217304902151227;0.0073303827084600925
01:00:0A:00:00:00:00;1725408360;04/09/24;00:06:00;1.009;-0.021;0.092;0.04153883829712868;-0.01710422709584236;0.0
01:00:0A:00:00:00:00;1725408361;04/09/24;00:06:01;1.006;-0.026;0.079;0.02932153083384037;-0.025656338781118393;0.012217304669320583
01:00:0A:00:00:00:00;1725408362;04/09/24;00:06:02;1.015;-0.031;0.087;0.039095375686883926;-0.006108652334660292;-0.009773843921720982
01:00:0A:00:00:00:00;1725408363;04/09/24;00:06:03;1.018;-0.037;0.094;-0.018325956538319588;-0.024434609338641167;0.02687807008624077
01:00:0A:00:00:00:00;1725408364;04/09/24;00:06:04;1.018;-0.037;0.08;0.012217304669320583;-0.015882495790719986;-0.019547687843441963
01:00:0A:00:00:00:00;1725408365;04/09/24;00:06:05;1.013;-0.02;0.091;0.006108652334660292;0.0036651913542300463;0.015882495790719986
01:00:0A:00:00:00:00;1725408366;04/09/24;00:06:06;1.014;-0.036;0.089;0.0;-0.02932153083384037;0.010995574295520782
01:00:0A:00:00:00:00;1725408367;04/09/24;00:06:07;1.018;-0.027;0.083;0.014660765416920185;-0.004886921960860491;-0.009773843921720982
01:00:0A:00:00:00:00;1725408368;04/09/24;00:06:08;1.018;-0.037;0.093;0.0;0.0012217304902151227;0.004886921960860491
01:00:0A:00:00:00:00;1725408369;04/09/24;00:06:09;1.014;-0.024;0.086;0.0012217304902151227;-0.01710422709584236;-0.004886921960860491
01:00:0A:00:00:00:00;1725408370;04/09/24;00:06:10;1.01;-0.023;0.081;-0.004886921960860491;-0.004886921960860491;0.014660765416920185
01:00:0A:00:00:00:00;1725408371;04/09/24;00:06:11;1.011;-0.033;0.089;0.0024434609804302454;-0.009773843921720982;0.0
01:00:0A:00:00:00:00;1725408372;04/09/24;00:06:12;1.016;-0.024;0.09;0.0024434609804302454;-0.015882495790719986;-0.006108652334660292
01:00:0A:00:00:00:00;1725408373;04/09/24;00:06:13;1.016;-0.026;0.085;-0.0036651913542300463;-0.009773843921720982;0.013439035043120384
01:00:0A:00:00:00:00;1725408374;04/09/24;00:06:14;1.016;-0.033;0.09;0.0036651913542300463;-0.0036651913542300463;0.0012217304902151227
01:00:0A:00:00:00:00;1725408375;04/09/24;00:06:15;1.015;-0.022;0.089;0.0012217304902151227;-0.018325956538319588;-0.0012217304902151227
01:00:0A:00:00:00:00;1725408376;04/09/24;00:06:16;1.018;-0.027;0.085;-0.0024434609804302454;-0.009773843921720982;0.009773843921720982
01:00:0A:00:00:00:00;1725408377;04/09/24;00:06:17;1.017;-0.031;0.092;0.0024434609804302454;0.0024434609804302454;0.0024434609804302454
01:00:0A:00:00:00:00;1725408378;04/09/24;00:06:18;1.012;-0.025;0.086;-0.0036651913542300463;-0.018325956538319588;0.004886921960860491
01:00:0A:00:00:00:00;1725408379;04/09/24;00:06:19;1.009;-0.026;0.081;-0.0036651913542300463;-0.004886921960860491;0.0073303827084600925
01:00:0A:00:00:00:00;1725408380;04/09/24;00:06:20;1.011;-0.028;0.09;-0.0012217304902151227;-0.014660765416920185;-0.004886921960860491
01:00:0A:00:00:00:00;1725408381;04/09/24;00:06:21;1.016;-0.025;0.085;-0.004886921960860491;-0.015882495790719986;0.0024434609804302454
01:00:0A:00:00:00:00;1725408382;04/09/24;00:06:22;1.015;-0.027;0.085;-0.004886921960860491;-0.0036651913542300463;0.006108652334660292
01:00:0A:00:00:00:00;1725408383;04/09/24;00:06:23;1.012;-0.029;0.088;-0.0036651913542300463;-0.01710422709584236;-0.0036651913542300463
01:00:0A:00:00:00:00;1725408384;04/09/24;00:06:24;1.014;-0.025;0.083;-0.004886921960860491;-0.015882495790719986;0.0024434609804302454
01:00:0A:00:00:00:00;1725408385;04/09/24;00:06:25;1.016;-0.028;0.086;-0.0036651913542300463;-0.012217304669320583;0.0012217304902151227
01:00:0A:00:00:00:00;1725408386;04/09/24;00:06:26;1.016;-0.027;0.088;-0.0036651913542300463;-0.009773843921720982;0.0012217304902151227
01:00:0A:00:00:00:00;1725408387;04/09/24;00:06:27;1.013;-0.025;0.085;-0.004886921960860491;-0.010995574295520782;0.0036651913542300463
01:00:0A:00:00:00:00;1725408388;04/09/24;00:06:28;1.011;-0.024;0.085;-0.0036651913542300463;-0.010995574295520782;0.0012217304902151227
01:00:0A:00:00:00:00;1725408389;04/09/24;00:06:29;1.012;-0.028;0.087;-0.0024434609804302454;-0.012217304669320583;-0.0012217304902151227
01:00:0A:00:00:00:00;1725408390;04/09/24;00:06:30;1.015;-0.024;0.086;-0.004886921960860491;-0.015882495790719986;0.004886921960860491
01:00:0A:00:00:00:00;1725408391;04/09/24;00:06:31;1.014;-0.027;0.086;-0.0024434609804302454;-0.004886921960860491;0.0036651913542300463
01:00:0A:00:00:00:00;1725408392;04/09/24;00:06:32;1.012;-0.025;0.087;-0.0024434609804302454;-0.014660765416920185;-0.0024434609804302454
01:00:0A:00:00:00:00;1725408393;04/09/24;00:06:33;1.014;-0.025;0.083;-0.0036651913542300463;-0.01710422709584236;0.0024434609804302454
01:00:0A:00:00:00:00;1725408394;04/09/24;00:06:34;1.016;-0.026;0.087;-0.0012217304902151227;-0.00855211354792118;0.0012217304902151227
01:00:0A:00:00:00:00;1725408395;04/09/24;00:06:35;1.016;-0.026;0.088;-0.0024434609804302454;-0.010995574295520782;0.0024434609804302454
01:00:0A:00:00:00:00;1725408396;04/09/24;00:06:36;1.014;-0.025;0.085;-0.0024434609804302454;-0.0073303827084600925;0.0024434609804302454
01:00:0A:00:00:00:00;1725408397;04/09/24;00:06:37;1.013;-0.028;0.087;-0.0024434609804302454;-0.013439035043120384;0.0036651913542300463
01:00:0A:00:00:00:00;1725408398;04/09/24;00:06:38;1.016;-0.026;0.088;-0.0012217304902151227;-0.012217304669320583;0.0
01:00:0A:00:00:00:00;1725408399;04/09/24;00:06:39;1.016;-0.026;0.088;-0.0036651913542300463;-0.009773843921720982;0.00855211354792118
01:00:0A:00:00:00:00;1725408400;04/09/24;00:06:40;1.014;-0.026;0.088;0.0;-0.010995574295520782;0.0
01:00:0A:00:00:00:00;1725408401;04/09/24;00:06:41;1.013;-0.026;0.087;-0.0024434609804302454;-0.010995574295520782;0.0024434609804302454
01:00:0A:00:00:00:00;1725408402;04/09/24;00:06:42;1.015;-0.025;0.087;-0.0024434609804302454;-0.01710422709584236;0.0012217304902151227
01:00:0A:00:00:00:00;1725408403;04/09/24;00:06:43;1.017;-0.025;0.087;-0.0024434609804302454;-0.009773843921720982;0.0036651913542300463
01:00:0A:00:00:00:00;1725408404;04/09/24;00:06:44;1.016;-0.027;0.089;-0.0036651913542300463;-0.0073303827084600925;0.0036651913542300463
01:00:0A:00:00:00:00;1725408405;04/09/24;00:06:45;1.014;-0.026;0.086;-0.004886921960860491;-0.009773843921720982;0.0036651913542300463
01:00:0A:00:00:00:00;1725408406;04/09/24;00:06:46;1.013;-0.027;0.086;-0.0036651913542300463;-0.012217304669320583;0.0012217304902151227
01:00:0A:00:00:00:00;1725408407;04/09/24;00:06:47;1.016;-0.024;0.088;-0.006108652334660292;-0.01710422709584236;0.0024434609804302454
01:00:0A:00:00:00:00;1725408408;04/09/24;00:06:48;1.015;-0.026;0.087;-0.006108652334660292;-0.004886921960860491;0.004886921960860491
01:00:0A:00:00:00:00;1725408409;04/09/24;00:06:49;1.016;-0.025;0.089;-0.006108652334660292;-0.004886921960860491;0.0024434609804302454
01:00:0A:00:00:00:00;1725408410;04/09/24;00:06:50;1.013;-0.026;0.084;-0.00855211354792118;-0.013439035043120384;0.0024434609804302454
01:00:0A:00:00:00:00;1725408411;04/09/24;00:06:51;1.014;-0.024;0.086;-0.00855211354792118;-0.012217304669320583;0.0024434609804302454
01:00:0A:00:00:00:00;1725408412;04/09/24;00:06:52;1.016;-0.025;0.087;-0.00855211354792118;-0.012217304669320583;0.0012217304902151227
01:00:0A:00:00:00:00;1725408413;04/09/24;00:06:53;1.015;-0.026;0.086;-0.009773843921720982;-0.006108652334660292;0.006108652334660292
01:00:0A:00:00:00:00;1725408414;04/09/24;00:06:54;1.014;-0.025;0.087;-0.009773843921720982;-0.009773843921720982;0.0024434609804302454
01:00:0A:00:00:00:00;1725408415;04/09/24;00:06:55;1.013;-0.028;0.086;-0.009773843921720982;-0.012217304669320583;0.0024434609804302454
01:00:0A:00:00:00:00;1725408416;04/09/24;00:06:56;1.015;-0.025;0.088;-0.010995574295520782;-0.014660765416920185;0.004886921960860491
01:00:0A:00:00:00:00;1725408417;04/09/24;00:06:57;1.016;-0.026;0.086;-0.009773843921720982;-0.00855211354792118;0.0012217304902151227
01:00:0A:00:00:00:00;1725408418;04/09/24;00:06:58;1.013;-0.026;0.088;-0.010995574295520782;-0.006108652334660292;0.006108652334660292
01:00:0A:00:00:00:00;1725408419;04/09/24;00:06:59;1.011;-0.026;0.087;-0.009773843921720982;-0.015882495790719986;0.0
01:00:0A:00:00:00:00;1725408420;04/09/24;00:07:00;1.015;-0.025;0.086;-0.010995574295520782;-0.014660765416920185;0.0024434609804302454
01:00:0A:00:00:00:00;1725408421;04/09/24;00:07:01;1.015;-0.039;0.078;-0.019547687843441963;-0.0354301817715168;0.02932153083384037
01:00:0A:00:00:00:00;1725408422;04/09/24;00:07:02;1.014;-0.045;0.064;-0.024434609338641167;-0.021991148591041565;0.006108652334660292
01:00:0A:00:00:00:00;1725408423;04/09/24;00:07:03;1.013;-0.035;0.069;-0.03176499158143997;0.010995574295520782;-0.01710422709584236
01:00:0A:00:00:00:00;1725408424;04/09/24;00:07:04;1.015;-0.022;0.093;-0.05619959905743599;-0.0012217304902151227;-0.009773843921720982
01:00:0A:00:00:00:00;1725408425;04/09/24;00:07:05;1.017;-0.027;0.09;-0.0659734457731247;-0.03420845419168472;0.0073303827084600925
01:00:0A:00:00:00:00;1725408426;04/09/24;00:07:06;1.018;-0.028;0.078;-0.04642575979232788;-0.0024434609804302454;-0.0073303827084600925
01:00:0A:00:00:00:00;1725408427;04/09/24;00:07:07;1.014;-0.023;0.093;-0.04642575979232788;0.0073303827084600925;0.004886921960860491
01:00:0A:00:00:00:00;1725408428;04/09/24;00:07:08;1.012;-0.03;0.086;-0.05253440886735916;-0.02932153083384037;0.004886921960860491
01:00:0A:00:00:00:00;1725408429;04/09/24;00:07:09;1.013;-0.026;0.078;-0.036651913076639175;-0.006108652334660292;-0.00855211354792118
01:00:0A:00:00:00:00;1725408430;04/09/24;00:07:10;1.014;-0.024;0.094;-0.039095375686883926;-0.004886921960860491;0.0036651913542300463
01:00:0A:00:00:00:00;1725408431;04/09/24;00:07:11;1.016;-0.029;0.085;-0.042760565876960754;-0.02687807008624077;0.0012217304902151227
01:00:0A:00:00:00:00;1725408432;04/09/24;00:07:12;1.014;-0.025;0.081;-0.03298672288656235;-0.0012217304902151227;-0.0024434609804302454
01:00:0A:00:00:00:00;1725408433;04/09/24;00:07:13;1.014;-0.027;0.092;-0.036651913076639175;-0.009773843921720982;0.0036651913542300463
01:00:0A:00:00:00:00;1725408434;04/09/24;00:07:14;1.016;-0.028;0.085;-0.036651913076639175;-0.024434609338641167;-0.0012217304902151227
01:00:0A:00:00:00:00;1725408435;04/09/24;00:07:15;1.016;-0.024;0.083;-0.030543262138962746;-0.0012217304902151227;0.0012217304902151227
01:00:0A:00:00:00:00;1725408436;04/09/24;00:07:16;1.013;-0.027;0.091;-0.03420845419168472;-0.0073303827084600925;0.006108652334660292
01:00:0A:00:00:00:00;1725408437;04/09/24;00:07:17;1.013;-0.028;0.083;-0.03420845419168472;-0.02076941914856434;0.0024434609804302454
01:00:0A:00:00:00:00;1725408438;04/09/24;00:07:18;1.015;-0.027;0.083;-0.02687807008624077;-0.004886921960860491;-0.0036651913542300463
01:00:0A:00:00:00:00;1725408439;04/09/24;00:07:19;1.016;-0.027;0.092;-0.03298672288656235;-0.013439035043120384;0.004886921960860491
01:00:0A:00:00:00:00;1725408440;04/09/24;00:07:20;1.016;-0.028;0.083;-0.030543262138962746;-0.013439035043120384;0.0024434609804302454
01:00:0A:00:00:00:00;1725408441;04/09/24;00:07:21;1.014;-0.023;0.083;-0.028099799528717995;-0.0036651913542300463;0.0024434609804302454
01:00:0A:00:00:00:00;1725408442;04/09/24;00:07:22;1.013;-0.028;0.088;-0.03176499158143997;-0.012217304669320583;0.006108652334660292
01:00:0A:00:00:00:00;1725408443;04/09/24;00:07:23;1.015;-0.029;0.083;-0.028099799528717995;-0.01710422709584236;-0.006108652334660292
01:00:0A:00:00:00:00;1725408444;04/09/24;00:07:24;1.014;-0.023;0.087;-0.028099799528717995;-0.0036651913542300463;0.0024434609804302454
01:00:0A:00:00:00:00;1725408445;04/09/24;00:07:25;1.014;-0.027;0.087;-0.03176499158143997;-0.010995574295520782;0.006108652334660292
01:00:0A:00:00:00:00;1725408446;04/09/24;00:07:26;1.014;-0.026;0.083;-0.02932153083384037;-0.014660765416920185;-0.0024434609804302454
01:00:0A:00:00:00:00;1725408447;04/09/24;00:07:27;1.015;-0.026;0.086;-0.02932153083384037;-0.006108652334660292;0.0024434609804302454
01:00:0A:00:00:00:00;1725408448;04/09/24;00:07:28;1.016;-0.026;0.088;-0.030543262138962746;-0.015882495790719986;-0.0012217304902151227
01:00:0A:00:00:00:00;1725408449;04/09/24;00:07:29;1.016;-0.024;0.086;-0.02932153083384037;-0.00855211354792118;0.0012217304902151227
01:00:0A:00:00:00:00;1725408450;04/09/24;00:07:30;1.014;-0.025;0.086;-0.03176499158143997;-0.0073303827084600925;0.004886921960860491
01:00:0A:00:00:00:00;1725408451;04/09/24;00:07:31;1.014;-0.027;0.087;-0.03176499158143997;-0.013439035043120384;0.0012217304902151227
01:00:0A:00:00:00:00;1725408452;04/09/24;00:07:32;1.014;-0.026;0.084;-0.02932153083384037;-0.012217304669320583;-0.0024434609804302454
01:00:0A:00:00:00:00;1725408453;04/09/24;00:07:33;1.015;-0.024;0.086;-0.030543262138962746;-0.0073303827084600925;0.0012217304902151227
01:00:0A:00:00:00:00;1725408454;04/09/24;00:07:34;1.014;-0.026;0.087;-0.03298672288656235;-0.013439035043120384;0.0024434609804302454
01:00:0A:00:00:00:00;1725408455;04/09/24;00:07:35;1.013;-0.027;0.084;-0.030543262138962746;-0.012217304669320583;-0.0012217304902151227
01:00:0A:00:00:00:00;1725408456;04/09/24;00:07:36;1.014;-0.026;0.088;-0.03176499158143997;-0.00855211354792118;0.0024434609804302454
01:00:0A:00:00:00:00;1725408457;04/09/24;00:07:37;1.016;-0.028;0.085;-0.030543262138962746;-0.013439035043120384;-0.0012217304902151227
01:00:0A:00:00:00:00;1725408458;04/09/24;00:07:38;1.014;-0.025;0.087;-0.030543262138962746;-0.00855211354792118;0.0
01:00:0A:00:00:00:00;1725408459;04/09/24;00:07:39;1.014;-0.026;0.086;-0.03420845419168472;-0.010995574295520782;0.004886921960860491
01:00:0A:00:00:00:00;1725408460;04/09/24;00:07:40;1.014;-0.029;0.086;-0.03176499158143997;-0.013439035043120384;-0.0012217304902151227
01:00:0A:00:00:00:00;1725408461;04/09/24;00:07:41;1.015;-0.026;0.086;-0.030543262138962746;-0.009773843921720982;0.0012217304902151227
01:00:0A:00:00:00:00;1725408462;04/09/24;00:07:42;1.014;-0.026;0.087;-0.03176499158143997;-0.00855211354792118;0.0024434609804302454
01:00:0A:00:00:00:00;1725408463;04/09/24;00:07:43;1.014;-0.024;0.086;-0.03176499158143997;-0.012217304669320583;0.0
01:00:0A:00:00:00:00;1725408464;04/09/24;00:07:44;1.013;-0.026;0.084;-0.03298672288656235;-0.010995574295520782;0.0024434609804302454
01:00:0A:00:00:00:00;1725408465;04/09/24;00:07:45;1.015;-0.027;0.086;-0.03176499158143997;-0.010995574295520782;0.0012217304902151227
01:00:0A:00:00:00:00;1725408466;04/09/24;00:07:46;1.016;-0.026;0.086;-0.03176499158143997;-0.010995574295520782;0.0
01:00:0A:00:00:00:00;1725408467;04/09/24;00:07:47;1.015;-0.026;0.087;-0.03176499158143997;-0.009773843921720982;-0.0012217304902151227
01:00:0A:00:00:00:00;1725408468;04/09/24;00:07:48;1.015;-0.026;0.086;-0.03420845419168472;-0.009773843921720982;0.0036651913542300463
01:00:0A:00:00:00:00;1725408469;04/09/24;00:07:49;1.015;-0.026;0.086;-0.03298672288656235;-0.014660765416920185;0.0
01:00:0A:00:00:00:00;1725408470;04/09/24;00:07:50;1.016;-0.024;0.086;-0.03176499158143997;-0.00855211354792118;0.0024434609804302454
01:00:0A:00:00:00:00;1725408471;04/09/24;00:07:51;1.015;-0.025;0.085;-0.03176499158143997;-0.010995574295520782;0.0012217304902151227
01:00:0A:00:00:00:00;1725408472;04/09/24;00:07:52;1.015;-0.026;0.087;-0.03176499158143997;-0.010995574295520782;0.0
01:00:0A:00:00:00:00;1725408473;04/09/24;00:07:53;1.014;-0.026;0.088;-0.03298672288656235;-0.013439035043120384;0.0024434609804302454
01:00:0A:00:00:00:00;1725408474;04/09/24;00:07:54;1.015;-0.027;0.086;-0.03176499158143997;-0.012217304669320583;0.0024434609804302454
01:00:0A:00:00:00:00;1725408475;04/09/24;00:07:55;1.015;-0.026;0.087;-0.030543262138962746;-0.009773843921720982;0.0
01:00:0A:00:00:00:00;1725408476;04/09/24;00:07:56;1.014;-0.026;0.086;-0.030543262138962746;-0.010995574295520782;0.0012217304902151227
01:00:0A:00:00:00:00;1725408477;04/09/24;00:07:57;1.014;-0.027;0.087;-0.030543262138962746;-0.010995574295520782;0.0024434609804302454
01:00:0A:00:00:00:00;1725408478;04/09/24;00:07:58;1.014;-0.025;0.087;-0.030543262138962746;-0.013439035043120384;0.0012217304902151227
01:00:0A:00:00:00:00;1725408479;04/09/24;00:07:59;1.015;-0.026;0.086;-0.02932153083384037;-0.010995574295520782;0.0024434609804302454
01:00:0A:00:00:00:00;1725408480;04/09/24;00:08:00;1.015;-0.024;0.087;-0.028099799528717995;-0.00855211354792118;0.0
01:00:0A:00:00:00:00;1725408481;04/09/24;00:08:01;1.014;-0.026;0.086;-0.028099799528717995;-0.010995574295520782;0.0
01:00:0A:00:00:00:00;1725408482;04/09/24;00:08:02;1.013;-0.025;0.086;-0.028099799528717995;-0.010995574295520782;0.0024434609804302454
01:00:0A:00:00:00:00;1725408483;04/09/24;00:08:03;1.013;-0.025;0.087;-0.02687807008624077;-0.013439035043120384;0.0024434609804302454
01:00:0A:00:00:00:00;1725408484;04/09/24;00:08:04;1.015;-0.026;0.085;-0.025656338781118393;-0.009773843921720982;0.0012217304902151227
01:00:0A:00:00:00:00;1725408485;04/09/24;00:08:05;1.015;-0.025;0.088;-0.025656338781118393;-0.00855211354792118;0.0024434609804302454
01:00:0A:00:00:00:00;1725408486;04/09/24;00:08:06;1.013;-0.027;0.087;-0.024434609338641167;-0.012217304669320583;0.0012217304902151227
01:00:0A:00:00:00:00;1725408487;04/09/24;00:08:07;1.014;-0.025;0.087;-0.024434609338641167;-0.012217304669320583;0.0024434609804302454
01:00:0A:00:00:00:00;1725408488;04/09/24;00:08:08;1.015;-0.026;0.086;-0.02321287989616394;-0.012217304669320583;0.0024434609804302454
01:00:0A:00:00:00:00;1725408489;04/09/24;00:08:09;1.015;-0.025;0.087;-0.021991148591041565;-0.00855211354792118;0.0012217304902151227
01:00:0A:00:00:00:00;1725408490;04/09/24;00:08:10;1.014;-0.026;0.088;-0.021991148591041565;-0.009773843921720982;0.0
01:00:0A:00:00:00:00;1725408491;04/09/24;00:08:11;1.014;-0.026;0.087;-0.021991148591041565;-0.013439035043120384;0.0024434609804302454
01:00:0A:00:00:00:00;1725408492;04/09/24;00:08:12;1.015;-0.026;0.085;-0.021991148591041565;-0.012217304669320583;0.0024434609804302454
01:00:0A:00:00:00:00;1725408493;04/09/24;00:08:13;1.015;-0.025;0.086;-0.02076941914856434;-0.010995574295520782;0.0012217304902151227
01:00:0A:00:00:00:00;1725408494;04/09/24;00:08:14;1.014;-0.026;0.087;-0.02076941914856434;-0.00855211354792118;0.0024434609804302454
01:00:0A:00:00:00:00;1725408495;04/09/24;00:08:15;1.014;-0.026;0.086;-0.02076941914856434;-0.012217304669320583;0.0012217304902151227
01:00:0A:00:00:00:00;1725408496;04/09/24;00:08:16;1.014;-0.026;0.086;-0.02076941914856434;-0.012217304669320583;0.0036651913542300463
01:00:0A:00:00:00:00;1725408497;04/09/24;00:08:17;1.015;-0.025;0.086;-0.019547687843441963;-0.012217304669320583;0.0012217304902151227
01:00:0A:00:00:00:00;1725408498;04/09/24;00:08:18;1.016;-0.024;0.086;-0.019547687843441963;-0.009773843921720982;0.0012217304902151227
01:00:0A:00:00:00:00;1725408499;04/09/24;00:08:19;1.015;-0.027;0.088;-0.019547687843441963;-0.00855211354792118;0.0024434609804302454
01:00:0A:00:00:00:00;1725408500;04/09/24;00:08:20;1.013;-0.026;0.085;-0.019547687843441963;-0.014660765416920185;0.0024434609804302454
01:00:0A:00:00:00:00;1725408501;04/09/24;00:08:21;1.015;-0.026;0.085;-0.018325956538319588;-0.012217304669320583;0.0024434609804302454
01:00:0A:00:00:00:00;1725408502;04/09/24;00:08:22;1.016;-0.025;0.086;-0.018325956538319588;-0.010995574295520782;0.0024434609804302454
01:00:0A:00:00:00:00;1725408503;04/09/24;00:08:23;1.015;-0.027;0.086;-0.01710422709584236;-0.00855211354792118;0.0024434609804302454
01:00:0A:00:00:00:00;1725408504;04/09/24;00:08:24;1.015;-0.027;0.086;-0.01710422709584236;-0.010995574295520782;0.0024434609804302454
01:00:0A:00:00:00:00;1725408505;04/09/24;00:08:25;1.016;-0.027;0.086;-0.015882495790719986;-0.013439035043120384;0.0012217304902151227
01:00:0A:00:00:00:00;1725408506;04/09/24;00:08:26;1.015;-0.026;0.087;-0.015882495790719986;-0.010995574295520782;0.0036651913542300463
01:00:0A:00:00:00:00;1725408507;04/09/24;00:08:27;1.015;-0.027;0.086;-0.014660765416920185;-0.009773843921720982;0.0012217304902151227
01:00:0A:00:00:00:00;1725408508;04/09/24;00:08:28;1.014;-0.026;0.085;-0.014660765416920185;-0.009773843921720982;0.0024434609804302454
01:00:0A:00:00:00:00;1725408509;04/09/24;00:08:29;1.014;-0.028;0.086;-0.013439035043120384;-0.012217304669320583;0.0024434609804302454
01:00:0A:00:00:00:00;1725408510;04/09/24;00:08:30;1.015;-0.026;0.086;-0.012217304669320583;-0.013439035043120384;0.0012217304902151227
01:00:0A:00:00:00:00;1725408511;04/09/24;00:08:31;1.016;-0.025;0.086;-0.012217304669320583;-0.010995574295520782;0.0036651913542300463
01:00:0A:00:00:00:00;1725408512;04/09/24;00:08:32;1.014;-0.027;0.087;-0.010995574295520782;-0.009773843921720982;0.0012217304902151227
01:00:0A:00:00:00:00;1725408513;04/09/24;00:08:33;1.014;-0.026;0.085;-0.010995574295520782;-0.010995574295520782;0.0036651913542300463
01:00:0A:00:00:00:00;1725408514;04/09/24;00:08:34;1.015;-0.027;0.086;-0.009773843921720982;-0.013439035043120384;0.0012217304902151227
01:00:0A:00:00:00:00;1725408515;04/09/24;00:08:35;1.016;-0.025;0.085;-0.009773843921720982;-0.012217304669320583;0.0024434609804302454
01:00:0A:00:00:00:00;1725408516;04/09/24;00:08:36;1.016;-0.026;0.086;-0.00855211354792118;-0.00855211354792118;0.0024434609804302454
01:00:0A:00:00:00:00;1725408517;04/09/24;00:08:37;1.015;-0.026;0.086;-0.00855211354792118;-0.010995574295520782;0.0024434609804302454
01:00:0A:00:00:00:00;1725408518;04/09/24;00:08:38;1.013;-0.026;0.086;-0.0073303827084600925;-0.010995574295520782;0.0036651913542300463
01:00:0A:00:00:00:00;1725408519;04/09/24;00:08:39;1.015;-0.026;0.087;-0.0073303827084600925;-0.013439035043120384;0.0024434609804302454
01:00:0A:00:00:00:00;1725408520;04/09/24;00:08:40;1.015;-0.026;0.084;-0.006108652334660292;-0.010995574295520782;0.0024434609804302454
01:00:0A:00:00:00:00;1725408521;04/09/24;00:08:41;1.014;-0.026;0.088;-0.006108652334660292;-0.009773843921720982;0.0024434609804302454
01:00:0A:00:00:00:00;1725408522;04/09/24;00:08:42;1.014;-0.026;0.086;-0.004886921960860491;-0.012217304669320583;0.0036651913542300463
01:00:0A:00:00:00:00;1725408523;04/09/24;00:08:43;1.015;-0.027;0.086;-0.004886921960860491;-0.012217304669320583;0.0024434609804302454
01:00:0A:00:00:00:00;1725408524;04/09/24;00:08:44;1.016;-0.027;0.087;-0.0036651913542300463;-0.012217304669320583;0.0012217304902151227
01:00:0A:00:00:00:00;1725408525;04/09/24;00:08:45;1.015;-0.026;0.086;-0.0024434609804302454;-0.010995574295520782;0.0036651913542300463
01:00:0A:00:00:00:00;1725408526;04/09/24;00:08:46;1.014;-0.027;0.087;-0.0024434609804302454;-0.010995574295520782;0.0024434609804302454
01:00:0A:00:00:00:00;1725408527;04/09/24;00:08:47;1.014;-0.027;0.086;-0.0012217304902151227;-0.012217304669320583;0.0036651913542300463
01:00:0A:00:00:00:00;1725408528;04/09/24;00:08:48;1.015;-0.027;0.087;-0.0012217304902151227;-0.012217304669320583;0.0024434609804302454
01:00:0A:00:00:00:00;1725408529;04/09/24;00:08:49;1.016;-0.026;0.086;0.0;-0.010995574295520782;0.0024434609804302454
01:00:0A:00:00:00:00;1725408530;04/09/24;00:08:50;1.015;-0.026;0.086;0.0;-0.009773843921720982;0.0036651913542300463
01:00:0A:00:00:00:00;1725408531;04/09/24;00:08:51;1.014;-0.027;0.086;0.0012217304902151227;-0.010995574295520782;0.0024434609804302454
01:00:0A:00:00:00:00;1725408532;04/09/24;00:08:52;1.014;-0.026;0.086;0.0012217304902151227;-0.012217304669320583;0.0036651913542300463
01:00:0A:00:00:00:00;1725408533;04/09/24;00:08:53;1.015;-0.027;0.086;0.0024434609804302454;-0.010995574295520782;0.0024434609804302454
01:00:0A:00:00:00:00;1725408534;04/09/24;00:08:54;1.014;-0.024;0.086;0.0012217304902151227;-0.010995574295520782;0.0036651913542300463
01:00:0A:00:00:00:00;1725408535;04/09/24;00:08:55;1.015;-0.025;0.086;0.0024434609804302454;-0.009773843921720982;0.0036651913542300463
01:00:0A:00:00:00:00;1725408536;04/09/24;00:08:56;1.015;-0.026;0.086;0.0024434609804302454;-0.012217304669320583;0.004886921960860491
01:00:0A:00:00:00:00;1725408537;04/09/24;00:08:57;1.015;-0.026;0.086;0.0036651913542300463;-0.010995574295520782;0.0024434609804302454
01:00:0A:00:00:00:00;1725408538;04/09/24;00:08:58;1.015;-0.028;0.087;0.0036651913542300463;-0.010995574295520782;0.0036651913542300463
01:00:0A:00:00:00:00;1725408539;04/09/24;00:08:59;1.015;-0.026;0.086;0.0036651913542300463;-0.010995574295520782;0.0036651913542300463
01:00:0A:00:00:00:00;1725408540;04/09/24;00:09:00;1.015;-0.027;0.087;0.0036651913542300463;-0.010995574295520782;0.0036651913542300463
01:00:0A:00:00:00:00;1725408541;04/09/24;00:09:01;1.015;-0.025;0.087;0.0036651913542300463;-0.012217304669320583;0.0036651913542300463
01:00:0A:00:00:00:00;1725408542;04/09/24;00:09:02;1.014;-0.026;0.086;0.004886921960860491;-0.010995574295520782;0.0024434609804302454
01:00:0A:00:00:00:00;1725408543;04/09/24;00:09:03;1.016;-0.027;0.087;0.004886921960860491;-0.012217304669320583;0.0036651913542300463
01:00:0A:00:00:00:00;1725408544;04/09/24;00:09:04;1.014;-0.025;0.085;0.004886921960860491;-0.010995574295520782;0.0036651913542300463
01:00:0A:00:00:00:00;1725408545;04/09/24;00:09:05;1.015;-0.026;0.087;0.004886921960860491;-0.012217304669320583;0.0036651913542300463
01:00:0A:00:00:00:00;1725408546;04/09/24;00:09:06;1.015;-0.025;0.087;0.006108652334660292;-0.012217304669320583;0.0024434609804302454
01:00:0A:00:00:00:00;1725408547;04/09/24;00:09:07;1.016;-0.026;0.085;0.006108652334660292;-0.010995574295520782;0.0036651913542300463
01:00:0A:00:00:00:00;1725408548;04/09/24;00:09:08;1.015;-0.026;0.086;0.006108652334660292;-0.010995574295520782;0.0036651913542300463
01:00:0A:00:00:00:00;1725408549;04/09/24;00:09:09;1.014;-0.027;0.086;0.0073303827084600925;-0.010995574295520782;0.0036651913542300463
01:00:0A:00:00:00:00;1725408550;04/09/24;00:09:10;1.014;-0.027;0.087;0.0073303827084600925;-0.010995574295520782;0.0036651913542300463
01:00:0A:00:00:00:00;1725408551;04/09/24;00:09:11;1.015;-0.025;0.087;0.0073303827084600925;-0.012217304669320583;0.0036651913542300463
01:00:0A:00:00:00:00;1725408552;04/09/24;00:09:12;1.014;-0.025;0.087;0.0073303827084600925;-0.010995574295520782;0.0036651913542300463
01:00:0A:00:00:00:00;1725408553;04/09/24;00:09:13;1.015;-0.026;0.087;0.00855211354792118;-0.012217304669320583;0.0036651913542300463
01:00:0A:00:00:00:00;1725408554;04/09/24;00:09:14;1.015;-0.026;0.086;0.00855211354792118;-0.010995574295520782;0.0036651913542300463
01:00:0A:00:00:00:00;1725408555;04/09/24;00:09:15;1.014;-0.027;0.087;0.00855211354792118;-0.012217304669320583;0.0036651913542300463
01:00:0A:00:00:00:00;1725408556;04/09/24;00:09:16;1.014;-0.025;0.086;0.00855211354792118;-0.010995574295520782;0.0024434609804302454
01:00:0A:00:00:00:00;1725408557;04/09/24;00:09:17;1.014;-0.025;0.086;0.0073303827084600925;-0.010995574295520782;0.004886921960860491
01:00:0A:00:00:00:00;1725408558;04/09/24;00:09:18;1.013;-0.024;0.087;0.0073303827084600925;-0.010995574295520782;0.0036651913542300463
01:00:0A:00:00:00:00;1725408559;04/09/24;00:09:19;1.016;-0.026;0.086;0.006108652334660292;-0.010995574295520782;0.0036651913542300463
01:00:0A:00:00:00:00;1725408560;04/09/24;00:09:20;1.015;-0.026;0.086;0.006108652334660292;-0.012217304669320583;0.0036651913542300463
01:00:0A:00:00:00:00;1725408561;04/09/24;00:09:21;1.015;-0.025;0.086;0.004886921960860491;-0.010995574295520782;0.0036651913542300463
01:00:0A:00:00:00:00;1725408562;04/09/24;00:09:22;1.015;-0.026;0.086;0.0036651913542300463;-0.012217304669320583;0.004886921960860491
01:00:0A:00:00:00:00;1725408563;04/09/24;00:09:23;1.014;-0.026;0.087;0.0036651913542300463;-0.010995574295520782;0.0024434609804302454
01:00:0A:00:00:00:00;1725408564;04/09/24;00:09:24;1.014;-0.027;0.086;0.0024434609804302454;-0.012217304669320583;0.0036651913542300463
01:00:0A:00:00:00:00;1725408565;04/09/24;00:09:25;1.015;-0.025;0.087;0.0024434609804302454;-0.010995574295520782;0.0024434609804302454
01:00:0A:00:00:00:00;1725408566;04/09/24;00:09:26;1.015;-0.025;0.086;0.0012217304902151227;-0.012217304669320583;0.0036651913542300463
01:00:0A:00:00:00:00;1725408567;04/09/24;00:09:27;1.014;-0.025;0.087;0.0012217304902151227;-0.010995574295520782;0.0036651913542300463
01:00:0A:00:00:00:00;1725408568;04/09/24;00:09:28;1.015;-0.026;0.086;0.0;-0.010995574295520782;0.0024434609804302454
01:00:0A:00:00:00:00;1725408569;04/09/24;00:09:29;1.014;-0.025;0.086;-0.0012217304902151227;-0.010995574295520782;0.0036651913542300463
01:00:0A:00:00:00:00;1725408570;04/09/24;00:09:30;1.016;-0.025;0.085;-0.0012217304902151227;-0.012217304669320583;0.0024434609804302454
01:00:0A:00:00:00:00;1725408571;04/09/24;00:09:31;1.014;-0.025;0.085;-0.0024434609804302454;-0.010995574295520782;0.0036651913542300463
01:00:0A:00:00:00:00;1725408572;04/09/24;00:09:32;1.013;-0.025;0.086;-0.0036651913542300463;-0.010995574295520782;0.0036651913542300463
01:00:0A:00:00:00:00;1725408573;04/09/24;00:09:33;1.013;-0.026;0.084;-0.0036651913542300463;-0.010995574295520782;0.0024434609804302454
01:00:0A:00:00:00:00;1725408574;04/09/24;00:09:34;1.015;-0.026;0.088;-0.004886921960860491;-0.010995574295520782;0.0036651913542300463
01:00:0A:00:00:00:00;1725408575;04/09/24;00:09:35;1.015;-0.025;0.085;-0.006108652334660292;-0.010995574295520782;0.0024434609804302454
01:00:0A:00:00:00:00;1725408576;04/09/24;00:09:36;1.015;-0.025;0.087;-0.0073303827084600925;-0.010995574295520782;0.0036651913542300463
01:00:0A:00:00:00:00;1725408577;04/09/24;00:09:37;1.014;-0.027;0.086;-0.00855211354792118;-0.010995574295520782;0.0024434609804302454
01:00:0A:00:00:00:00;1725408578;04/09/24;00:09:38;1.015;-0.024;0.086;-0.00855211354792118;-0.010995574295520782;0.0024434609804302454
01:00:0A:00:00:00:00;1725408579;04/09/24;00:09:39;1.015;-0.027;0.087;-0.009773843921720982;-0.012217304669320583;0.0024434609804302454
01:00:0A:00:00:00:00;1725408580;04/09/24;00:09:40;1.015;-0.025;0.086;-0.009773843921720982;-0.012217304669320583;0.0024434609804302454
01:00:0A:00:00:00:00;1725408581;04/09/24;00:09:41;1.014;-0.026;0.087;-0.010995574295520782;-0.010995574295520782;0.0036651913542300463
01:00:0A:00:00:00:00;1725408582;04/09/24;00:09:42;1.015;-0.026;0.086;-0.010995574295520782;-0.010995574295520782;0.0012217304902151227
01:00:0A:00:00:00:00;1725408583;04/09/24;00:09:43;1.016;-0.028;0.086;-0.012217304669320583;-0.012217304669320583;0.0036651913542300463
01:00:0A:00:00:00:00;1725408584;04/09/24;00:09:44;1.015;-0.025;0.087;-0.010995574295520782;-0.010995574295520782;0.0024434609804302454
01:00:0A:00:00:00:00;1725408585;04/09/24;00:09:45;1.014;-0.026;0.086;-0.012217304669320583;-0.012217304669320583;0.0024434609804302454
01:00:0A:00:00:00:00;1725408586;04/09/24;00:09:46;1.014;-0.027;0.086;-0.012217304669320583;-0.009773843921720982;0.0024434609804302454
01:00:0A:00:00:00:00;1725408587;04/09/24;00:09:47;1.014;-0.027;0.086;-0.012217304669320583;-0.012217304669320583;0.0024434609804302454
01:00:0A:00:00:00:00;1725408588;04/09/24;00:09:48;1.015;-0.026;0.087;-0.012217304669320583;-0.010995574295520782;0.0024434609804302454
01:00:0A:00:00:00:00;1725408589;04/09/24;00:09:49;1.014;-0.026;0.087;-0.012217304669320583;-0.012217304669320583;0.0012217304902151227
01:00:0A:00:00:00:00;1725408590;04/09/24;00:09:50;1.014;-0.026;0.087;-0.012217304669320583;-0.010995574295520782;0.0024434609804302454
01:00:0A:00:00:00:00;1725408591;04/09/24;00:09:51;1.014;-0.026;0.086;-0.013439035043120384;-0.010995574295520782;0.0036651913542300463
01:00:0A:00:00:00:00;1725408592;04/09/24;00:09:52;1.015;-0.026;0.087;-0.012217304669320583;-0.012217304669320583;0.0012217304902151227
01:00:0A:00:00:00:00;1725408593;04/09/24;00:09:53;1.014;-0.027;0.086;-0.013439035043120384;-0.010995574295520782;0.0036651913542300463
01:00:0A:00:00:00:00;1725408594;04/09/24;00:09:54;1.015;-0.025;0.086;-0.013439035043120384;-0.010995574295520782;0.0012217304902151227
01:00:0A:00:00:00:00;1725408595;04/09/24;00:09:55;1.015;-0.026;0.086;-0.014660765416920185;-0.009773843921720982;0.0036651913542300463
01:00:0A:00:00:00:00;1725408596;04/09/24;00:09:56;1.014;-0.025;0.085;-0.013439035043120384;-0.010995574295520782;0.0024434609804302454
01:00:0A:00:00:00:00;1725408597;04/09/24;00:09:57;1.014;-0.025;0.087;-0.013439035043120384;-0.012217304669320583;0.0012217304902151227
01:00:0A:00:00:00:00;1725408598;04/09/24;00:09:58;1.014;-0.026;0.085;-0.014660765416920185;-0.010995574295520782;0.0024434609804302454
01:00:0A:00:00:00:00;1725408599;04/09/24;00:09:59;1.014;-0.026;0.086;-0.013439035043120384;-0.010995574295520782;0.0012217304902151227
01:00:0A:00:00:00:00;1725408600;04/09/24;00:10:00;1.015;-0.026;0.085;-0.014660765416920185;-0.010995574295520782;0.0036651913542300463
01:00:0A:00:00:00:00;1725408601;04/09/24;00:10:01;1.015;-0.026;0.087;-0.013439035043120384;-0.010995574295520782;0.0012217304902151227
01:00:0A:00:00:00:00;1725408602;04/09/24;00:10:02;1.015;-0.026;0.087;-0.014660765416920185;-0.012217304669320583;0.0024434609804302454
01:00:0A:00:00:00:00;1725408603;04/09/24;00:10:03;1.014;-0.027;0.086;-0.014660765416920185;-0.010995574295520782;0.0024434609804302454
01:00:0A:00:00:00:00;1725408604;04/09/24;00:10:04;1.015;-0.026;0.087;-0.014660765416920185;-0.010995574295520782;0.0024434609804302454
01:00:0A:00:00:00:00;1725408605;04/09/24;00:10:05;1.015;-0.026;0.086;-0.014660765416920185;-0.010995574295520782;0.0036651913542300463
01:00:0A:00:00:00:00;1725408606;04/09/24;00:10:06;1.014;-0.026;0.087;-0.014660765416920185;-0.010995574295520782;0.0012217304902151227
01:00:0A:00:00:00:00;1725408607;04/09/24;00:10:07;1.015;-0.026;0.086;-0.014660765416920185;-0.010995574295520782;0.0024434609804302454
01:00:0A:00:00:00:00;1725408608;04/09/24;00:10:08;1.015;-0.026;0.087;-0.015882495790719986;-0.010995574295520782;0.0024434609804302454
01:00:0A:00:00:00:00;1725408609;04/09/24;00:10:09;1.015;-0.026;0.085;-0.015882495790719986;-0.010995574295520782;0.0024434609804302454
01:00:0A:00:00:00:00;1725408610;04/09/24;00:10:10;1.015;-0.025;0.086;-0.015882495790719986;-0.010995574295520782;0.0024434609804302454
01:00:0A:00:00:00:00;1725408611;04/09/24;00:10:11;1.016;-0.026;0.086;-0.014660765416920185;-0.012217304669320583;0.0012217304902151227
01:00:0A:00:00:00:00;1725408612;04/09/24;00:10:12;1.016;-0.027;0.087;-0.015882495790719986;-0.010995574295520782;0.0024434609804302454
01:00:0A:00:00:00:00;1725408613;04/09/24;00:10:13;1.015;-0.025;0.087;-0.015882495790719986;-0.010995574295520782;0.0012217304902151227
01:00:0A:00:00:00:00;1725408614;04/09/24;00:10:14;1.014;-0.025;0.088;-0.01710422709584236;-0.010995574295520782;0.0024434609804302454
01:00:0A:00:00:00:00;1725408615;04/09/24;00:10:15;1.014;-0.026;0.085;-0.015882495790719986;-0.012217304669320583;0.0024434609804302454
01:00:0A:00:00:00:00;1725408616;04/09/24;00:10:16;1.014;-0.024;0.087;-0.014660765416920185;-0.010995574295520782;0.0012217304902151227
01:00:0A:00:00:00:00;1725408617;04/09/24;00:10:17;1.015;-0.026;0.087;-0.015882495790719986;-0.010995574295520782;0.0024434609804302454
01:00:0A:00:00:00:00;1725408618;04/09/24;00:10:18;1.015;-0.026;0.087;-0.015882495790719986;-0.010995574295520782;0.0024434609804302454
01:00:0A:00:00:00:00;1725408619;04/09/24;00:10:19;1.014;-0.026;0.086;-0.015882495790719986;-0.012217304669320583;0.0024434609804302454
01:00:0A:00:00:00:00;1725408620;04/09/24;00:10:20;1.015;-0.027;0.086;-0.015882495790719986;-0.010995574295520782;0.0012217304902151227
01:00:0A:00:00:00:00;1725408621;04/09/24;00:10:21;1.015;-0.026;0.087;-0.015882495790719986;-0.010995574295520782;0.0012217304902151227
01:00:0A:00:00:00:00;1725408622;04/09/24;00:10:22;1.015;-0.025;0.087;-0.015882495790719986;-0.010995574295520782;0.0024434609804302454
01:00:0A:00:00:00:00;1725408623;04/09/24;00:10:23;1.014;-0.026;0.086;-0.015882495790719986;-0.010995574295520782;0.0024434609804302454
01:00:0A:00:00:00:00;1725408624;04/09/24;00:10:24;1.015;-0.026;0.086;-0.015882495790719986;-0.010995574295520782;0.0024434609804302454
01:00:0A:00:00:00:00;1725408625;04/09/24;00:10:25;1.014;-0.026;0.087;-0.014660765416920185;-0.010995574295520782;0.0012217304902151227
01:00:0A:00:00:00:00;1725408626;04/09/24;00:10:26;1.015;-0.024;0.087;-0.015882495790719986;-0.010995574295520782;0.0024434609804302454
01:00:0A:00:00:00:00;1725408627;04/09/24;00:10:27;1.014;-0.026;0.085;-0.015882495790719986;-0.010995574295520782;0.0024434609804302454
01:00:0A:00:00:00:00;1725408628;04/09/24;00:10:28;1.015;-0.026;0.086;-0.014660765416920185;-0.010995574295520782;0.0024434609804302454
01:00:0A:00:00:00:00;1725408629;04/09/24;00:10:29;1.015;-0.026;0.086;-0.015882495790719986;-0.010995574295520782;0.0024434609804302454
01:00:0A:00:00:00:00;1725408630;04/09/24;00:10:30;1.015;-0.025;0.086;-0.014660765416920185;-0.010995574295520782;0.0012217304902151227
01:00:0A:00:00:00:00;1725408631;04/09/24;00:10:31;1.014;-0.025;0.087;-0.015882495790719986;-0.010995574295520782;0.0024434609804302454
01:00:0A:00:00:00:00;1725408632;04/09/24;00:10:32;1.015;-0.026;0.087;-0.015882495790719986;-0.012217304669320583;0.0024434609804302454
01:00:0A:00:00:00:00;1725408633;04/09/24;00:10:33;1.015;-0.026;0.087;-0.014660765416920185;-0.010995574295520782;0.0024434609804302454
01:00:0A:00:00:00:00;1725408634;04/09/24;00:10:34;1.015;-0.025;0.086;-0.014660765416920185;-0.010995574295520782;0.0024434609804302454
01:00:0A:00:00:00:00;1725408635;04/09/24;00:10:35;1.015;-0.025;0.087;-0.014660765416920185;-0.009773843921720982;0.0012217304902151227
01:00:0A:00:00:00:00;1725408636;04/09/24;00:10:36;1.014;-0.025;0.087;-0.015882495790719986;-0.010995574295520782;0.0024434609804302454
01:00:0A:00:00:00:00;1725408637;04/09/24;00:10:37;1.015;-0.027;0.086;-0.014660765416920185;-0.010995574295520782;0.0024434609804302454
01:00:0A:00:00:00:00;1725408638;04/09/24;00:10:38;1.015;-0.025;0.087;-0.014660765416920185;-0.010995574295520782;0.0012217304902151227
01:00:0A:00:00:00:00;1725408639;04/09/24;00:10:39;1.015;-0.026;0.086;-0.014660765416920185;-0.010995574295520782;0.0024434609804302454
01:00:0A:00:00:00:00;1725408640;04/09/24;00:10:40;1.016;-0.026;0.087;-0.014660765416920185;-0.010995574295520782;0.0012217304902151227
01:00:0A:00:00:00:00;1725408641;04/09/24;00:10:41;1.013;-0.026;0.087;-0.015882495790719986;-0.012217304669320583;0.0024434609804302454
01:00:0A:00:00:00:00;1725408642;04/09/24;00:10:42;1.016;-0.026;0.087;-0.014660765416920185;-0.010995574295520782;0.0024434609804302454
01:00:0A:00:00:00:00;1725408643;04/09/24;00:10:43;1.014;-0.027;0.086;-0.014660765416920185;-0.010995574295520782;0.0024434609804302454
01:00:0A:00:00:00:00;1725408644;04/09/24;00:10:44;1.015;-0.026;0.086;-0.014660765416920185;-0.010995574295520782;0.0024434609804302454
01:00:0A:00:00:00:00;1725408645;04/09/24;00:10:45;1.015;-0.025;0.087;-0.014660765416920185;-0.010995574295520782;0.0024434609804302454
01:00:0A:00:00:00:00;1725408646;04/09/24;00:10:46;1.014;-0.026;0.087;-0.015882495790719986;-0.012217304669320583;0.0024434609804302454
01:00:0A:00:00:00:00;1725408647;04/09/24;00:10:47;1.014;-0.025;0.086;-0.014660765416920185;-0.010995574295520782;0.0012217304902151227
01:00:0A:00:00:00:00;1725408648;04/09/24;00:10:48;1.015;-0.026;0.086;-0.014660765416920185;-0.010995574295520782;0.0024434609804302454
01:00:0A:00:00:00:00;1725408649;04/09/24;00:10:49;1.015;-0.026;0.087;-0.014660765416920185;-0.010995574295520782;0.0012217304902151227
01:00:0A:00:00:00:00;1725408650;04/09/24;00:10:50;1.015;-0.026;0.087;-0.014660765416920185;-0.010995574295520782;0.0024434609804302454
01:00:0A:00:00:00:00;1725408651;04/09/24;00:10:51;1.014;-0.026;0.085;-0.014660765416920185;-0.012217304669320583;0.0024434609804302454
01:00:0A:00:00:00:00;1725408652;04/09/24;00:10:52;1.015;-0.026;0.087;-0.013439035043120384;-0.009773843921720982;0.0024434609804302454
01:00:0A:00:00:00:00;1725408653;04/09/24;00:10:53;1.014;-0.026;0.086;-0.014660765416920185;-0.010995574295520782;0.0024434609804302454
01:00:0A:00:00:00:00;1725408654;04/09/24;00:10:54;1.014;-0.025;0.087;-0.013439035043120384;-0.010995574295520782;0.0024434609804302454
01:00:0A:00:00:00:00;1725408655;04/09/24;00:10:55;1.014;-0.026;0.087;-0.014660765416920185;-0.012217304669320583;0.0024434609804302454
01:00:0A:00:00:00:00;1725408656;04/09/24;00:10:56;1.014;-0.026;0.085;-0.013439035043120384;-0.010995574295520782;0.0024434609804302454
01:00:0A:00:00:00:00;1725408657;04/09/24;00:10:57;1.014;-0.026;0.087;-0.013439035043120384;-0.010995574295520782;0.0024434609804302454
01:00:0A:00:00:00:00;1725408658;04/09/24;00:10:58;1.014;-0.025;0.086;-0.013439035043120384;-0.010995574295520782;0.0024434609804302454
01:00:0A:00:00:00:00;1725408659;04/09/24;00:10:59;1.015;-0.027;0.086;-0.013439035043120384;-0.010995574295520782;0.0024434609804302454
01:00:0A:00:00:00:00;1725408660;04/09/24;00:11:00;1.014;-0.026;0.086;-0.013439035043120384;-0.012217304669320583;0.0024434609804302454
01:00:0A:00:00:00:00;1725408661;04/09/24;00:11:01;1.015;-0.026;0.085;-0.012217304669320583;-0.010995574295520782;0.0024434609804302454
01:00:0A:00:00:00:00;1725408662;04/09/24;00:11:02;1.015;-0.025;0.087;-0.012217304669320583;-0.010995574295520782;0.0024434609804302454
01:00:0A:00:00:00:00;1725408663;04/09/24;00:11:03;1.015;-0.026;0.086;-0.012217304669320583;-0.010995574295520782;0.0024434609804302454
01:00:0A:00:00:00:00;1725408664;04/09/24;00:11:04;1.014;-0.026;0.086;-0.012217304669320583;-0.010995574295520782;0.0024434609804302454
01:00:0A:00:00:00:00;1725408665;04/09/24;00:11:05;1.013;-0.053;0.094;-0.04642575979232788;0.0073303827084600925;0.06841690838336945
01:00:0A:00:00:00:00;1725408666;04/09/24;00:11:06;1.012;-0.076;0.096;-0.059864792972803116;-0.009773843921720982;0.00855211354792118
01:00:0A:00:00:00:00;1725408667;04/09/24;00:11:07;1.014;-0.046;0.088;-0.0757472887635231;-0.015882495790719986;-0.05253440886735916
01:00:0A:00:00:00:00;1725408668;04/09/24;00:11:08;1.016;-0.005;0.087;-0.09407324343919754;-0.010995574295520782;-0.01710422709584236
01:00:0A:00:00:00:00;1725408669;04/09/24;00:11:09;1.014;-0.035;0.086;-0.1111774742603302;-0.013439035043120384;0.0354301817715168
01:00:0A:00:00:00:00;1725408670;04/09/24;00:11:10;1.015;-0.038;0.085;-0.07208210229873657;-0.004886921960860491;-0.030543262138962746
01:00:0A:00:00:00:00;1725408671;04/09/24;00:11:11;1.015;-0.009;0.091;-0.08429940044879913;-0.010995574295520782;-0.0024434609804302454
01:00:0A:00:00:00:00;1725408672;04/09/24;00:11:12;1.015;-0.036;0.083;-0.09407324343919754;-0.019547687843441963;0.025656338781118393
01:00:0A:00:00:00:00;1725408673;04/09/24;00:11:13;1.014;-0.031;0.085;-0.059864792972803116;0.0012217304902151227;-0.02932153083384037
01:00:0A:00:00:00:00;1725408674;04/09/24;00:11:14;1.014;-0.013;0.093;-0.07819075137376785;-0.014660765416920185;0.0024434609804302454
01:00:0A:00:00:00:00;1725408675;04/09/24;00:11:15;1.014;-0.036;0.081;-0.08185594528913498;-0.019547687843441963;0.018325956538319588
01:00:0A:00:00:00:00;1725408676;04/09/24;00:11:16;1.015;-0.028;0.086;-0.05375614017248154;0.0036651913542300463;-0.02321287989616394
01:00:0A:00:00:00:00;1725408677;04/09/24;00:11:17;1.014;-0.016;0.092;-0.07208210229873657;-0.01710422709584236;0.006108652334660292
01:00:0A:00:00:00:00;1725408678;04/09/24;00:11:18;1.014;-0.035;0.08;-0.06963863223791122;-0.01710422709584236;0.009773843921720982
01:00:0A:00:00:00:00;1725408679;04/09/24;00:11:19;1.015;-0.027;0.087;-0.04886921867728233;0.0036651913542300463;-0.018325956538319588
01:00:0A:00:00:00:00;1725408680;04/09/24;00:11:20;1.015;-0.02;0.091;-0.06841690838336945;-0.02076941914856434;0.009773843921720982
01:00:0A:00:00:00:00;1725408681;04/09/24;00:11:21;1.015;-0.033;0.081;-0.06230825558304787;-0.013439035043120384;0.006108652334660292
01:00:0A:00:00:00:00;1725408682;04/09/24;00:11:22;1.015;-0.024;0.09;-0.04764748737215996;0.0012217304902151227;-0.013439035043120384
01:00:0A:00:00:00:00;1725408683;04/09/24;00:11:23;1.014;-0.022;0.089;-0.06352998316287994;-0.021991148591041565;0.00855211354792118
01:00:0A:00:00:00:00;1725408684;04/09/24;00:11:24;1.015;-0.032;0.081;-0.05619959905743599;-0.012217304669320583;0.0012217304902151227
01:00:0A:00:00:00:00;1725408685;04/09/24;00:11:25;1.015;-0.023;0.09;-0.04764748737215996;-0.0012217304902151227;-0.00855211354792118
01:00:0A:00:00:00:00;1725408686;04/09/24;00:11:26;1.015;-0.026;0.089;-0.06108652427792549;-0.02076941914856434;0.00855211354792118
01:00:0A:00:00:00:00;1725408687;04/09/24;00:11:27;1.015;-0.031;0.081;-0.051312677562236786;-0.00855211354792118;-0.0024434609804302454
01:00:0A:00:00:00:00;1725408688;04/09/24;00:11:28;1.015;-0.023;0.091;-0.04764748737215996;-0.0024434609804302454;-0.006108652334660292
01:00:0A:00:00:00:00;1725408689;04/09/24;00:11:29;1.015;-0.027;0.087;-0.05864306166768074;-0.021991148591041565;0.006108652334660292
01:00:0A:00:00:00:00;1725408690;04/09/24;00:11:30;1.015;-0.029;0.082;-0.05009094998240471;-0.0073303827084600925;-0.0012217304902151227
01:00:0A:00:00:00:00;1725408691;04/09/24;00:11:31;1.014;-0.024;0.091;-0.04886921867728233;-0.006108652334660292;-0.0024434609804302454
01:00:0A:00:00:00:00;1725408692;04/09/24;00:11:32;1.015;-0.027;0.087;-0.05619959905743599;-0.02076941914856434;0.0036651913542300463
01:00:0A:00:00:00:00;1725408693;04/09/24;00:11:33;1.015;-0.028;0.082;-0.04764748737215996;-0.006108652334660292;-0.0024434609804302454
01:00:0A:00:00:00:00;1725408694;04/09/24;00:11:34;1.015;-0.025;0.09;-0.04886921867728233;-0.0073303827084600925;0.0
01:00:0A:00:00:00:00;1725408695;04/09/24;00:11:35;1.014;-0.027;0.086;-0.05375614017248154;-0.019547687843441963;0.0036651913542300463
01:00:0A:00:00:00:00;1725408696;04/09/24;00:11:36;1.015;-0.027;0.084;-0.045204028487205505;-0.0036651913542300463;-0.0036651913542300463
01:00:0A:00:00:00:00;1725408697;04/09/24;00:11:37;1.014;-0.024;0.091;-0.04886921867728233;-0.009773843921720982;0.0
01:00:0A:00:00:00:00;1725408698;04/09/24;00:11:38;1.015;-0.029;0.085;-0.051312677562236786;-0.01710422709584236;0.0024434609804302454
01:00:0A:00:00:00:00;1725408699;04/09/24;00:11:39;1.014;-0.027;0.084;-0.045204028487205505;-0.004886921960860491;-0.0024434609804302454
01:00:0A:00:00:00:00;1725408700;04/09/24;00:11:40;1.013;-0.026;0.09;-0.04764748737215996;-0.010995574295520782;0.0012217304902151227
01:00:0A:00:00:00:00;1725408701;04/09/24;00:11:41;1.015;-0.028;0.085;-0.04764748737215996;-0.015882495790719986;0.0
01:00:0A:00:00:00:00;1725408702;04/09/24;00:11:42;1.015;-0.025;0.086;-0.04398229718208313;-0.004886921960860491;-0.0012217304902151227
01:00:0A:00:00:00:00;1725408703;04/09/24;00:11:43;1.014;-0.026;0.089;-0.04642575979232788;-0.013439035043120384;0.0012217304902151227
01:00:0A:00:00:00:00;1725408704;04/09/24;00:11:44;1.015;-0.026;0.084;-0.045204028487205505;-0.014660765416920185;0.0
01:00:0A:00:00:00:00;1725408705;04/09/24;00:11:45;1.015;-0.026;0.086;-0.042760565876960754;-0.006108652334660292;0.0
01:00:0A:00:00:00:00;1725408706;04/09/24;00:11:46;1.014;-0.027;0.088;-0.04398229718208313;-0.012217304669320583;0.0012217304902151227
01:00:0A:00:00:00:00;1725408707;04/09/24;00:11:47;1.014;-0.026;0.085;-0.04398229718208313;-0.013439035043120384;0.0
01:00:0A:00:00:00:00;1725408708;04/09/24;00:11:48;1.014;-0.026;0.087;-0.04153883829712868;-0.0073303827084600925;0.0012217304902151227
01:00:0A:00:00:00:00;1725408709;04/09/24;00:11:49;1.014;-0.027;0.088;-0.04398229718208313;-0.013439035043120384;0.0012217304902151227
01:00:0A:00:00:00:00;1725408710;04/09/24;00:11:50;1.015;-0.027;0.084;-0.04153883829712868;-0.010995574295520782;-0.0012217304902151227
01:00:0A:00:00:00:00;1725408711;04/09/24;00:11:51;1.014;-0.025;0.088;-0.040317103266716;-0.0073303827084600925;0.0012217304902151227
01:00:0A:00:00:00:00;1725408712;04/09/24;00:11:52;1.014;-0.027;0.088;-0.042760565876960754;-0.013439035043120384;0.0012217304902151227
01:00:0A:00:00:00:00;1725408713;04/09/24;00:11:53;1.015;-0.027;0.085;-0.040317103266716;-0.012217304669320583;-0.0012217304902151227
01:00:0A:00:00:00:00;1725408714;04/09/24;00:11:54;1.015;-0.027;0.087;-0.040317103266716;-0.00855211354792118;0.0012217304902151227
01:00:0A:00:00:00:00;1725408715;04/09/24;00:11:55;1.014;-0.027;0.086;-0.04153883829712868;-0.013439035043120384;0.0
01:00:0A:00:00:00:00;1725408716;04/09/24;00:11:56;1.015;-0.026;0.085;-0.040317103266716;-0.009773843921720982;0.0
01:00:0A:00:00:00:00;1725408717;04/09/24;00:11:57;1.014;-0.025;0.087;-0.040317103266716;-0.009773843921720982;0.0024434609804302454
01:00:0A:00:00:00:00;1725408718;04/09/24;00:11:58;1.015;-0.027;0.086;-0.040317103266716;-0.013439035043120384;0.0
01:00:0A:00:00:00:00;1725408719;04/09/24;00:11:59;1.015;-0.025;0.085;-0.039095375686883926;-0.009773843921720982;0.0
01:00:0A:00:00:00:00;1725408720;04/09/24;00:12:00;1.016;-0.025;0.086;-0.039095375686883926;-0.00855211354792118;0.0012217304902151227
01:00:0A:00:00:00:00;1725408721;04/09/24;00:12:01;1.015;-0.027;0.086;-0.040317103266716;-0.013439035043120384;0.0
01:00:0A:00:00:00:00;1725408722;04/09/24;00:12:02;1.015;-0.025;0.085;-0.039095375686883926;-0.010995574295520782;0.0
01:00:0A:00:00:00:00;1725408723;04/09/24;00:12:03;1.014;-0.027;0.087;-0.039095375686883926;-0.009773843921720982;0.0012217304902151227
01:00:0A:00:00:00:00;1725408724;04/09/24;00:12:04;1.015;-0.025;0.086;-0.039095375686883926;-0.012217304669320583;0.0
01:00:0A:00:00:00:00;1725408725;04/09/24;00:12:05;1.015;-0.026;0.086;-0.03787364438176155;-0.009773843921720982;0.0012217304902151227
01:00:0A:00:00:00:00;1725408726;04/09/24;00:12:06;1.015;-0.026;0.087;-0.03787364438176155;-0.010995574295520782;0.0012217304902151227
01:00:0A:00:00:00:00;1725408727;04/09/24;00:12:07;1.015;-0.027;0.086;-0.03787364438176155;-0.012217304669320583;0.0
01:00:0A:00:00:00:00;1725408728;04/09/24;00:12:08;1.015;-0.026;0.086;-0.036651913076639175;-0.009773843921720982;0.0012217304902151227
01:00:0A:00:00:00:00;1725408729;04/09/24;00:12:09;1.014;-0.028;0.087;-0.036651913076639175;-0.010995574295520782;0.0012217304902151227
01:00:0A:00:00:00:00;1725408730;04/09/24;00:12:10;1.014;-0.027;0.087;-0.0354301817715168;-0.012217304669320583;0.0
01:00:0A:00:00:00:00;1725408731;04/09/24;00:12:11;1.014;-0.025;0.086;-0.036651913076639175;-0.010995574295520782;0.0012217304902151227
01:00:0A:00:00:00:00;1725408732;04/09/24;00:12:12;1.014;-0.026;0.086;-0.0354301817715168;-0.010995574295520782;0.0012217304902151227
01:00:0A:00:00:00:00;1725408733;04/09/24;00:12:13;1.015;-0.026;0.086;-0.0354301817715168;-0.010995574295520782;0.0
01:00:0A:00:00:00:00;1725408734;04/09/24;00:12:14;1.014;-0.025;0.086;-0.0354301817715168;-0.009773843921720982;0.0012217304902151227
01:00:0A:00:00:00:00;1725408735;04/09/24;00:12:15;1.015;-0.027;0.086;-0.03420845419168472;-0.010995574295520782;0.0012217304902151227
01:00:0A:00:00:00:00;1725408736;04/09/24;00:12:16;1.014;-0.026;0.086;-0.03298672288656235;-0.012217304669320583;0.0
01:00:0A:00:00:00:00;1725408737;04/09/24;00:12:17;1.015;-0.025;0.086;-0.03298672288656235;-0.010995574295520782;0.0012217304902151227
01:00:0A:00:00:00:00;1725408738;04/09/24;00:12:18;1.015;-0.026;0.086;-0.03298672288656235;-0.010995574295520782;0.0024434609804302454
01:00:0A:00:00:00:00;1725408739;04/09/24;00:12:19;1.016;-0.027;0.087;-0.03176499158143997;-0.010995574295520782;0.0012217304902151227
01:00:0A:00:00:00:00;1725408740;04/09/24;00:12:20;1.015;-0.026;0.085;-0.03176499158143997;-0.010995574295520782;0.0012217304902151227
01:00:0A:00:00:00:00;1725408741;04/09/24;00:12:21;1.014;-0.027;0.086;-0.03176499158143997;-0.010995574295520782;0.0012217304902151227
01:00:0A:00:00:00:00;1725408742;04/09/24;00:12:22;1.015;-0.026;0.086;-0.030543262138962746;-0.010995574295520782;0.0012217304902151227
01:00:0A:00:00:00:00;1725408743;04/09/24;00:12:23;1.015;-0.027;0.087;-0.030543262138962746;-0.010995574295520782;0.0024434609804302454
01:00:0A:00:00:00:00;1725408744;04/09/24;00:12:24;1.015;-0.025;0.087;-0.030543262138962746;-0.010995574295520782;0.0012217304902151227
01:00:0A:00:00:00:00;1725408745;04/09/24;00:12:25;1.016;-0.026;0.086;-0.02932153083384037;-0.010995574295520782;0.0012217304902151227
01:00:0A:00:00:00:00;1725408746;04/09/24;00:12:26;1.015;-0.026;0.086;-0.02932153083384037;-0.010995574295520782;0.0012217304902151227
01:00:0A:00:00:00:00;1725408747;04/09/24;00:12:27;1.015;-0.026;0.086;-0.02932153083384037;-0.010995574295520782;0.0012217304902151227
01:00:0A:00:00:00:00;1725408748;04/09/24;00:12:28;1.014;-0.026;0.087;-0.028099799528717995;-0.010995574295520782;0.0012217304902151227
01:00:0A:00:00:00:00;1725408749;04/09/24;00:12:29;1.015;-0.026;0.086;-0.028099799528717995;-0.010995574295520782;0.0012217304902151227
01:00:0A:00:00:00:00;1725408750;04/09/24;00:12:30;1.015;-0.027;0.086;-0.02687807008624077;-0.010995574295520782;0.0012217304902151227
01:00:0A:00:00:00:00;1725408751;04/09/24;00:12:31;1.015;-0.026;0.086;-0.02687807008624077;-0.010995574295520782;0.0012217304902151227
01:00:0A:00:00:00:00;1725408752;04/09/24;00:12:32;1.014;-0.027;0.086;-0.02687807008624077;-0.010995574295520782;0.0024434609804302454
01:00:0A:00:00:00:00;1725408753;04/09/24;00:12:33;1.015;-0.027;0.086;-0.025656338781118393;-0.010995574295520782;0.0012217304902151227
01:00:0A:00:00:00:00;1725408754;04/09/24;00:12:34;1.015;-0.027;0.087;-0.025656338781118393;-0.010995574295520782;0.0012217304902151227
01:00:0A:00:00:00:00;1725408755;04/09/24;00:12:35;1.014;-0.027;0.085;-0.024434609338641167;-0.010995574295520782;0.0012217304902151227
01:00:0A:00:00:00:00;1725408756;04/09/24;00:12:36;1.015;-0.026;0.085;-0.024434609338641167;-0.010995574295520782;0.0012217304902151227
01:00:0A:00:00:00:00;1725408757;04/09/24;00:12:37;1.014;-0.027;0.086;-0.02321287989616394;-0.010995574295520782;0.0024434609804302454
01:00:0A:00:00:00:00;1725408758;04/09/24;00:12:38;1.015;-0.026;0.086;-0.021991148591041565;-0.010995574295520782;0.0012217304902151227
01:00:0A:00:00:00:00;1725408759;04/09/24;00:12:39;1.015;-0.027;0.087;-0.021991148591041565;-0.010995574295520782;0.0012217304902151227
01:00:0A:00:00:00:00;1725408760;04/09/24;00:12:40;1.015;-0.026;0.086;-0.02076941914856434;-0.010995574295520782;0.0012217304902151227
01:00:0A:00:00:00:00;1725408761;04/09/24;00:12:41;1.014;-0.026;0.085;-0.02076941914856434;-0.010995574295520782;0.0024434609804302454
01:00:0A:00:00:00:00;1725408762;04/09/24;00:12:42;1.014;-0.027;0.086;-0.019547687843441963;-0.010995574295520782;0.0024434609804302454
01:00:0A:00:00:00:00;1725408763;04/09/24;00:12:43;1.016;-0.027;0.086;-0.018325956538319588;-0.010995574295520782;0.0012217304902151227
01:00:0A:00:00:00:00;1725408764;04/09/24;00:12:44;1.016;-0.026;0.086;-0.018325956538319588;-0.010995574295520782;0.0024434609804302454
01:00:0A:00:00:00:00;1725408765;04/09/24;00:12:45;1.015;-0.027;0.086;-0.018325956538319588;-0.010995574295520782;0.0024434609804302454
01:00:0A:00:00:00:00;1725408766;04/09/24;00:12:46;1.015;-0.026;0.086;-0.01710422709584236;-0.010995574295520782;0.0024434609804302454
01:00:0A:00:00:00:00;1725408767;04/09/24;00:12:47;1.014;-0.027;0.086;-0.01710422709584236;-0.010995574295520782;0.0024434609804302454
01:00:0A:00:00:00:00;1725408768;04/09/24;00:12:48;1.015;-0.026;0.086;-0.015882495790719986;-0.010995574295520782;0.0012217304902151227
01:00:0A:00:00:00:00;1725408769;04/09/24;00:12:49;1.015;-0.026;0.086;-0.015882495790719986;-0.010995574295520782;0.0024434609804302454
01:00:0A:00:00:00:00;1725408770;04/09/24;00:12:50;1.014;-0.026;0.086;-0.014660765416920185;-0.010995574295520782;0.0024434609804302454
01:00:0A:00:00:00:00;1725408771;04/09/24;00:12:51;1.015;-0.025;0.087;-0.014660765416920185;-0.010995574295520782;0.0024434609804302454
01:00:0A:00:00:00:00;1725408772;04/09/24;00:12:52;1.015;-0.027;0.086;-0.013439035043120384;-0.010995574295520782;0.0024434609804302454
01:00:0A:00:00:00:00;1725408773;04/09/24;00:12:53;1.015;-0.026;0.086;-0.013439035043120384;-0.010995574295520782;0.0024434609804302454
01:00:0A:00:00:00:00;1725408774;04/09/24;00:12:54;1.015;-0.026;0.085;-0.013439035043120384;-0.010995574295520782;0.0024434609804302454
01:00:0A:00:00:00:00;1725408775;04/09/24;00:12:55;1.015;-0.025;0.086;-0.013439035043120384;-0.010995574295520782;0.0024434609804302454
01:00:0A:00:00:00:00;1725408776;04/09/24;00:12:56;1.014;-0.027;0.086;-0.012217304669320583;-0.010995574295520782;0.0024434609804302454
01:00:0A:00:00:00:00;1725408777;04/09/24;00:12:57;1.014;-0.026;0.086;-0.010995574295520782;-0.010995574295520782;0.0024434609804302454
01:00:0A:00:00:00:00;1725408778;04/09/24;00:12:58;1.014;-0.026;0.086;-0.010995574295520782;-0.010995574295520782;0.0024434609804302454
01:00:0A:00:00:00:00;1725408779;04/09/24;00:12:59;1.015;-0.027;0.086;-0.010995574295520782;-0.010995574295520782;0.0024434609804302454
01:00:0A:00:00:00:00;1725408780;04/09/24;00:13:00;1.015;-0.027;0.085;-0.010995574295520782;-0.010995574295520782;0.0024434609804302454
01:00:0A:00:00:00:00;1725408781;04/09/24;00:13:01;1.014;-0.027;0.086;-0.009773843921720982;-0.010995574295520782;0.0024434609804302454
01:00:0A:00:00:00:00;1725408782;04/09/24;00:13:02;1.014;-0.025;0.086;-0.009773843921720982;-0.010995574295520782;0.0024434609804302454
01:00:0A:00:00:00:00;1725408783;04/09/24;00:13:03;1.015;-0.027;0.085;-0.009773843921720982;-0.010995574295520782;0.0024434609804302454
01:00:0A:00:00:00:00;1725408784;04/09/24;00:13:04;1.014;-0.026;0.086;-0.00855211354792118;-0.010995574295520782;0.0024434609804302454
01:00:0A:00:00:00:00;1725408785;04/09/24;00:13:05;1.015;-0.026;0.086;-0.00855211354792118;-0.010995574295520782;0.0024434609804302454
01:00:0A:00:00:00:00;1725408786;04/09/24;00:13:06;1.013;-0.027;0.086;-0.0073303827084600925;-0.010995574295520782;0.0024434609804302454
01:00:0A:00:00:00:00;1725408787;04/09/24;00:13:07;1.014;-0.026;0.085;-0.0073303827084600925;-0.010995574295520782;0.0024434609804302454
01:00:0A:00:00:00:00;1725408788;04/09/24;00:13:08;1.015;-0.027;0.085;-0.0073303827084600925;-0.010995574295520782;0.0036651913542300463
01:00:0A:00:00:00:00;1725408789;04/09/24;00:13:09;1.015;-0.026;0.086;-0.0073303827084600925;-0.010995574295520782;0.0024434609804302454
01:00:0A:00:00:00:00;1725408790;04/09/24;00:13:10;1.015;-0.025;0.086;-0.006108652334660292;-0.010995574295520782;0.0024434609804302454
01:00:0A:00:00:00:00;1725408791;04/09/24;00:13:11;1.014;-0.026;0.086;-0.006108652334660292;-0.010995574295520782;0.0024434609804302454
01:00:0A:00:00:00:00;1725408792;04/09/24;00:13:12;1.016;-0.026;0.086;-0.006108652334660292;-0.010995574295520782;0.0024434609804302454
01:00:0A:00:00:00:00;1725408793;04/09/24;00:13:13;1.015;-0.024;0.085;-0.004886921960860491;-0.010995574295520782;0.0036651913542300463
01:00:0A:00:00:00:00;1725408794;04/09/24;00:13:14;1.015;-0.027;0.086;-0.004886921960860491;-0.010995574295520782;0.0024434609804302454
01:00:0A:00:00:00:00;1725408795;04/09/24;00:13:15;1.014;-0.026;0.086;-0.004886921960860491;-0.010995574295520782;0.0024434609804302454
01:00:0A:00:00:00:00;1725408796;04/09/24;00:13:16;1.015;-0.026;0.086;-0.004886921960860491;-0.010995574295520782;0.0024434609804302454
01:00:0A:00:00:00:00;1725408797;04/09/24;00:13:17;1.016;-0.025;0.086;-0.0036651913542300463;-0.010995574295520782;0.0024434609804302454
01:00:0A:00:00:00:00;1725408798;04/09/24;00:13:18;1.014;-0.026;0.086;-0.004886921960860491;-0.010995574295520782;0.0036651913542300463
01:00:0A:00:00:00:00;1725408799;04/09/24;00:13:19;1.014;-0.026;0.086;-0.0036651913542300463;-0.010995574295520782;0.0024434609804302454
01:00:0A:00:00:00:00;1725408800;04/09/24;00:13:20;1.014;-0.027;0.086;-0.0036651913542300463;-0.010995574295520782;0.0024434609804302454
01:00:0A:00:00:00:00;1725408801;04/09/24;00:13:21;1.016;-0.026;0.085;-0.0036651913542300463;-0.010995574295520782;0.0024434609804302454
01:00:0A:00:00:00:00;1725408802;04/09/24;00:13:22;1.015;-0.026;0.085;-0.0036651913542300463;-0.010995574295520782;0.0036651913542300463
01:00:0A:00:00:00:00;1725408803;04/09/24;00:13:23;1.015;-0.027;0.086;-0.0036651913542300463;-0.010995574295520782;0.0036651913542300463
01:00:0A:00:00:00:00;1725408804;04/09/24;00:13:24;1.014;-0.026;0.086;-0.0024434609804302454;-0.010995574295520782;0.0024434609804302454
01:00:0A:00:00:00:00;1725408805;04/09/24;00:13:25;1.014;-0.025;0.086;-0.0036651913542300463;-0.012217304669320583;0.0024434609804302454
01:00:0A:00:00:00:00;1725408806;04/09/24;00:13:26;1.014;-0.026;0.086;-0.0036651913542300463;-0.010995574295520782;0.0024434609804302454
01:00:0A:00:00:00:00;1725408807;04/09/24;00:13:27;1.014;-0.026;0.086;-0.0036651913542300463;-0.010995574295520782;0.0024434609804302454
01:00:0A:00:00:00:00;1725408808;04/09/24;00:13:28;1.015;-0.027;0.086;-0.0036651913542300463;-0.010995574295520782;0.0024434609804302454
01:00:0A:00:00:00:00;1725408809;04/09/24;00:13:29;1.015;-0.025;0.086;-0.0024434609804302454;-0.010995574295520782;0.0024434609804302454
01:00:0A:00:00:00:00;1725408810;04/09/24;00:13:30;1.014;-0.027;0.086;-0.0036651913542300463;-0.010995574295520782;0.0024434609804302454
01:00:0A:00:00:00:00;1725408811;04/09/24;00:13:31;1.014;-0.027;0.085;-0.0036651913542300463;-0.010995574295520782;0.0024434609804302454
01:00:0A:00:00:00:00;1725408812;04/09/24;00:13:32;1.015;-0.026;0.086;-0.0036651913542300463;-0.010995574295520782;0.0036651913542300463
01:00:0A:00:00:00:00;1725408813;04/09/24;00:13:33;1.014;-0.028;0.086;-0.0036651913542300463;-0.010995574295520782;0.0024434609804302454
01:00:0A:00:00:00:00;1725408814;04/09/24;00:13:34;1.014;-0.026;0.087;-0.0036651913542300463;-0.010995574295520782;0.0024434609804302454
01:00:0A:00:00:00:00;1725408815;04/09/24;00:13:35;1.014;-0.028;0.086;-0.0036651913542300463;-0.010995574295520782;0.0024434609804302454
01:00:0A:00:00:00:00;1725408816;04/09/24;00:13:36;1.014;-0.027;0.086;-0.0036651913542300463;-0.010995574295520782;0.0036651913542300463
01:00:0A:00:00:00:00;1725408817;04/09/24;00:13:37;1.014;-0.027;0.085;-0.0036651913542300463;-0.010995574295520782;0.0024434609804302454
01:00:0A:00:00:00:00;1725408818;04/09/24;00:13:38;1.015;-0.027;0.085;-0.0036651913542300463;-0.010995574295520782;0.0024434609804302454
01:00:0A:00:00:00:00;1725408819;04/09/24;00:13:39;1.015;-0.026;0.086;-0.0036651913542300463;-0.010995574295520782;0.0024434609804302454
01:00:0A:00:00:00:00;1725408820;04/09/24;00:13:40;1.015;-0.025;0.086;-0.0036651913542300463;-0.010995574295520782;0.0036651913542300463
01:00:0A:00:00:00:00;1725408821;04/09/24;00:13:41;1.015;-0.028;0.087;-0.0036651913542300463;-0.010995574295520782;0.0024434609804302454
01:00:0A:00:00:00:00;1725408822;04/09/24;00:13:42;1.014;-0.026;0.087;-0.0036651913542300463;-0.010995574295520782;0.0024434609804302454
01:00:0A:00:00:00:00;1725408823;04/09/24;00:13:43;1.015;-0.026;0.085;-0.0036651913542300463;-0.010995574295520782;0.0024434609804302454
01:00:0A:00:00:00:00;1725408824;04/09/24;00:13:44;1.015;-0.025;0.086;-0.0036651913542300463;-0.010995574295520782;0.0024434609804302454
01:00:0A:00:00:00:00;1725408825;04/09/24;00:13:45;1.015;-0.026;0.086;-0.0036651913542300463;-0.010995574295520782;0.0024434609804302454
01:00:0A:00:00:00:00;1725408826;04/09/24;00:13:46;1.014;-0.026;0.086;-0.0036651913542300463;-0.010995574295520782;0.0024434609804302454
01:00:0A:00:00:00:00;1725408827;04/09/24;00:13:47;1.014;-0.026;0.087;-0.0036651913542300463;-0.010995574295520782;0.0024434609804302454
01:00:0A:00:00:00:00;1725408828;04/09/24;00:13:48;1.016;-0.025;0.085;-0.0036651913542300463;-0.010995574295520782;0.0024434609804302454
01:00:0A:00:00:00:00;1725408829;04/09/24;00:13:49;1.015;-0.027;0.085;-0.004886921960860491;-0.010995574295520782;0.0024434609804302454
01:00:0A:00:00:00:00;1725408830;04/09/24;00:13:50;1.015;-0.026;0.086;-0.004886921960860491;-0.010995574295520782;0.0024434609804302454
01:00:0A:00:00:00:00;1725408831;04/09/24;00:13:51;1.015;-0.026;0.086;-0.004886921960860491;-0.010995574295520782;0.0036651913542300463
01:00:0A:00:00:00:00;1725408832;04/09/24;00:13:52;1.015;-0.026;0.085;-0.004886921960860491;-0.010995574295520782;0.0024434609804302454
01:00:0A:00:00:00:00;1725408833;04/09/24;00:13:53;1.014;-0.027;0.086;-0.004886921960860491;-0.010995574295520782;0.0024434609804302454
01:00:0A:00:00:00:00;1725408834;04/09/24;00:13:54;1.015;-0.026;0.086;-0.006108652334660292;-0.012217304669320583;0.0024434609804302454
01:00:0A:00:00:00:00;1725408835;04/09/24;00:13:55;1.014;-0.026;0.086;-0.006108652334660292;-0.010995574295520782;0.0024434609804302454
01:00:0A:00:00:00:00;1725408836;04/09/24;00:13:56;1.015;-0.026;0.087;-0.004886921960860491;-0.012217304669320583;0.0024434609804302454
01:00:0A:00:00:00:00;1725408837;04/09/24;00:13:57;1.015;-0.027;0.086;-0.004886921960860491;-0.010995574295520782;0.0024434609804302454
01:00:0A:00:00:00:00;1725408838;04/09/24;00:13:58;1.014;-0.027;0.086;-0.006108652334660292;-0.010995574295520782;0.0024434609804302454
01:00:0A:00:00:00:00;1725408839;04/09/24;00:13:59;1.014;-0.026;0.085;-0.006108652334660292;-0.010995574295520782;0.0024434609804302454
01:00:0A:00:00:00:00;1725408840;04/09/24;00:14:00;1.014;-0.027;0.086;-0.006108652334660292;-0.010995574295520782;0.0024434609804302454
01:00:0A:00:00:00:00;1725408841;04/09/24;00:14:01;1.015;-0.027;0.087;-0.006108652334660292;-0.010995574295520782;0.0024434609804302454
01:00:0A:00:00:00:00;1725408842;04/09/24;00:14:02;1.014;-0.026;0.085;-0.006108652334660292;-0.010995574295520782;0.0024434609804302454
01:00:0A:00:00:00:00;1725408843;04/09/24;00:14:03;1.013;-0.025;0.086;-0.006108652334660292;-0.010995574295520782;0.0024434609804302454
01:00:0A:00:00:00:00;1725408844;04/09/24;00:14:04;1.015;-0.025;0.085;-0.006108652334660292;-0.010995574295520782;0.0024434609804302454
01:00:0A:00:00:00:00;1725408845;04/09/24;00:14:05;1.015;-0.027;0.086;-0.006108652334660292;-0.010995574295520782;0.0024434609804302454
01:00:0A:00:00:00:00;1725408846;04/09/24;00:14:06;1.015;-0.026;0.085;-0.004886921960860491;-0.010995574295520782;0.0024434609804302454
01:00:0A:00:00:00:00;1725408847;04/09/24;00:14:07;1.015;-0.026;0.086;-0.006108652334660292;-0.010995574295520782;0.0024434609804302454
01:00:0A:00:00:00:00;1725408848;04/09/24;00:14:08;1.015;-0.026;0.087;-0.006108652334660292;-0.010995574295520782;0.0036651913542300463
01:00:0A:00:00:00:00;1725408849;04/09/24;00:14:09;1.015;-0.027;0.086;-0.004886921960860491;-0.012217304669320583;0.0024434609804302454
01:00:0A:00:00:00:00;1725408850;04/09/24;00:14:10;1.015;-0.026;0.086;-0.004886921960860491;-0.010995574295520782;0.0024434609804302454
01:00:0A:00:00:00:00;1725408851;04/09/24;00:14:11;1.015;-0.027;0.085;-0.004886921960860491;-0.010995574295520782;0.0024434609804302454
01:00:0A:00:00:00:00;1725408852;04/09/24;00:14:12;1.014;-0.026;0.086;-0.004886921960860491;-0.010995574295520782;0.0024434609804302454
01:00:0A:00:00:00:00;1725408853;04/09/24;00:14:13;1.015;-0.027;0.086;-0.004886921960860491;-0.010995574295520782;0.0024434609804302454
01:00:0A:00:00:00:00;1725408854;04/09/24;00:14:14;1.015;-0.026;0.086;-0.004886921960860491;-0.010995574295520782;0.0024434609804302454
01:00:0A:00:00:00:00;1725408855;04/09/24;00:14:15;1.015;-0.027;0.086;-0.004886921960860491;-0.010995574295520782;0.0024434609804302454
01:00:0A:00:00:00:00;1725408856;04/09/24;00:14:16;1.015;-0.025;0.086;-0.0036651913542300463;-0.010995574295520782;0.0024434609804302454
01:00:0A:00:00:00:00;1725408857;04/09/24;00:14:17;1.015;-0.025;0.086;-0.004886921960860491;-0.010995574295520782;0.0024434609804302454
01:00:0A:00:00:00:00;1725408858;04/09/24;00:14:18;1.015;-0.026;0.086;-0.004886921960860491;-0.010995574295520782;0.0024434609804302454
01:00:0A:00:00:00:00;1725408859;04/09/24;00:14:19;1.014;-0.027;0.086;-0.0036651913542300463;-0.010995574295520782;0.0024434609804302454
01:00:0A:00:00:00:00;1725408860;04/09/24;00:14:20;1.014;-0.027;0.085;-0.0036651913542300463;-0.010995574295520782;0.0024434609804302454
01:00:0A:00:00:00:00;1725408861;04/09/24;00:14:21;1.015;-0.026;0.086;-0.0036651913542300463;-0.010995574295520782;0.0024434609804302454
01:00:0A:00:00:00:00;1725408862;04/09/24;00:14:22;1.014;-0.026;0.086;-0.0036651913542300463;-0.010995574295520782;0.0036651913542300463
01:00:0A:00:00:00:00;1725408863;04/09/24;00:14:23;1.015;-0.026;0.085;-0.0036651913542300463;-0.012217304669320583;0.0024434609804302454
01:00:0A:00:00:00:00;1725408864;04/09/24;00:14:24;1.014;-0.026;0.086;-0.0036651913542300463;-0.010995574295520782;0.0024434609804302454
01:00:0A:00:00:00:00;1725408865;04/09/24;00:14:25;1.015;-0.026;0.086;-0.0036651913542300463;-0.010995574295520782;0.0024434609804302454
01:00:0A:00:00:00:00;1725408866;04/09/24;00:14:26;1.015;-0.027;0.085;-0.0036651913542300463;-0.010995574295520782;0.0024434609804302454
01:00:0A:00:00:00:00;1725408867;04/09/24;00:14:27;1.014;-0.026;0.086;-0.0036651913542300463;-0.010995574295520782;0.0024434609804302454
01:00:0A:00:00:00:00;1725408868;04/09/24;00:14:28;1.015;-0.027;0.085;-0.0036651913542300463;-0.010995574295520782;0.0036651913542300463
01:00:0A:00:00:00:00;1725408869;04/09/24;00:14:29;1.015;-0.026;0.085;-0.0036651913542300463;-0.010995574295520782;0.0024434609804302454
01:00:0A:00:00:00:00;1725408870;04/09/24;00:14:30;1.015;-0.026;0.086;-0.0036651913542300463;-0.010995574295520782;0.0024434609804302454
01:00:0A:00:00:00:00;1725408871;04/09/24;00:14:31;1.014;-0.027;0.086;-0.0024434609804302454;-0.010995574295520782;0.0036651913542300463
01:00:0A:00:00:00:00;1725408872;04/09/24;00:14:32;1.014;-0.027;0.085;-0.0024434609804302454;-0.010995574295520782;0.0036651913542300463
01:00:0A:00:00:00:00;1725408873;04/09/24;00:14:33;1.015;-0.026;0.087;-0.0024434609804302454;-0.010995574295520782;0.0024434609804302454
01:00:0A:00:00:00:00;1725408874;04/09/24;00:14:34;1.015;-0.027;0.085;-0.0024434609804302454;-0.010995574295520782;0.0036651913542300463
01:00:0A:00:00:00:00;1725408875;04/09/24;00:14:35;1.014;-0.026;0.086;-0.0024434609804302454;-0.010995574295520782;0.0036651913542300463
01:00:0A:00:00:00:00;1725408876;04/09/24;00:14:36;1.014;-0.026;0.086;-0.0024434609804302454;-0.010995574295520782;0.0024434609804302454
01:00:0A:00:00:00:00;1725408877;04/09/24;00:14:37;1.015;-0.026;0.086;-0.0024434609804302454;-0.010995574295520782;0.0036651913542300463
01:00:0A:00:00:00:00;1725408878;04/09/24;00:14:38;1.015;-0.026;0.086;-0.0024434609804302454;-0.010995574295520782;0.0024434609804302454
01:00:0A:00:00:00:00;1725408879;04/09/24;00:14:39;1.015;-0.027;0.085;-0.0024434609804302454;-0.010995574295520782;0.0024434609804302454
01:00:0A:00:00:00:00;1725408880;04/09/24;00:14:40;1.015;-0.027;0.086;-0.0024434609804302454;-0.010995574295520782;0.0024434609804302454
01:00:0A:00:00:00:00;1725408881;04/09/24;00:14:41;1.015;-0.026;0.085;-0.0024434609804302454;-0.010995574295520782;0.0024434609804302454
01:00:0A:00:00:00:00;1725408882;04/09/24;00:14:42;1.016;-0.027;0.086;-0.0024434609804302454;-0.010995574295520782;0.0024434609804302454
01:00:0A:00:00:00:00;1725408883;04/09/24;00:14:43;1.014;-0.026;0.086;-0.0024434609804302454;-0.010995574295520782;0.0024434609804302454
01:00:0A:00:00:00:00;1725408884;04/09/24;00:14:44;1.015;-0.026;0.086;-0.0024434609804302454;-0.010995574295520782;0.0036651913542300463
01:00:0A:00:00:00:00;1725408885;04/09/24;00:14:45;1.015;-0.025;0.086;-0.0024434609804302454;-0.010995574295520782;0.0024434609804302454
01:00:0A:00:00:00:00;1725408886;04/09/24;00:14:46;1.014;-0.025;0.087;-0.0024434609804302454;-0.010995574295520782;0.0036651913542300463
01:00:0A:00:00:00:00;1725408887;04/09/24;00:14:47;1.014;-0.026;0.085;-0.0012217304902151227;-0.010995574295520782;0.0024434609804302454
01:00:0A:00:00:00:00;1725408888;04/09/24;00:14:48;1.013;-0.026;0.086;-0.0024434609804302454;-0.010995574295520782;0.0024434609804302454
01:00:0A:00:00:00:00;1725408889;04/09/24;00:14:49;1.014;-0.026;0.086;-0.0024434609804302454;-0.010995574295520782;0.0024434609804302454
01:00:0A:00:00:00:00;1725408890;04/09/24;00:14:50;1.016;-0.025;0.086;-0.0024434609804302454;-0.010995574295520782;0.0024434609804302454
01:00:0A:00:00:00:00;1725408891;04/09/24;00:14:51;1.016;-0.027;0.085;-0.0024434609804302454;-0.010995574295520782;0.0024434609804302454
01:00:0A:00:00:00:00;1725408892;04/09/24;00:14:52;1.015;-0.027;0.085;-0.0024434609804302454;-0.010995574295520782;0.0024434609804302454
01:00:0A:00:00:00:00;1725408893;04/09/24;00:14:53;1.015;-0.027;0.086;-0.0024434609804302454;-0.010995574295520782;0.0024434609804302454
01:00:0A:00:00:00:00;1725408894;04/09/24;00:14:54;1.014;-0.025;0.086;-0.0024434609804302454;-0.010995574295520782;0.0024434609804302454
01:00:0A:00:00:00:00;1725408895;04/09/24;00:14:55;1.015;-0.026;0.086;-0.0024434609804302454;-0.010995574295520782;0.0024434609804302454
01:00:0A:00:00:00:00;1725408896;04/09/24;00:14:56;1.015;-0.028;0.087;-0.0024434609804302454;-0.010995574295520782;0.0024434609804302454
01:00:0A:00:00:00:00;1725408897;04/09/24;00:14:57;1.015;-0.026;0.086;-0.0024434609804302454;-0.010995574295520782;0.0036651913542300463
01:00:0A:00:00:00:00;1725408898;04/09/24;00:14:58;1.015;-0.026;0.086;-0.0024434609804302454;-0.010995574295520782;0.0024434609804302454
01:00:0A:00:00:00:00;1725408899;04/09/24;00:14:59;1.015;-0.025;0.086;-0.0024434609804302454;-0.010995574295520782;0.0024434609804302454
01:00:0A:00:00:00:00;1725408900;04/09/24;00:15:00;1.014;-0.027;0.085;-0.0036651913542300463;-0.010995574295520782;0.0024434609804302454
01:00:0A:00:00:00:00;1725408901;04/09/24;00:15:01;1.014;-0.026;0.086;-0.0036651913542300463;-0.010995574295520782;0.0036651913542300463
01:00:0A:00:00:00:00;1725408902;04/09/24;00:15:02;1.015;-0.025;0.085;-0.0036651913542300463;-0.010995574295520782;0.0024434609804302454
01:00:0A:00:00:00:00;1725408903;04/09/24;00:15:03;1.014;-0.026;0.086;-0.0036651913542300463;-0.010995574295520782;0.0024434609804302454
01:00:0A:00:00:00:00;1725408904;04/09/24;00:15:04;1.014;-0.027;0.086;-0.0036651913542300463;-0.010995574295520782;0.0024434609804302454
01:00:0A:00:00:00:00;1725408905;04/09/24;00:15:05;1.015;-0.026;0.086;-0.0036651913542300463;-0.010995574295520782;0.0024434609804302454
01:00:0A:00:00:00:00;1725408906;04/09/24;00:15:06;1.014;-0.027;0.085;-0.0036651913542300463;-0.010995574295520782;0.0024434609804302454
01:00:0A:00:00:00:00;1725408907;04/09/24;00:15:07;1.015;-0.026;0.086;-0.0036651913542300463;-0.010995574295520782;0.0024434609804302454
01:00:0A:00:00:00:00;1725408908;04/09/24;00:15:08;1.014;-0.027;0.086;-0.0036651913542300463;-0.010995574295520782;0.0024434609804302454
01:00:0A:00:00:00:00;1725408909;04/09/24;00:15:09;1.015;-0.027;0.086;-0.0036651913542300463;-0.010995574295520782;0.0024434609804302454
01:00:0A:00:00:00:00;1725408910;04/09/24;00:15:10;1.015;-0.026;0.084;-0.0036651913542300463;-0.010995574295520782;0.0036651913542300463
01:00:0A:00:00:00:00;1725408911;04/09/24;00:15:11;1.015;-0.027;0.087;-0.0036651913542300463;-0.010995574295520782;0.0024434609804302454
01:00:0A:00:00:00:00;1725408912;04/09/24;00:15:12;1.014;-0.025;0.086;-0.004886921960860491;-0.010995574295520782;0.0024434609804302454
