Source;Epoch timestamp (UTC);Date;Time (UTC);Accel X (G);Accel Y (G);Accel Z (G);Gyro X (rad/s);Gyro Y (rad/s);Gyro Z (rad/s)
01:00:0A:00:00:00:00;1724025607;19/08/24;00:00:07;1.014;-0.017;0.09;0.0036651913542300463;-0.012217304669320583;0.0036651913542300463
01:00:0A:00:00:00:00;1724025608;19/08/24;00:00:08;1.014;-0.014;0.088;0.004886921960860491;-0.014660765416920185;0.0012217304902151227
01:00:0A:00:00:00:00;1724025609;19/08/24;00:00:09;1.015;-0.016;0.089;0.0036651913542300463;-0.00855211354792118;0.004886921960860491
01:00:0A:00:00:00:00;1724025610;19/08/24;00:00:10;1.014;-0.016;0.091;0.0036651913542300463;-0.012217304669320583;0.0036651913542300463
01:00:0A:00:00:00:00;1724025611;19/08/24;00:00:11;1.015;-0.014;0.088;0.0036651913542300463;-0.013439035043120384;0.0012217304902151227
01:00:0A:00:00:00:00;1724025612;19/08/24;00:00:12;1.015;-0.015;0.09;0.0036651913542300463;-0.00855211354792118;0.004886921960860491
01:00:0A:00:00:00:00;1724025613;19/08/24;00:00:13;1.015;-0.017;0.091;0.0036651913542300463;-0.012217304669320583;0.0036651913542300463
01:00:0A:00:00:00:00;1724025614;19/08/24;00:00:14;1.013;-0.015;0.088;0.0036651913542300463;-0.012217304669320583;0.0024434609804302454
01:00:0A:00:00:00:00;1724025615;19/08/24;00:00:15;1.015;-0.015;0.089;0.0036651913542300463;-0.00855211354792118;0.004886921960860491
01:00:0A:00:00:00:00;1724025616;19/08/24;00:00:16;1.014;-0.017;0.091;0.0036651913542300463;-0.012217304669320583;0.0036651913542300463
01:00:0A:00:00:00:00;1724025617;19/08/24;00:00:17;1.014;-0.015;0.089;0.0036651913542300463;-0.012217304669320583;0.0024434609804302454
01:00:0A:00:00:00:00;1724025618;19/08/24;00:00:18;1.014;-0.015;0.09;0.0036651913542300463;-0.009773843921720982;0.004886921960860491
01:00:0A:00:00:00:00;1724025619;19/08/24;00:00:19;1.013;-0.017;0.091;0.0036651913542300463;-0.012217304669320583;0.0024434609804302454
01:00:0A:00:00:00:00;1724025620;19/08/24;00:00:20;1.013;-0.016;0.091;0.0036651913542300463;-0.012217304669320583;0.0024434609804302454
01:00:0A:00:00:00:00;1724025621;19/08/24;00:00:21;1.016;-0.016;0.089;0.0036651913542300463;-0.010995574295520782;0.0036651913542300463
01:00:0A:00:00:00:00;1724025622;19/08/24;00:00:22;1.014;-0.016;0.09;0.0036651913542300463;-0.010995574295520782;0.004886921960860491
01:00:0A:00:00:00:00;1724025623;19/08/24;00:00:23;1.015;-0.015;0.09;0.0036651913542300463;-0.012217304669320583;0.0024434609804302454
01:00:0A:00:00:00:00;1724025624;19/08/24;00:00:24;1.014;-0.016;0.091;0.0036651913542300463;-0.012217304669320583;0.0036651913542300463
01:00:0A:00:00:00:00;1724025625;19/08/24;00:00:25;1.015;-0.015;0.088;0.004886921960860491;-0.012217304669320583;0.0024434609804302454
01:00:0A:00:00:00:00;1724025626;19/08/24;00:00:26;1.014;-0.015;0.089;0.0036651913542300463;-0.00855211354792118;0.004886921960860491
01:00:0A:00:00:00:00;1724025627;19/08/24;00:00:27;1.014;-0.016;0.09;0.0036651913542300463;-0.013439035043120384;0.0024434609804302454
01:00:0A:00:00:00:00;1724025628;19/08/24;00:00:28;1.015;-0.015;0.088;0.004886921960860491;-0.012217304669320583;0.0036651913542300463
01:00:0A:00:00:00:00;1724025629;19/08/24;00:00:29;1.014;-0.017;0.09;0.0036651913542300463;-0.009773843921720982;0.004886921960860491
01:00:0A:00:00:00:00;1724025630;19/08/24;00:00:30;1.014;-0.015;0.09;0.0036651913542300463;-0.013439035043120384;0.0024434609804302454
01:00:0A:00:00:00:00;1724025631;19/08/24;00:00:31;1.014;-0.014;0.089;0.0036651913542300463;-0.010995574295520782;0.0036651913542300463
01:00:0A:00:00:00:00;1724025632;19/08/24;00:00:32;1.014;-0.017;0.091;0.0036651913542300463;-0.009773843921720982;0.0036651913542300463
01:00:0A:00:00:00:00;1724025633;19/08/24;00:00:33;1.013;-0.017;0.09;0.0036651913542300463;-0.013439035043120384;0.0024434609804302454
01:00:0A:00:00:00:00;1724025634;19/08/24;00:00:34;1.014;-0.016;0.089;0.0036651913542300463;-0.010995574295520782;0.004886921960860491
01:00:0A:00:00:00:00;1724025635;19/08/24;00:00:35;1.015;-0.015;0.091;0.0036651913542300463;-0.009773843921720982;0.0036651913542300463
01:00:0A:00:00:00:00;1724025636;19/08/24;00:00:36;1.015;-0.015;0.09;0.0036651913542300463;-0.013439035043120384;0.0024434609804302454
01:00:0A:00:00:00:00;1724025637;19/08/24;00:00:37;1.014;-0.016;0.089;0.0036651913542300463;-0.010995574295520782;0.0036651913542300463
01:00:0A:00:00:00:00;1724025638;19/08/24;00:00:38;1.014;-0.017;0.092;0.0036651913542300463;-0.009773843921720982;0.0036651913542300463
01:00:0A:00:00:00:00;1724025639;19/08/24;00:00:39;1.015;-0.016;0.089;0.0036651913542300463;-0.013439035043120384;0.0024434609804302454
01:00:0A:00:00:00:00;1724025640;19/08/24;00:00:40;1.013;-0.015;0.09;0.0036651913542300463;-0.009773843921720982;0.0036651913542300463
01:00:0A:00:00:00:00;1724025641;19/08/24;00:00:41;1.014;-0.016;0.09;0.0036651913542300463;-0.010995574295520782;0.0036651913542300463
01:00:0A:00:00:00:00;1724025642;19/08/24;00:00:42;1.014;-0.016;0.09;0.0036651913542300463;-0.012217304669320583;0.0024434609804302454
01:00:0A:00:00:00:00;1724025643;19/08/24;00:00:43;1.014;-0.016;0.089;0.0036651913542300463;-0.009773843921720982;0.004886921960860491
01:00:0A:00:00:00:00;1724025644;19/08/24;00:00:44;1.014;-0.015;0.09;0.0036651913542300463;-0.010995574295520782;0.0036651913542300463
01:00:0A:00:00:00:00;1724025645;19/08/24;00:00:45;1.014;-0.016;0.09;0.0036651913542300463;-0.012217304669320583;0.0024434609804302454
01:00:0A:00:00:00:00;1724025646;19/08/24;00:00:46;1.015;-0.016;0.09;0.0036651913542300463;-0.009773843921720982;0.004886921960860491
01:00:0A:00:00:00:00;1724025647;19/08/24;00:00:47;1.015;-0.015;0.09;0.0036651913542300463;-0.010995574295520782;0.0036651913542300463
01:00:0A:00:00:00:00;1724025648;19/08/24;00:00:48;1.014;-0.015;0.09;0.0036651913542300463;-0.012217304669320583;0.0024434609804302454
01:00:0A:00:00:00:00;1724025649;19/08/24;00:00:49;1.015;-0.015;0.089;0.0036651913542300463;-0.010995574295520782;0.0036651913542300463
01:00:0A:00:00:00:00;1724025650;19/08/24;00:00:50;1.014;-0.016;0.091;0.0036651913542300463;-0.010995574295520782;0.0036651913542300463
01:00:0A:00:00:00:00;1724025651;19/08/24;00:00:51;1.014;-0.016;0.089;0.0036651913542300463;-0.012217304669320583;0.0024434609804302454
01:00:0A:00:00:00:00;1724025652;19/08/24;00:00:52;1.015;-0.016;0.09;0.0036651913542300463;-0.009773843921720982;0.004886921960860491
01:00:0A:00:00:00:00;1724025653;19/08/24;00:00:53;1.014;-0.016;0.089;0.0036651913542300463;-0.010995574295520782;0.0036651913542300463
01:00:0A:00:00:00:00;1724025654;19/08/24;00:00:54;1.013;-0.015;0.09;0.0024434609804302454;-0.012217304669320583;0.0036651913542300463
01:00:0A:00:00:00:00;1724025655;19/08/24;00:00:55;1.014;-0.016;0.091;0.0024434609804302454;-0.009773843921720982;0.0036651913542300463
01:00:0A:00:00:00:00;1724025656;19/08/24;00:00:56;1.014;-0.017;0.09;0.0024434609804302454;-0.012217304669320583;0.0036651913542300463
01:00:0A:00:00:00:00;1724025657;19/08/24;00:00:57;1.013;-0.016;0.089;0.0036651913542300463;-0.012217304669320583;0.0036651913542300463
01:00:0A:00:00:00:00;1724025658;19/08/24;00:00:58;1.016;-0.016;0.089;0.0024434609804302454;-0.010995574295520782;0.0036651913542300463
01:00:0A:00:00:00:00;1724025659;19/08/24;00:00:59;1.015;-0.016;0.09;0.0024434609804302454;-0.012217304669320583;0.0036651913542300463
01:00:0A:00:00:00:00;1724025660;19/08/24;00:01:00;1.014;-0.014;0.089;0.0024434609804302454;-0.012217304669320583;0.0036651913542300463
01:00:0A:00:00:00:00;1724025661;19/08/24;00:01:01;1.015;-0.016;0.089;0.0024434609804302454;-0.010995574295520782;0.0036651913542300463
01:00:0A:00:00:00:00;1724025662;19/08/24;00:01:02;1.015;-0.016;0.09;0.0024434609804302454;-0.012217304669320583;0.0036651913542300463
01:00:0A:00:00:00:00;1724025663;19/08/24;00:01:03;1.015;-0.015;0.09;0.0024434609804302454;-0.012217304669320583;0.0036651913542300463
01:00:0A:00:00:00:00;1724025664;19/08/24;00:01:04;1.015;-0.016;0.09;0.0024434609804302454;-0.010995574295520782;0.0036651913542300463
01:00:0A:00:00:00:00;1724025665;19/08/24;00:01:05;1.014;-0.016;0.09;0.0024434609804302454;-0.012217304669320583;0.0036651913542300463
01:00:0A:00:00:00:00;1724025666;19/08/24;00:01:06;1.014;-0.016;0.089;0.0024434609804302454;-0.012217304669320583;0.0036651913542300463
01:00:0A:00:00:00:00;1724025667;19/08/24;00:01:07;1.014;-0.015;0.09;0.0024434609804302454;-0.010995574295520782;0.0036651913542300463
01:00:0A:00:00:00:00;1724025668;19/08/24;00:01:08;1.015;-0.016;0.091;0.0024434609804302454;-0.012217304669320583;0.0036651913542300463
01:00:0A:00:00:00:00;1724025669;19/08/24;00:01:09;1.015;-0.016;0.09;0.0024434609804302454;-0.010995574295520782;0.0024434609804302454
01:00:0A:00:00:00:00;1724025670;19/08/24;00:01:10;1.013;-0.016;0.09;0.0024434609804302454;-0.010995574295520782;0.0036651913542300463
01:00:0A:00:00:00:00;1724025671;19/08/24;00:01:11;1.014;-0.016;0.09;0.0024434609804302454;-0.012217304669320583;0.0024434609804302454
01:00:0A:00:00:00:00;1724025672;19/08/24;00:01:12;1.015;-0.015;0.089;0.0024434609804302454;-0.010995574295520782;0.0036651913542300463
01:00:0A:00:00:00:00;1724025673;19/08/24;00:01:13;1.014;-0.016;0.09;0.0024434609804302454;-0.010995574295520782;0.0036651913542300463
01:00:0A:00:00:00:00;1724025674;19/08/24;00:01:14;1.014;-0.016;0.091;0.0024434609804302454;-0.010995574295520782;0.0036651913542300463
01:00:0A:00:00:00:00;1724025675;19/08/24;00:01:15;1.014;-0.016;0.089;0.0024434609804302454;-0.010995574295520782;0.0036651913542300463
01:00:0A:00:00:00:00;1724025676;19/08/24;00:01:16;1.014;-0.016;0.089;0.0024434609804302454;-0.010995574295520782;0.0036651913542300463
01:00:0A:00:00:00:00;1724025677;19/08/24;00:01:17;1.015;-0.015;0.09;0.0024434609804302454;-0.012217304669320583;0.0036651913542300463
01:00:0A:00:00:00:00;1724025678;19/08/24;00:01:18;1.015;-0.017;0.09;0.0024434609804302454;-0.010995574295520782;0.0036651913542300463
01:00:0A:00:00:00:00;1724025679;19/08/24;00:01:19;1.015;-0.016;0.089;0.0024434609804302454;-0.010995574295520782;0.0036651913542300463
01:00:0A:00:00:00:00;1724025680;19/08/24;00:01:20;1.015;-0.017;0.09;0.0024434609804302454;-0.010995574295520782;0.0036651913542300463
01:00:0A:00:00:00:00;1724025681;19/08/24;00:01:21;1.014;-0.016;0.09;0.0012217304902151227;-0.010995574295520782;0.0036651913542300463
01:00:0A:00:00:00:00;1724025682;19/08/24;00:01:22;1.014;-0.016;0.089;0.0012217304902151227;-0.010995574295520782;0.0036651913542300463
01:00:0A:00:00:00:00;1724025683;19/08/24;00:01:23;1.014;-0.016;0.09;0.0012217304902151227;-0.012217304669320583;0.0036651913542300463
01:00:0A:00:00:00:00;1724025684;19/08/24;00:01:24;1.014;-0.016;0.089;0.0012217304902151227;-0.010995574295520782;0.0036651913542300463
01:00:0A:00:00:00:00;1724025685;19/08/24;00:01:25;1.016;-0.017;0.09;0.0012217304902151227;-0.010995574295520782;0.0036651913542300463
01:00:0A:00:00:00:00;1724025686;19/08/24;00:01:26;1.015;-0.016;0.089;0.0012217304902151227;-0.010995574295520782;0.0036651913542300463
01:00:0A:00:00:00:00;1724025687;19/08/24;00:01:27;1.015;-0.015;0.09;0.0024434609804302454;-0.010995574295520782;0.0036651913542300463
01:00:0A:00:00:00:00;1724025688;19/08/24;00:01:28;1.014;-0.016;0.089;0.0012217304902151227;-0.010995574295520782;0.0036651913542300463
01:00:0A:00:00:00:00;1724025689;19/08/24;00:01:29;1.014;-0.015;0.089;0.0012217304902151227;-0.010995574295520782;0.0036651913542300463
01:00:0A:00:00:00:00;1724025690;19/08/24;00:01:30;1.014;-0.016;0.089;0.0012217304902151227;-0.010995574295520782;0.0036651913542300463
01:00:0A:00:00:00:00;1724025691;19/08/24;00:01:31;1.014;-0.016;0.089;0.0012217304902151227;-0.010995574295520782;0.0036651913542300463
01:00:0A:00:00:00:00;1724025692;19/08/24;00:01:32;1.015;-0.016;0.089;0.0012217304902151227;-0.010995574295520782;0.0036651913542300463
01:00:0A:00:00:00:00;1724025693;19/08/24;00:01:33;1.014;-0.016;0.091;0.0012217304902151227;-0.010995574295520782;0.0036651913542300463
01:00:0A:00:00:00:00;1724025694;19/08/24;00:01:34;1.014;-0.016;0.09;0.0012217304902151227;-0.010995574295520782;0.0036651913542300463
01:00:0A:00:00:00:00;1724025695;19/08/24;00:01:35;1.015;-0.016;0.09;0.0012217304902151227;-0.010995574295520782;0.0036651913542300463
01:00:0A:00:00:00:00;1724025696;19/08/24;00:01:36;1.014;-0.017;0.089;0.0012217304902151227;-0.010995574295520782;0.0036651913542300463
01:00:0A:00:00:00:00;1724025697;19/08/24;00:01:37;1.014;-0.016;0.09;0.0012217304902151227;-0.010995574295520782;0.0036651913542300463
01:00:0A:00:00:00:00;1724025698;19/08/24;00:01:38;1.015;-0.016;0.09;0.0012217304902151227;-0.010995574295520782;0.0036651913542300463
01:00:0A:00:00:00:00;1724025699;19/08/24;00:01:39;1.014;-0.016;0.088;0.0012217304902151227;-0.010995574295520782;0.0036651913542300463
01:00:0A:00:00:00:00;1724025700;19/08/24;00:01:40;1.013;-0.016;0.089;0.0012217304902151227;-0.010995574295520782;0.0036651913542300463
01:00:0A:00:00:00:00;1724025701;19/08/24;00:01:41;1.014;-0.017;0.09;0.0012217304902151227;-0.010995574295520782;0.0036651913542300463
01:00:0A:00:00:00:00;1724025702;19/08/24;00:01:42;1.015;-0.016;0.089;0.0012217304902151227;-0.010995574295520782;0.0036651913542300463
01:00:0A:00:00:00:00;1724025703;19/08/24;00:01:43;1.014;-0.016;0.09;0.0012217304902151227;-0.010995574295520782;0.0036651913542300463
01:00:0A:00:00:00:00;1724025704;19/08/24;00:01:44;1.014;-0.015;0.09;0.0012217304902151227;-0.010995574295520782;0.0036651913542300463
01:00:0A:00:00:00:00;1724025705;19/08/24;00:01:45;1.014;-0.016;0.09;0.0012217304902151227;-0.010995574295520782;0.0036651913542300463
01:00:0A:00:00:00:00;1724025706;19/08/24;00:01:46;1.013;-0.016;0.09;0.0012217304902151227;-0.010995574295520782;0.0024434609804302454
01:00:0A:00:00:00:00;1724025707;19/08/24;00:01:47;1.013;-0.016;0.09;0.0012217304902151227;-0.010995574295520782;0.0036651913542300463
01:00:0A:00:00:00:00;1724025708;19/08/24;00:01:48;1.014;-0.015;0.09;0.0012217304902151227;-0.010995574295520782;0.0036651913542300463
01:00:0A:00:00:00:00;1724025709;19/08/24;00:01:49;1.014;-0.017;0.09;0.0012217304902151227;-0.010995574295520782;0.0036651913542300463
01:00:0A:00:00:00:00;1724025710;19/08/24;00:01:50;1.014;-0.018;0.091;0.0024434609804302454;-0.010995574295520782;0.0036651913542300463
01:00:0A:00:00:00:00;1724025711;19/08/24;00:01:51;1.014;-0.016;0.089;0.0036651913542300463;-0.012217304669320583;0.0012217304902151227
01:00:0A:00:00:00:00;1724025712;19/08/24;00:01:52;1.015;-0.015;0.09;0.0036651913542300463;-0.009773843921720982;0.0036651913542300463
01:00:0A:00:00:00:00;1724025713;19/08/24;00:01:53;1.014;-0.017;0.091;0.0036651913542300463;-0.009773843921720982;0.0073303827084600925
01:00:0A:00:00:00:00;1724025714;19/08/24;00:01:54;1.013;-0.019;0.091;0.0073303827084600925;-0.012217304669320583;0.0036651913542300463
01:00:0A:00:00:00:00;1724025715;19/08/24;00:01:55;1.014;-0.015;0.089;0.009773843921720982;-0.013439035043120384;-0.0024434609804302454
01:00:0A:00:00:00:00;1724025716;19/08/24;00:01:56;1.014;-0.014;0.089;0.006108652334660292;-0.009773843921720982;0.00855211354792118
01:00:0A:00:00:00:00;1724025717;19/08/24;00:01:57;1.012;-0.02;0.091;0.0073303827084600925;-0.010995574295520782;0.004886921960860491
01:00:0A:00:00:00:00;1724025718;19/08/24;00:01:58;1.014;-0.015;0.089;0.00855211354792118;-0.013439035043120384;-0.0012217304902151227
01:00:0A:00:00:00:00;1724025719;19/08/24;00:01:59;1.013;-0.014;0.09;0.004886921960860491;-0.009773843921720982;0.00855211354792118
01:00:0A:00:00:00:00;1724025720;19/08/24;00:02:00;1.014;-0.02;0.09;0.006108652334660292;-0.010995574295520782;0.0036651913542300463
01:00:0A:00:00:00:00;1724025721;19/08/24;00:02:01;1.015;-0.015;0.089;0.0073303827084600925;-0.012217304669320583;0.0
01:00:0A:00:00:00:00;1724025722;19/08/24;00:02:02;1.014;-0.015;0.089;0.004886921960860491;-0.009773843921720982;0.00855211354792118
01:00:0A:00:00:00:00;1724025723;19/08/24;00:02:03;1.013;-0.018;0.092;0.006108652334660292;-0.010995574295520782;0.0024434609804302454
01:00:0A:00:00:00:00;1724025724;19/08/24;00:02:04;1.014;-0.014;0.089;0.006108652334660292;-0.012217304669320583;0.0012217304902151227
01:00:0A:00:00:00:00;1724025725;19/08/24;00:02:05;1.015;-0.016;0.089;0.004886921960860491;-0.009773843921720982;0.0073303827084600925
01:00:0A:00:00:00:00;1724025726;19/08/24;00:02:06;1.015;-0.018;0.091;0.006108652334660292;-0.012217304669320583;0.0024434609804302454
01:00:0A:00:00:00:00;1724025727;19/08/24;00:02:07;1.014;-0.015;0.089;0.006108652334660292;-0.012217304669320583;0.0012217304902151227
01:00:0A:00:00:00:00;1724025728;19/08/24;00:02:08;1.014;-0.017;0.091;0.004886921960860491;-0.009773843921720982;0.0073303827084600925
01:00:0A:00:00:00:00;1724025729;19/08/24;00:02:09;1.013;-0.017;0.091;0.006108652334660292;-0.012217304669320583;0.0024434609804302454
01:00:0A:00:00:00:00;1724025730;19/08/24;00:02:10;1.015;-0.015;0.088;0.006108652334660292;-0.012217304669320583;0.0024434609804302454
01:00:0A:00:00:00:00;1724025731;19/08/24;00:02:11;1.015;-0.016;0.089;0.0036651913542300463;-0.009773843921720982;0.006108652334660292
01:00:0A:00:00:00:00;1724025732;19/08/24;00:02:12;1.014;-0.017;0.09;0.006108652334660292;-0.012217304669320583;0.0012217304902151227
01:00:0A:00:00:00:00;1724025733;19/08/24;00:02:13;1.014;-0.014;0.089;0.004886921960860491;-0.012217304669320583;0.0024434609804302454
01:00:0A:00:00:00:00;1724025734;19/08/24;00:02:14;1.014;-0.016;0.09;0.0036651913542300463;-0.010995574295520782;0.006108652334660292
01:00:0A:00:00:00:00;1724025735;19/08/24;00:02:15;1.014;-0.017;0.091;0.004886921960860491;-0.012217304669320583;0.0012217304902151227
01:00:0A:00:00:00:00;1724025736;19/08/24;00:02:16;1.014;-0.015;0.09;0.004886921960860491;-0.012217304669320583;0.0024434609804302454
01:00:0A:00:00:00:00;1724025737;19/08/24;00:02:17;1.014;-0.017;0.089;0.004886921960860491;-0.009773843921720982;0.006108652334660292
01:00:0A:00:00:00:00;1724025738;19/08/24;00:02:18;1.014;-0.016;0.092;0.006108652334660292;-0.012217304669320583;0.0012217304902151227
01:00:0A:00:00:00:00;1724025739;19/08/24;00:02:19;1.014;-0.015;0.088;0.004886921960860491;-0.012217304669320583;0.0036651913542300463
01:00:0A:00:00:00:00;1724025740;19/08/24;00:02:20;1.015;-0.018;0.09;0.004886921960860491;-0.00855211354792118;0.00855211354792118
01:00:0A:00:00:00:00;1724025741;19/08/24;00:02:21;1.013;-0.021;0.092;0.010995574295520782;-0.010995574295520782;0.0036651913542300463
01:00:0A:00:00:00:00;1724025742;19/08/24;00:02:22;1.014;-0.016;0.089;0.014660765416920185;-0.014660765416920185;-0.0024434609804302454
01:00:0A:00:00:00:00;1724025743;19/08/24;00:02:23;1.015;-0.013;0.089;0.012217304669320583;-0.010995574295520782;0.004886921960860491
01:00:0A:00:00:00:00;1724025744;19/08/24;00:02:24;1.014;-0.018;0.091;0.010995574295520782;-0.009773843921720982;0.00855211354792118
01:00:0A:00:00:00:00;1724025745;19/08/24;00:02:25;1.013;-0.016;0.089;0.013439035043120384;-0.014660765416920185;-0.0012217304902151227
01:00:0A:00:00:00:00;1724025746;19/08/24;00:02:26;1.013;-0.015;0.09;0.010995574295520782;-0.010995574295520782;0.004886921960860491
01:00:0A:00:00:00:00;1724025747;19/08/24;00:02:27;1.013;-0.018;0.09;0.010995574295520782;-0.009773843921720982;0.0073303827084600925
01:00:0A:00:00:00:00;1724025748;19/08/24;00:02:28;1.014;-0.017;0.09;0.012217304669320583;-0.013439035043120384;-0.0012217304902151227
01:00:0A:00:00:00:00;1724025749;19/08/24;00:02:29;1.015;-0.014;0.088;0.009773843921720982;-0.009773843921720982;0.006108652334660292
01:00:0A:00:00:00:00;1724025750;19/08/24;00:02:30;1.014;-0.019;0.092;0.009773843921720982;-0.009773843921720982;0.006108652334660292
01:00:0A:00:00:00:00;1724025751;19/08/24;00:02:31;1.015;-0.016;0.09;0.012217304669320583;-0.013439035043120384;0.0
01:00:0A:00:00:00:00;1724025752;19/08/24;00:02:32;1.015;-0.014;0.089;0.009773843921720982;-0.009773843921720982;0.0073303827084600925
01:00:0A:00:00:00:00;1724025753;19/08/24;00:02:33;1.014;-0.018;0.091;0.009773843921720982;-0.010995574295520782;0.004886921960860491
01:00:0A:00:00:00:00;1724025754;19/08/24;00:02:34;1.013;-0.015;0.089;0.010995574295520782;-0.013439035043120384;0.0
01:00:0A:00:00:00:00;1724025755;19/08/24;00:02:35;1.014;-0.015;0.089;0.009773843921720982;-0.009773843921720982;0.006108652334660292
01:00:0A:00:00:00:00;1724025756;19/08/24;00:02:36;1.013;-0.018;0.091;0.009773843921720982;-0.010995574295520782;0.004886921960860491
01:00:0A:00:00:00:00;1724025757;19/08/24;00:02:37;1.014;-0.016;0.09;0.010995574295520782;-0.013439035043120384;0.0012217304902151227
01:00:0A:00:00:00:00;1724025758;19/08/24;00:02:38;1.015;-0.016;0.089;0.009773843921720982;-0.009773843921720982;0.006108652334660292
01:00:0A:00:00:00:00;1724025759;19/08/24;00:02:39;1.014;-0.018;0.09;0.009773843921720982;-0.010995574295520782;0.004886921960860491
01:00:0A:00:00:00:00;1724025760;19/08/24;00:02:40;1.014;-0.015;0.089;0.010995574295520782;-0.013439035043120384;0.0012217304902151227
01:00:0A:00:00:00:00;1724025761;19/08/24;00:02:41;1.014;-0.016;0.089;0.009773843921720982;-0.009773843921720982;0.006108652334660292
01:00:0A:00:00:00:00;1724025762;19/08/24;00:02:42;1.015;-0.018;0.091;0.009773843921720982;-0.010995574295520782;0.0036651913542300463
01:00:0A:00:00:00:00;1724025763;19/08/24;00:02:43;1.014;-0.015;0.088;0.010995574295520782;-0.012217304669320583;0.0024434609804302454
01:00:0A:00:00:00:00;1724025764;19/08/24;00:02:44;1.013;-0.016;0.091;0.009773843921720982;-0.00855211354792118;0.0073303827084600925
01:00:0A:00:00:00:00;1724025765;19/08/24;00:02:45;1.014;-0.018;0.091;0.010995574295520782;-0.013439035043120384;0.0024434609804302454
01:00:0A:00:00:00:00;1724025766;19/08/24;00:02:46;1.013;-0.016;0.09;0.010995574295520782;-0.010995574295520782;0.0036651913542300463
01:00:0A:00:00:00:00;1724025767;19/08/24;00:02:47;1.013;-0.017;0.092;0.012217304669320583;-0.009773843921720982;0.006108652334660292
01:00:0A:00:00:00:00;1724025768;19/08/24;00:02:48;1.014;-0.018;0.092;0.014660765416920185;-0.012217304669320583;0.0036651913542300463
01:00:0A:00:00:00:00;1724025769;19/08/24;00:02:49;1.014;-0.016;0.09;0.014660765416920185;-0.014660765416920185;0.0012217304902151227
01:00:0A:00:00:00:00;1724025770;19/08/24;00:02:50;1.014;-0.015;0.088;0.013439035043120384;-0.009773843921720982;0.006108652334660292
01:00:0A:00:00:00:00;1724025771;19/08/24;00:02:51;1.015;-0.018;0.091;0.013439035043120384;-0.009773843921720982;0.004886921960860491
01:00:0A:00:00:00:00;1724025772;19/08/24;00:02:52;1.015;-0.015;0.09;0.013439035043120384;-0.014660765416920185;0.0012217304902151227
01:00:0A:00:00:00:00;1724025773;19/08/24;00:02:53;1.014;-0.015;0.089;0.013439035043120384;-0.009773843921720982;0.006108652334660292
01:00:0A:00:00:00:00;1724025774;19/08/24;00:02:54;1.014;-0.017;0.091;0.013439035043120384;-0.009773843921720982;0.0036651913542300463
01:00:0A:00:00:00:00;1724025775;19/08/24;00:02:55;1.015;-0.015;0.09;0.013439035043120384;-0.014660765416920185;0.0024434609804302454
01:00:0A:00:00:00:00;1724025776;19/08/24;00:02:56;1.014;-0.016;0.089;0.012217304669320583;-0.009773843921720982;0.006108652334660292
01:00:0A:00:00:00:00;1724025777;19/08/24;00:02:57;1.013;-0.016;0.091;0.012217304669320583;-0.010995574295520782;0.0036651913542300463
01:00:0A:00:00:00:00;1724025778;19/08/24;00:02:58;1.014;-0.015;0.089;0.012217304669320583;-0.013439035043120384;0.0024434609804302454
01:00:0A:00:00:00:00;1724025779;19/08/24;00:02:59;1.015;-0.016;0.089;0.012217304669320583;-0.009773843921720982;0.006108652334660292
01:00:0A:00:00:00:00;1724025780;19/08/24;00:03:00;1.014;-0.017;0.091;0.012217304669320583;-0.012217304669320583;0.0036651913542300463
01:00:0A:00:00:00:00;1724025781;19/08/24;00:03:01;1.014;-0.016;0.089;0.012217304669320583;-0.013439035043120384;0.0024434609804302454
01:00:0A:00:00:00:00;1724025782;19/08/24;00:03:02;1.014;-0.015;0.09;0.012217304669320583;-0.009773843921720982;0.006108652334660292
01:00:0A:00:00:00:00;1724025783;19/08/24;00:03:03;1.015;-0.017;0.092;0.012217304669320583;-0.010995574295520782;0.0036651913542300463
01:00:0A:00:00:00:00;1724025784;19/08/24;00:03:04;1.014;-0.015;0.09;0.012217304669320583;-0.013439035043120384;0.0024434609804302454
01:00:0A:00:00:00:00;1724025785;19/08/24;00:03:05;1.015;-0.017;0.09;0.010995574295520782;-0.009773843921720982;0.004886921960860491
01:00:0A:00:00:00:00;1724025786;19/08/24;00:03:06;1.014;-0.016;0.09;0.012217304669320583;-0.012217304669320583;0.0024434609804302454
01:00:0A:00:00:00:00;1724025787;19/08/24;00:03:07;1.014;-0.016;0.088;0.010995574295520782;-0.012217304669320583;0.0036651913542300463
01:00:0A:00:00:00:00;1724025788;19/08/24;00:03:08;1.014;-0.016;0.09;0.010995574295520782;-0.009773843921720982;0.004886921960860491
01:00:0A:00:00:00:00;1724025789;19/08/24;00:03:09;1.014;-0.015;0.091;0.010995574295520782;-0.012217304669320583;0.0036651913542300463
01:00:0A:00:00:00:00;1724025790;19/08/24;00:03:10;1.015;-0.016;0.089;0.010995574295520782;-0.012217304669320583;0.0036651913542300463
01:00:0A:00:00:00:00;1724025791;19/08/24;00:03:11;1.014;-0.018;0.092;0.010995574295520782;-0.009773843921720982;0.004886921960860491
01:00:0A:00:00:00:00;1724025792;19/08/24;00:03:12;1.014;-0.017;0.091;0.012217304669320583;-0.013439035043120384;0.0024434609804302454
01:00:0A:00:00:00:00;1724025793;19/08/24;00:03:13;1.014;-0.016;0.089;0.012217304669320583;-0.013439035043120384;0.0036651913542300463
01:00:0A:00:00:00:00;1724025794;19/08/24;00:03:14;1.014;-0.017;0.089;0.012217304669320583;-0.009773843921720982;0.004886921960860491
01:00:0A:00:00:00:00;1724025795;19/08/24;00:03:15;1.013;-0.018;0.092;0.012217304669320583;-0.009773843921720982;0.004886921960860491
01:00:0A:00:00:00:00;1724025796;19/08/24;00:03:16;1.013;-0.017;0.09;0.013439035043120384;-0.013439035043120384;0.0012217304902151227
01:00:0A:00:00:00:00;1724025797;19/08/24;00:03:17;1.014;-0.015;0.088;0.013439035043120384;-0.012217304669320583;0.0036651913542300463
01:00:0A:00:00:00:00;1724025798;19/08/24;00:03:18;1.014;-0.018;0.09;0.012217304669320583;-0.00855211354792118;0.006108652334660292
01:00:0A:00:00:00:00;1724025799;19/08/24;00:03:19;1.014;-0.018;0.091;0.013439035043120384;-0.013439035043120384;0.0024434609804302454
01:00:0A:00:00:00:00;1724025800;19/08/24;00:03:20;1.014;-0.016;0.088;0.012217304669320583;-0.012217304669320583;0.0036651913542300463
01:00:0A:00:00:00:00;1724025801;19/08/24;00:03:21;1.013;-0.016;0.09;0.012217304669320583;-0.00855211354792118;0.006108652334660292
01:00:0A:00:00:00:00;1724025802;19/08/24;00:03:22;1.015;-0.016;0.091;0.012217304669320583;-0.013439035043120384;0.0024434609804302454
01:00:0A:00:00:00:00;1724025803;19/08/24;00:03:23;1.014;-0.016;0.088;0.012217304669320583;-0.010995574295520782;0.004886921960860491
01:00:0A:00:00:00:00;1724025804;19/08/24;00:03:24;1.014;-0.016;0.09;0.012217304669320583;-0.009773843921720982;0.004886921960860491
01:00:0A:00:00:00:00;1724025805;19/08/24;00:03:25;1.014;-0.016;0.09;0.012217304669320583;-0.013439035043120384;0.0024434609804302454
01:00:0A:00:00:00:00;1724025806;19/08/24;00:03:26;1.014;-0.015;0.09;0.012217304669320583;-0.010995574295520782;0.0036651913542300463
01:00:0A:00:00:00:00;1724025807;19/08/24;00:03:27;1.014;-0.016;0.09;0.012217304669320583;-0.010995574295520782;0.0036651913542300463
01:00:0A:00:00:00:00;1724025808;19/08/24;00:03:28;1.014;-0.016;0.091;0.012217304669320583;-0.009773843921720982;0.006108652334660292
01:00:0A:00:00:00:00;1724025809;19/08/24;00:03:29;1.013;-0.019;0.091;0.013439035043120384;-0.012217304669320583;0.0036651913542300463
01:00:0A:00:00:00:00;1724025810;19/08/24;00:03:30;1.013;-0.016;0.088;0.014660765416920185;-0.014660765416920185;0.0012217304902151227
01:00:0A:00:00:00:00;1724025811;19/08/24;00:03:31;1.014;-0.015;0.088;0.013439035043120384;-0.009773843921720982;0.004886921960860491
01:00:0A:00:00:00:00;1724025812;19/08/24;00:03:32;1.014;-0.017;0.091;0.013439035043120384;-0.010995574295520782;0.004886921960860491
01:00:0A:00:00:00:00;1724025813;19/08/24;00:03:33;1.015;-0.016;0.09;0.013439035043120384;-0.014660765416920185;0.0012217304902151227
01:00:0A:00:00:00:00;1724025814;19/08/24;00:03:34;1.015;-0.015;0.089;0.012217304669320583;-0.00855211354792118;0.004886921960860491
01:00:0A:00:00:00:00;1724025815;19/08/24;00:03:35;1.015;-0.017;0.092;0.012217304669320583;-0.010995574295520782;0.004886921960860491
01:00:0A:00:00:00:00;1724025816;19/08/24;00:03:36;1.014;-0.014;0.089;0.013439035043120384;-0.013439035043120384;0.0012217304902151227
01:00:0A:00:00:00:00;1724025817;19/08/24;00:03:37;1.015;-0.015;0.089;0.012217304669320583;-0.009773843921720982;0.006108652334660292
01:00:0A:00:00:00:00;1724025818;19/08/24;00:03:38;1.014;-0.018;0.091;0.012217304669320583;-0.010995574295520782;0.0036651913542300463
01:00:0A:00:00:00:00;1724025819;19/08/24;00:03:39;1.013;-0.016;0.089;0.012217304669320583;-0.013439035043120384;0.0024434609804302454
01:00:0A:00:00:00:00;1724025820;19/08/24;00:03:40;1.015;-0.016;0.089;0.012217304669320583;-0.009773843921720982;0.004886921960860491
01:00:0A:00:00:00:00;1724025821;19/08/24;00:03:41;1.014;-0.017;0.091;0.012217304669320583;-0.012217304669320583;0.0036651913542300463
01:00:0A:00:00:00:00;1724025822;19/08/24;00:03:42;1.014;-0.015;0.091;0.012217304669320583;-0.00855211354792118;0.004886921960860491
01:00:0A:00:00:00:00;1724025823;19/08/24;00:03:43;1.015;-0.018;0.092;0.012217304669320583;-0.012217304669320583;0.0036651913542300463
01:00:0A:00:00:00:00;1724025824;19/08/24;00:03:44;1.015;-0.016;0.089;0.013439035043120384;-0.013439035043120384;0.0024434609804302454
01:00:0A:00:00:00:00;1724025825;19/08/24;00:03:45;1.054;0.0;0.087;0.013439035043120384;-0.33719760179519653;-0.15027284622192383
01:00:0A:00:00:00:00;1724025826;19/08/24;00:03:46;0.972;-0.037;-0.177;0.07819075137376785;-0.10751228034496307;0.2626720666885376
01:00:0A:00:00:00:00;1724025827;19/08/24;00:03:47;0.994;-0.111;0.293;-0.0012217304902151227;0.6829473376274109;0.02076941914856434
01:00:0A:00:00:00:00;1724025828;19/08/24;00:03:48;0.982;-0.123;0.316;-0.19303341209888458;-1.604132056236267;-0.40194931626319885
01:00:0A:00:00:00:00;1724025829;19/08/24;00:03:49;0.893;-0.06;-0.302;0.015882495790719986;0.10018189996480942;0.41172316670417786
01:00:0A:00:00:00:00;1724025830;19/08/24;00:03:50;1.025;-0.03;0.328;-0.0036651913542300463;0.5632177591323853;0.10262535512447357
01:00:0A:00:00:00:00;1724025831;19/08/24;00:03:51;1.048;-0.077;0.354;-0.47280970215797424;-0.2834414541721344;-0.5192354917526245
01:00:0A:00:00:00:00;1724025832;19/08/24;00:03:52;0.991;-0.11;0.0;-2.1038198471069336;-0.4141666293144226;-0.2822197377681732
01:00:0A:00:00:00:00;1724025833;19/08/24;00:03:53;0.838;-0.046;0.413;-2.107485055923462;0.25534167885780334;-0.5070181488990784
01:00:0A:00:00:00:00;1724025834;19/08/24;00:03:54;0.981;0.026;0.128;-2.079385280609131;-0.2370157092809677;-0.8686503767967224
01:00:0A:00:00:00:00;1724025835;19/08/24;00:03:55;0.882;-0.43;0.293;-2.0977110862731934;-0.45204028487205505;0.6487389206886292
01:00:0A:00:00:00:00;1724025836;19/08/24;00:03:56;0.972;0.422;0.333;-1.1582003831863403;0.8136724829673767;-0.05497787147760391
01:00:0A:00:00:00:00;1724025837;19/08/24;00:03:57;0.98;-0.288;-0.165;-0.2223549485206604;1.3927726745605469;-0.40683624148368835
01:00:0A:00:00:00:00;1724025833;19/08/24;00:03:53;0.894;-0.016;0.444;-0.46670106053352356;-0.32131510972976685;-0.2272418737411499
01:00:0A:00:00:00:00;1724025834;19/08/24;00:03:54;1.022;-0.136;-0.177;-0.8234463334083557;-0.9248499870300293;0.8307767510414124
01:00:0A:00:00:00:00;1724025835;19/08/24;00:03:55;0.915;-0.561;-0.007;-0.07330382615327835;1.4306464195251465;-0.8613200187683105
01:00:0A:00:00:00:00;1724025836;19/08/24;00:03:56;0.902;0.377;0.244;-0.5241223573684692;-0.3274237811565399;-0.18814648687839508
01:00:0A:00:00:00:00;1724025837;19/08/24;00:03:57;0.947;-0.048;-0.131;-1.1691960096359253;-0.6377432942390442;1.3903292417526245
01:00:0A:00:00:00:00;1724025838;19/08/24;00:03:58;0.875;-0.446;-0.15;-0.43249258399009705;0.4862487316131592;0.26511549949645996
01:00:0A:00:00:00:00;1724025839;19/08/24;00:03:59;0.956;0.112;0.343;-0.1918116807937622;0.2565633952617645;-0.6304128766059875
01:00:0A:00:00:00:00;1724025840;19/08/24;00:04:00;1.005;0.17;0.233;-0.6597344279289246;-1.1594222784042358;-0.00855211354792118
01:00:0A:00:00:00:00;1724025841;19/08/24;00:04:01;0.986;0.161;-0.275;-0.7293730974197388;0.11972958594560623;0.14538592100143433
01:00:0A:00:00:00:00;1724025842;19/08/24;00:04:02;0.972;0.15;0.181;-0.76846843957901;-0.19303341209888458;0.2577851116657257
01:00:0A:00:00:00:00;1724025843;19/08/24;00:04:03;0.999;0.152;-0.013;-0.656069278717041;0.1417207270860672;0.17592918872833252
01:00:0A:00:00:00:00;1724025844;19/08/24;00:04:04;1.003;-0.109;-0.069;-0.5216788649559021;-0.018325956538319588;0.3591887652873993
01:00:0A:00:00:00:00;1724025845;19/08/24;00:04:05;0.832;-0.232;0.74;-0.06963863223791122;1.1239920854568481;-0.5473352670669556
01:00:0A:00:00:00:00;1724025846;19/08/24;00:04:06;1.042;-0.173;-0.107;-0.33719760179519653;-0.26022857427597046;-0.2919935882091522
01:00:0A:00:00:00:00;1724025847;19/08/24;00:04:07;0.908;0.252;0.354;-0.46547931432724;0.39584067463874817;0.16249015927314758
01:00:0A:00:00:00:00;1724025848;19/08/24;00:04:08;1.0;-0.116;-0.117;-0.37262779474258423;-0.6939429044723511;-0.46181410551071167
01:00:0A:00:00:00:00;1724025849;19/08/24;00:04:09;0.901;0.42;0.091;-0.43249258399009705;0.6438519358634949;0.1368338167667389
01:00:0A:00:00:00:00;1724025850;19/08/24;00:04:10;0.912;-0.336;-0.272;-0.33964109420776367;-0.6291911602020264;0.35674530267715454
01:00:0A:00:00:00:00;1724025851;19/08/24;00:04:11;0.967;-0.166;-0.247;0.31031954288482666;0.8991935849189758;-0.13072516024112701
01:00:0A:00:00:00:00;1724025852;19/08/24;00:04:12;0.724;0.051;0.584;0.1270599663257599;0.3237585723400116;0.17470745742321014
01:00:0A:00:00:00:00;1724025853;19/08/24;00:04:13;0.973;0.106;-0.274;-0.3152064383029938;-1.644449234008789;0.036651913076639175
01:00:0A:00:00:00:00;1724025854;19/08/24;00:04:14;0.635;-0.065;-0.764;-0.8002334833145142;-0.024434609338641167;1.2803735733032227
01:00:0A:00:00:00:00;1724025855;19/08/24;00:04:15;0.909;-0.534;0.462;-0.16004669666290283;1.1288789510726929;0.3885102868080139
01:00:0A:00:00:00:00;1724025856;19/08/24;00:04:16;0.855;0.32;0.228;-1.5784757137298584;-1.5063936710357666;-0.38240164518356323
01:00:0A:00:00:00:00;1724025857;19/08/24;00:04:17;0.942;-0.187;-0.201;-1.9901989698410034;-0.5351179242134094;0.8747590184211731
01:00:0A:00:00:00:00;1724025858;19/08/24;00:04:18;0.889;-0.001;0.204;-0.2272418737411499;0.2736676335334778;0.21991148591041565
01:00:0A:00:00:00:00;1724025859;19/08/24;00:04:19;0.939;0.124;0.143;-0.1514945775270462;-0.8026769161224365;-1.038470983505249
01:00:0A:00:00:00:00;1724025860;19/08/24;00:04:20;0.96;0.207;-0.016;-0.797789990901947;-0.2272418737411499;0.7232644557952881
01:00:0A:00:00:00:00;1724025861;19/08/24;00:04:21;0.899;-0.252;-0.227;-0.5497786998748779;-0.34208452701568604;0.48258352279663086
01:00:0A:00:00:00:00;1724025862;19/08/24;00:04:22;0.976;-0.11;0.253;-0.16493360698223114;0.6658430695533752;-0.8600982427597046
01:00:0A:00:00:00:00;1724025863;19/08/24;00:04:23;0.723;0.316;0.558;-1.7482962608337402;-1.0873401165008545;-1.1398744583129883
01:00:0A:00:00:00:00;1724025864;19/08/24;00:04:24;0.885;-0.104;0.485;-2.2992966175079346;0.901637077331543;-0.12828169763088226
01:00:0A:00:00:00:00;1724025865;19/08/24;00:04:25;0.987;0.315;0.38;-2.0231857299804688;0.18814648687839508;-0.8478808999061584
01:00:0A:00:00:00:00;1724025866;19/08/24;00:04:26;1.068;-0.068;-0.168;-1.9901989698410034;-0.39217546582221985;0.1563815027475357
01:00:0A:00:00:00:00;1724025867;19/08/24;00:04:27;1.043;-0.066;0.063;-1.067792534828186;0.1111774742603302;0.6414085030555725
01:00:0A:00:00:00:00;1724025868;19/08/24;00:04:28;0.936;-0.135;-0.371;-0.5754350423812866;-0.313984751701355;0.588874101638794
01:00:0A:00:00:00:00;1724025869;19/08/24;00:04:29;0.821;-0.507;0.343;0.25534167885780334;1.3781119585037231;-0.14538592100143433
01:00:0A:00:00:00:00;1724025870;19/08/24;00:04:30;0.885;-0.178;0.51;0.17837265133857727;-0.24678954482078552;-0.2981022298336029
01:00:0A:00:00:00:00;1724025871;19/08/24;00:04:31;1.015;0.147;-0.025;-0.14538592100143433;-0.3897320330142975;-0.29688048362731934
01:00:0A:00:00:00:00;1724025872;19/08/24;00:04:32;0.838;0.533;-0.048;-1.8606956005096436;-0.8979718685150146;-0.019547687843441963
01:00:0A:00:00:00:00;1724025873;19/08/24;00:04:33;0.937;0.343;-0.026;-2.37626576423645;-1.301142930984497;0.8454375267028809
01:00:0A:00:00:00:00;1724025874;19/08/24;00:04:34;1.017;0.019;0.086;-2.403143882751465;0.0073303827084600925;1.1032226085662842
01:00:0A:00:00:00:00;1724025875;19/08/24;00:04:35;0.832;-0.112;-0.467;-1.6029103994369507;-0.44348815083503723;0.6658430695533752
01:00:0A:00:00:00:00;1724025876;19/08/24;00:04:36;0.894;-0.358;0.187;-2.6670374870300293;0.929736852645874;-1.9523253440856934
01:00:0A:00:00:00:00;1724025877;19/08/24;00:04:37;0.936;0.083;0.185;-2.9944615364074707;-0.5644394755363464;-1.0946705341339111
01:00:0A:00:00:00:00;1724025878;19/08/24;00:04:38;0.811;-0.192;0.519;-2.1502456665039062;0.10018189996480942;-1.527163028717041
01:00:0A:00:00:00:00;1724025879;19/08/24;00:04:39;0.934;0.082;0.33;-2.7269022464752197;-0.779464066028595;-1.4587461948394775
01:00:0A:00:00:00:00;1724025880;19/08/24;00:04:40;0.953;-0.342;-0.12;-1.5137239694595337;-0.251676470041275;1.1679743528366089
01:00:0A:00:00:00:00;1724025881;19/08/24;00:04:41;0.953;0.051;0.098;0.4495967924594879;0.7073819637298584;-0.8222246170043945
01:00:0A:00:00:00:00;1724025882;19/08/24;00:04:42;0.898;-0.4;0.209;0.03176499158143997;-0.4911356568336487;-0.34208452701568604
01:00:0A:00:00:00:00;1724025883;19/08/24;00:04:43;0.963;-0.417;-0.025;-0.33964109420776367;-0.42271876335144043;-0.03176499158143997
01:00:0A:00:00:00:00;1724025884;19/08/24;00:04:44;0.969;-0.186;0.329;-1.4563027620315552;-0.12828169763088226;-0.7953465580940247
01:00:0A:00:00:00:00;1724025885;19/08/24;00:04:45;0.989;0.119;0.141;-2.470339059829712;-0.6695082783699036;-0.21991148591041565
01:00:0A:00:00:00:00;1724025886;19/08/24;00:04:46;0.909;-0.373;0.507;-2.1087067127227783;0.1820378452539444;0.07208210229873657
01:00:0A:00:00:00:00;1724025887;19/08/24;00:04:47;1.037;-0.252;0.233;-1.655444860458374;0.5595525503158569;0.2932153046131134
01:00:0A:00:00:00:00;1724025888;19/08/24;00:04:48;1.012;0.081;0.288;-2.580294609069824;-0.02321287989616394;-0.49846604466438293
01:00:0A:00:00:00:00;1724025889;19/08/24;00:04:49;1.044;0.022;0.022;-1.7825047969818115;-0.015882495790719986;-0.05864306166768074
01:00:0A:00:00:00:00;1724025890;19/08/24;00:04:50;1.009;-0.068;0.102;-1.6859880685806274;-0.26022857427597046;-0.10384709388017654
01:00:0A:00:00:00:00;1724025891;19/08/24;00:04:51;0.909;-0.207;0.491;-1.2889256477355957;1.0812314748764038;-0.7819074988365173
01:00:0A:00:00:00:00;1724025892;19/08/24;00:04:52;1.015;0.017;0.181;-1.8448129892349243;-0.06108652427792549;-0.6780604124069214
01:00:0A:00:00:00:00;1724025893;19/08/24;00:04:53;0.978;0.056;-0.194;-2.348165988922119;0.2382374405860901;0.051312677562236786
01:00:0A:00:00:00:00;1724025894;19/08/24;00:04:54;0.99;-0.294;-0.05;-2.274862051010132;0.5082398653030396;0.33108896017074585
01:00:0A:00:00:00:00;1724025895;19/08/24;00:04:55;0.859;-0.604;0.104;-1.3976596593856812;1.3463469743728638;0.4337143301963806
01:00:0A:00:00:00:00;1724025896;19/08/24;00:04:56;0.932;0.203;0.523;-1.3158037662506104;-0.05009094998240471;-1.379333734512329
01:00:0A:00:00:00:00;1724025897;19/08/24;00:04:57;1.117;-0.024;-0.067;-1.3145819902420044;-0.27977627515792847;-0.27000245451927185
01:00:0A:00:00:00:00;1724025898;19/08/24;00:04:58;1.04;0.163;0.136;-1.0067058801651;-0.6572909951210022;0.3701843321323395
01:00:0A:00:00:00:00;1724025899;19/08/24;00:04:59;0.923;0.217;-0.362;-2.0024163722991943;-0.21624629199504852;0.9847148060798645
01:00:0A:00:00:00:00;1724025900;19/08/24;00:05:00;0.901;-0.538;-0.119;-1.4098769426345825;0.6548475623130798;0.6304128766059875
01:00:0A:00:00:00:00;1724025901;19/08/24;00:05:01;0.808;-0.376;0.464;-0.7599163055419922;0.5229006409645081;-1.0775662660598755
01:00:0A:00:00:00:00;1724025902;19/08/24;00:05:02;0.825;0.326;0.11;-2.1734585762023926;-1.7690656185150146;0.7330382466316223
01:00:0A:00:00:00:00;1724025903;19/08/24;00:05:03;0.822;0.34;-0.348;-2.580294609069824;-0.8283332586288452;0.8674286603927612
01:00:0A:00:00:00:00;1724025904;19/08/24;00:05:04;1.056;0.089;-0.022;-1.2693779468536377;0.6768386960029602;0.06963863223791122
01:00:0A:00:00:00:00;1724025905;19/08/24;00:05:05;0.99;-0.454;0.098;-2.230879783630371;0.1014036238193512;-0.3152064383029938
01:00:0A:00:00:00:00;1724025906;19/08/24;00:05:06;1.008;0.018;0.366;-1.8301522731781006;-0.26022857427597046;-0.1722639948129654
01:00:0A:00:00:00:00;1724025907;19/08/24;00:05:07;0.881;0.359;0.024;-2.1624629497528076;-2.0280725955963135;-0.8747590184211731
01:00:0A:00:00:00:00;1724025908;19/08/24;00:05:08;0.725;-0.499;-0.517;-0.8197811245918274;0.8930849432945251;1.6615535020828247
01:00:0A:00:00:00:00;1724025909;19/08/24;00:05:09;0.895;-0.134;0.543;-0.6756169199943542;0.5326744914054871;-1.969429612159729
01:00:0A:00:00:00:00;1724025910;19/08/24;00:05:10;0.79;0.608;-0.334;-1.605353832244873;-1.2327260971069336;0.3066543638706207
01:00:0A:00:00:00:00;1724025911;19/08/24;00:05:11;1.049;-0.066;-0.073;-1.529606580734253;-0.1014036238193512;-1.4624114036560059
01:00:0A:00:00:00:00;1724025912;19/08/24;00:05:12;0.893;0.255;0.389;-1.6774358749389648;-2.0891592502593994;-0.09529497474431992
01:00:0A:00:00:00:00;1724025913;19/08/24;00:05:13;0.877;0.427;0.263;-0.5681046843528748;0.7635815143585205;-0.8955284357070923
01:00:0A:00:00:00:00;1724025914;19/08/24;00:05:14;0.733;0.217;0.746;0.2871066629886627;0.0036651913542300463;-0.024434609338641167
01:00:0A:00:00:00:00;1724025915;19/08/24;00:05:15;0.992;0.328;0.072;-1.2217304706573486;-0.48258352279663086;0.07819075137376785
01:00:0A:00:00:00:00;1724025916;19/08/24;00:05:16;0.992;-0.097;-0.119;-1.93766450881958;0.32620203495025635;0.5473352670669556
01:00:0A:00:00:00:00;1724025917;19/08/24;00:05:17;0.988;-0.261;-0.019;-1.3964378833770752;0.294437050819397;-0.161268413066864
01:00:0A:00:00:00:00;1724025918;19/08/24;00:05:18;0.811;0.638;0.2;-0.6658430695533752;-0.4899139106273651;-0.1869247555732727
01:00:0A:00:00:00:00;1724025919;19/08/24;00:05:19;0.722;0.386;0.54;-1.7116444110870361;-0.8234463334083557;-0.3237585723400116
01:00:0A:00:00:00:00;1724025920;19/08/24;00:05:20;0.957;0.226;0.182;-2.0170769691467285;-1.1911872625350952;-0.7464773058891296
01:00:0A:00:00:00:00;1724025921;19/08/24;00:05:21;0.964;0.24;0.038;-2.7317893505096436;-0.921184778213501;0.13072516024112701
01:00:0A:00:00:00:00;1724025922;19/08/24;00:05:22;0.95;0.085;-0.194;-2.434908866882324;-0.22846359014511108;0.5106833577156067
01:00:0A:00:00:00:00;1724025923;19/08/24;00:05:23;0.852;-0.132;-0.382;-1.9804250001907349;-0.656069278717041;1.0958921909332275
01:00:0A:00:00:00:00;1724025924;19/08/24;00:05:24;1.04;-0.088;0.227;-0.7513642311096191;0.8845328092575073;-0.7049384713172913
01:00:0A:00:00:00:00;1724025925;19/08/24;00:05:25;1.008;0.197;-0.107;-1.7128660678863525;-0.960280179977417;1.252273678779602
01:00:0A:00:00:00:00;1724025926;19/08/24;00:05:26;0.921;-0.002;0.493;-2.1111502647399902;-0.16982054710388184;-0.5387831330299377
01:00:0A:00:00:00:00;1724025927;19/08/24;00:05:27;1.038;-0.076;-0.108;-1.9633208513259888;0.1966986060142517;-0.2590068578720093
01:00:0A:00:00:00:00;1724025928;19/08/24;00:05:28;0.975;-0.134;0.494;-1.8264870643615723;0.34208452701568604;-1.0225883722305298
01:00:0A:00:00:00:00;1724025929;19/08/24;00:05:29;1.048;-0.397;0.0;-1.145983099937439;0.8197811245918274;0.8136724829673767
01:00:0A:00:00:00:00;1724025930;19/08/24;00:05:30;0.907;-0.466;0.036;-1.9437731504440308;0.9627236127853394;0.30543261766433716
01:00:0A:00:00:00:00;1724025931;19/08/24;00:05:31;0.779;-0.619;0.367;-1.8191566467285156;1.4660764932632446;-0.8148941993713379
01:00:0A:00:00:00:00;1724025932;19/08/24;00:05:32;0.893;0.289;0.394;-2.043955087661743;-1.4282028675079346;-0.375071257352829
01:00:0A:00:00:00:00;1724025933;19/08/24;00:05:33;0.94;0.108;0.204;-0.2919935882091522;0.7574728727340698;-1.8008307218551636
01:00:0A:00:00:00:00;1724025934;19/08/24;00:05:34;0.917;-0.534;-0.112;0.8735373020172119;1.6969836950302124;0.21991148591041565
01:00:0A:00:00:00:00;1724025935;19/08/24;00:05:35;0.876;-0.424;-0.379;-0.8124507665634155;1.792278528213501;0.08674286305904388
01:00:0A:00:00:00:00;1724025936;19/08/24;00:05:36;0.758;0.167;0.635;-1.500285029411316;-0.6719517707824707;-0.8979718685150146
01:00:0A:00:00:00:00;1724025937;19/08/24;00:05:37;0.963;0.045;-0.121;-1.6884315013885498;-0.47280970215797424;0.6682865619659424
01:00:0A:00:00:00:00;1724025938;19/08/24;00:05:38;1.011;-0.19;0.028;-1.0470229387283325;1.2986994981765747;0.0073303827084600925
01:00:0A:00:00:00:00;1724025939;19/08/24;00:05:39;0.894;-0.018;0.435;-1.3145819902420044;-0.0708603635430336;-0.7415903806686401
01:00:0A:00:00:00:00;1724025940;19/08/24;00:05:40;0.96;-0.04;0.234;-1.633453607559204;0.06108652427792549;-0.3787364363670349
01:00:0A:00:00:00:00;1724025941;19/08/24;00:05:41;0.947;-0.334;0.049;-1.5222761631011963;-0.015882495790719986;-0.4043927788734436
01:00:0A:00:00:00:00;1724025942;19/08/24;00:05:42;1.038;0.054;0.113;-1.1362093687057495;0.09773843735456467;-0.19547687470912933
01:00:0A:00:00:00:00;1724025943;19/08/24;00:05:43;1.047;-0.095;0.176;-1.1508700847625732;-0.014660765416920185;-0.00855211354792118
01:00:0A:00:00:00:00;1724025944;19/08/24;00:05:44;1.016;-0.163;-0.071;-0.8454375267028809;-0.03787364438176155;0.06963863223791122
01:00:0A:00:00:00:00;1724025945;19/08/24;00:05:45;0.956;0.001;0.121;-0.5937609672546387;0.34086278080940247;-0.12950342893600464
01:00:0A:00:00:00:00;1724025946;19/08/24;00:05:46;0.956;0.056;0.06;-0.7440338730812073;-0.3445279896259308;-0.22846359014511108
01:00:0A:00:00:00:00;1724025947;19/08/24;00:05:47;0.961;0.129;0.04;-0.6291911602020264;-0.07208210229873657;0.16371189057826996
01:00:0A:00:00:00:00;1724025948;19/08/24;00:05:48;0.977;-0.141;0.052;-0.5571090579032898;0.03298672288656235;0.20891590416431427
01:00:0A:00:00:00:00;1724025949;19/08/24;00:05:49;1.0;-0.087;0.067;-0.25534167885780334;0.24190263450145721;-0.47280970215797424
01:00:0A:00:00:00:00;1724025950;19/08/24;00:05:50;0.958;0.161;0.26;-0.17348572611808777;-0.11484266817569733;-0.07452555745840073
01:00:0A:00:00:00:00;1724025951;19/08/24;00:05:51;0.971;0.19;0.244;-0.3738495111465454;-0.1111774742603302;0.059864792972803116
01:00:0A:00:00:00:00;1724025952;19/08/24;00:05:52;0.993;0.076;0.199;-0.31154125928878784;-0.24678954482078552;0.09285151958465576
01:00:0A:00:00:00:00;1724025953;19/08/24;00:05:53;1.014;-0.06;0.025;-0.21380282938480377;-0.018325956538319588;0.025656338781118393
01:00:0A:00:00:00:00;1724025954;19/08/24;00:05:54;1.011;-0.069;0.126;-0.14294245839118958;0.22113320231437683;-0.09285151958465576
01:00:0A:00:00:00:00;1724025955;19/08/24;00:05:55;1.076;0.02;0.084;-0.2675589621067047;-0.06963863223791122;-0.039095375686883926
01:00:0A:00:00:00:00;1724025956;19/08/24;00:05:56;1.016;-0.104;0.078;-0.5241223573684692;-0.11850785464048386;-0.039095375686883926
01:00:0A:00:00:00:00;1724025957;19/08/24;00:05:57;1.021;0.016;0.085;-0.4092797040939331;0.04764748737215996;-0.1966986060142517
01:00:0A:00:00:00:00;1724025958;19/08/24;00:05:58;1.01;-0.084;0.124;-0.46547931432724;-0.07452555745840073;0.04886921867728233
01:00:0A:00:00:00:00;1724025959;19/08/24;00:05:59;0.995;-0.068;0.032;-0.3701843321323395;-0.04642575979232788;-0.06963863223791122
01:00:0A:00:00:00:00;1724025960;19/08/24;00:06:00;0.996;-0.004;0.106;-0.3323107063770294;0.039095375686883926;-0.014660765416920185
01:00:0A:00:00:00:00;1724025961;19/08/24;00:06:01;1.011;-0.063;0.125;-0.3384193480014801;-0.07819075137376785;-0.04153883829712868
01:00:0A:00:00:00:00;1724025962;19/08/24;00:06:02;1.028;-0.024;0.038;-0.2541199326515198;0.06841690838336945;-0.05009094998240471
01:00:0A:00:00:00:00;1724025963;19/08/24;00:06:03;1.032;-0.021;0.133;-0.2590068578720093;0.08552113175392151;0.03298672288656235
01:00:0A:00:00:00:00;1724025964;19/08/24;00:06:04;1.024;-0.044;0.054;-0.251676470041275;-0.036651913076639175;-0.015882495790719986
01:00:0A:00:00:00:00;1724025965;19/08/24;00:06:05;1.0;0.009;0.07;-0.20891590416431427;0.07208210229873657;-0.0659734457731247
01:00:0A:00:00:00:00;1724025966;19/08/24;00:06:06;0.984;-0.026;0.081;-0.2382374405860901;-0.05742133408784866;0.013439035043120384
01:00:0A:00:00:00:00;1724025967;19/08/24;00:06:07;0.989;-0.04;0.089;-0.1918116807937622;-0.013439035043120384;-0.10018189996480942
01:00:0A:00:00:00:00;1724025968;19/08/24;00:06:08;1.019;-0.027;0.077;-0.1966986060142517;-0.036651913076639175;-0.02932153083384037
01:00:0A:00:00:00:00;1724025969;19/08/24;00:06:09;1.027;-0.033;0.096;-0.20647244155406952;-0.015882495790719986;0.021991148591041565
01:00:0A:00:00:00:00;1724025970;19/08/24;00:06:10;1.037;-0.057;0.1;-0.1771509200334549;-0.006108652334660292;-0.006108652334660292
01:00:0A:00:00:00:00;1724025971;19/08/24;00:06:11;1.031;0.0;0.086;-0.17348572611808777;0.021991148591041565;-0.02321287989616394
01:00:0A:00:00:00:00;1724025972;19/08/24;00:06:12;1.009;-0.057;0.086;-0.18814648687839508;0.0073303827084600925;0.07208210229873657
01:00:0A:00:00:00:00;1724025973;19/08/24;00:06:13;1.006;-0.025;0.081;-0.14416420459747314;-0.01710422709584236;-0.06841690838336945
01:00:0A:00:00:00:00;1724025974;19/08/24;00:06:14;0.998;-0.015;0.102;-0.1576032191514969;-0.0073303827084600925;0.024434609338641167
01:00:0A:00:00:00:00;1724025975;19/08/24;00:06:15;0.997;-0.04;0.092;-0.15882496535778046;-0.04398229718208313;-0.025656338781118393
01:00:0A:00:00:00:00;1724025976;19/08/24;00:06:16;0.996;-0.025;0.077;-0.1319468915462494;0.045204028487205505;0.0036651913542300463
01:00:0A:00:00:00:00;1724025977;19/08/24;00:06:17;1.002;-0.031;0.089;-0.13805554807186127;-0.051312677562236786;0.009773843921720982
01:00:0A:00:00:00:00;1724025978;19/08/24;00:06:18;1.016;-0.02;0.083;-0.11850785464048386;-0.028099799528717995;-0.03787364438176155
01:00:0A:00:00:00:00;1724025979;19/08/24;00:06:19;1.037;-0.024;0.09;-0.10873401165008545;0.012217304669320583;-0.0073303827084600925
01:00:0A:00:00:00:00;1724025980;19/08/24;00:06:20;1.033;-0.003;0.133;-0.14905111491680145;0.05742133408784866;-0.09651670604944229
01:00:0A:00:00:00:00;1724025981;19/08/24;00:06:21;1.02;-0.027;0.093;-0.21380282938480377;-0.04398229718208313;0.012217304669320583
01:00:0A:00:00:00:00;1724025982;19/08/24;00:06:22;1.013;-0.012;0.084;-0.22846359014511108;0.018325956538319588;-0.0024434609804302454
01:00:0A:00:00:00:00;1724025983;19/08/24;00:06:23;1.016;-0.04;0.086;-0.23457224667072296;-0.02687807008624077;0.02687807008624077
01:00:0A:00:00:00:00;1724025984;19/08/24;00:06:24;1.012;-0.031;0.066;-0.19425514340400696;-0.0012217304902151227;-0.028099799528717995
01:00:0A:00:00:00:00;1724025985;19/08/24;00:06:25;0.996;-0.017;0.106;-0.19914205372333527;0.013439035043120384;-0.019547687843441963
01:00:0A:00:00:00:00;1724025986;19/08/24;00:06:26;0.991;-0.037;0.064;-0.22968533635139465;-0.12217304855585098;-0.012217304669320583
01:00:0A:00:00:00:00;1724025987;19/08/24;00:06:27;1.007;-0.032;0.05;-0.161268413066864;0.05619959905743599;-0.042760565876960754
01:00:0A:00:00:00:00;1724025988;19/08/24;00:06:28;1.032;-0.024;0.13;-0.21013763546943665;-0.09896016865968704;-0.012217304669320583
01:00:0A:00:00:00:00;1724025989;19/08/24;00:06:29;1.042;-0.023;0.045;-0.19425514340400696;-0.019547687843441963;-0.014660765416920185
01:00:0A:00:00:00:00;1724025990;19/08/24;00:06:30;1.018;-0.066;0.118;-0.1661553531885147;0.07452555745840073;0.04642575979232788
01:00:0A:00:00:00:00;1724025991;19/08/24;00:06:31;1.009;-0.013;0.093;-0.17959438264369965;-0.07819075137376785;-0.059864792972803116
01:00:0A:00:00:00:00;1724025992;19/08/24;00:06:32;1.006;-0.016;0.068;-0.20036379992961884;-0.040317103266716;0.06475171446800232
01:00:0A:00:00:00:00;1724025993;19/08/24;00:06:33;1.007;-0.051;0.103;-0.16371189057826996;0.03298672288656235;-0.02076941914856434
01:00:0A:00:00:00:00;1724025994;19/08/24;00:06:34;1.002;-0.023;0.107;-0.16371189057826996;-0.00855211354792118;-0.04153883829712868
01:00:0A:00:00:00:00;1724025995;19/08/24;00:06:35;0.995;-0.024;0.078;-0.17959438264369965;-0.006108652334660292;0.03420845419168472
01:00:0A:00:00:00:00;1724025996;19/08/24;00:06:36;1.003;-0.043;0.078;-0.15271630883216858;0.0073303827084600925;-0.009773843921720982
01:00:0A:00:00:00:00;1724025997;19/08/24;00:06:37;1.028;-0.033;0.103;-0.1368338167667389;-0.028099799528717995;-0.07696902006864548
01:00:0A:00:00:00:00;1724025998;19/08/24;00:06:38;1.041;-0.02;0.095;-0.15515977144241333;0.0073303827084600925;0.0
01:00:0A:00:00:00:00;1724025999;19/08/24;00:06:39;1.028;-0.062;0.082;-0.1514945775270462;0.0012217304902151227;0.06108652427792549
01:00:0A:00:00:00:00;1724026000;19/08/24;00:06:40;1.005;-0.03;0.099;-0.1160643920302391;0.039095375686883926;-0.036651913076639175
01:00:0A:00:00:00:00;1724026001;19/08/24;00:06:41;0.992;-0.015;0.083;-0.13561207056045532;-0.019547687843441963;-0.019547687843441963
01:00:0A:00:00:00:00;1724026002;19/08/24;00:06:42;1.005;-0.047;0.079;-0.12461651116609573;-0.006108652334660292;-0.039095375686883926
01:00:0A:00:00:00:00;1724026003;19/08/24;00:06:43;1.027;-0.037;0.097;-0.12461651116609573;-0.03298672288656235;-0.040317103266716
01:00:0A:00:00:00:00;1724026004;19/08/24;00:06:44;1.041;-0.045;0.092;-0.1258382350206375;-0.009773843921720982;0.018325956538319588
01:00:0A:00:00:00:00;1724026005;19/08/24;00:06:45;1.03;-0.045;0.08;-0.1062905490398407;0.019547687843441963;0.00855211354792118
01:00:0A:00:00:00:00;1724026006;19/08/24;00:06:46;1.011;-0.034;0.104;-0.10262535512447357;0.019547687843441963;0.010995574295520782
01:00:0A:00:00:00:00;1724026007;19/08/24;00:06:47;1.004;-0.031;0.093;-0.10751228034496307;-0.010995574295520782;0.015882495790719986
01:00:0A:00:00:00:00;1724026008;19/08/24;00:06:48;0.999;-0.023;0.077;-0.09651670604944229;0.0;0.0
01:00:0A:00:00:00:00;1724026009;19/08/24;00:06:49;1.001;-0.033;0.101;-0.09162978082895279;0.009773843921720982;-0.0073303827084600925
01:00:0A:00:00:00:00;1724026010;19/08/24;00:06:50;1.011;-0.031;0.092;-0.09896016865968704;-0.03176499158143997;-0.019547687843441963
01:00:0A:00:00:00:00;1724026011;19/08/24;00:06:51;1.025;-0.032;0.075;-0.08796459436416626;-0.004886921960860491;-0.0073303827084600925
01:00:0A:00:00:00:00;1724026012;19/08/24;00:06:52;1.022;-0.036;0.093;-0.08552113175392151;-0.0024434609804302454;0.013439035043120384
01:00:0A:00:00:00:00;1724026013;19/08/24;00:06:53;1.024;-0.029;0.088;-0.080634206533432;-0.019547687843441963;-0.0024434609804302454
01:00:0A:00:00:00:00;1724026014;19/08/24;00:06:54;1.026;-0.033;0.081;-0.0708603635430336;-0.009773843921720982;0.004886921960860491
01:00:0A:00:00:00:00;1724026015;19/08/24;00:06:55;1.021;-0.032;0.098;-0.06963863223791122;0.0024434609804302454;0.025656338781118393
01:00:0A:00:00:00:00;1724026016;19/08/24;00:06:56;1.016;-0.039;0.083;-0.06841690838336945;-0.018325956538319588;0.009773843921720982
01:00:0A:00:00:00:00;1724026017;19/08/24;00:06:57;0.996;-0.023;0.082;-0.05619959905743599;0.014660765416920185;-0.0073303827084600925
01:00:0A:00:00:00:00;1724026018;19/08/24;00:06:58;0.991;-0.03;0.088;-0.06230825558304787;0.0012217304902151227;0.024434609338641167
01:00:0A:00:00:00:00;1724026019;19/08/24;00:06:59;1.003;-0.039;0.082;-0.051312677562236786;-0.051312677562236786;-0.045204028487205505
01:00:0A:00:00:00:00;1724026020;19/08/24;00:07:00;1.023;-0.022;0.076;-0.04886921867728233;-0.02321287989616394;-0.015882495790719986
01:00:0A:00:00:00:00;1724026021;19/08/24;00:07:01;1.027;-0.047;0.102;-0.04642575979232788;0.00855211354792118;0.009773843921720982
01:00:0A:00:00:00:00;1724026022;19/08/24;00:07:02;1.024;-0.027;0.087;-0.040317103266716;-0.021991148591041565;-0.013439035043120384
01:00:0A:00:00:00:00;1724026023;19/08/24;00:07:03;1.022;-0.024;0.078;-0.03298672288656235;0.0024434609804302454;0.0
01:00:0A:00:00:00:00;1724026024;19/08/24;00:07:04;1.015;-0.042;0.096;-0.03298672288656235;-0.009773843921720982;0.006108652334660292
01:00:0A:00:00:00:00;1724026025;19/08/24;00:07:05;1.016;-0.024;0.087;-0.028099799528717995;-0.0036651913542300463;-0.013439035043120384
01:00:0A:00:00:00:00;1724026026;19/08/24;00:07:06;1.014;-0.03;0.078;-0.025656338781118393;0.0036651913542300463;0.00855211354792118
01:00:0A:00:00:00:00;1724026027;19/08/24;00:07:07;1.007;-0.03;0.091;-0.021991148591041565;0.0036651913542300463;-0.0073303827084600925
01:00:0A:00:00:00:00;1724026028;19/08/24;00:07:08;1.006;-0.04;0.08;-0.02076941914856434;-0.0354301817715168;-0.024434609338641167
01:00:0A:00:00:00:00;1724026029;19/08/24;00:07:09;1.011;-0.033;0.083;-0.01710422709584236;-0.010995574295520782;-0.0036651913542300463
01:00:0A:00:00:00:00;1724026030;19/08/24;00:07:10;1.016;-0.034;0.095;-0.018325956538319588;0.004886921960860491;0.009773843921720982
01:00:0A:00:00:00:00;1724026031;19/08/24;00:07:11;1.032;-0.042;0.076;-0.019547687843441963;-0.019547687843441963;0.006108652334660292
01:00:0A:00:00:00:00;1724026032;19/08/24;00:07:12;1.007;-0.074;0.11;-0.2895500957965851;-0.0024434609804302454;0.07330382615327835
01:00:0A:00:00:00:00;1724026033;19/08/24;00:07:13;1.009;-0.095;0.088;-0.32620203495025635;-0.042760565876960754;-0.09529497474431992
01:00:0A:00:00:00:00;1724026034;19/08/24;00:07:14;1.012;-0.036;0.096;-0.5094615817070007;-0.019547687843441963;-0.051312677562236786
01:00:0A:00:00:00:00;1724026035;19/08/24;00:07:15;1.013;-0.03;0.098;-0.4911356568336487;-0.030543262138962746;-0.004886921960860491
01:00:0A:00:00:00:00;1724026036;19/08/24;00:07:16;1.014;-0.04;0.081;-0.4508185386657715;-0.012217304669320583;-0.014660765416920185
01:00:0A:00:00:00:00;1724026037;19/08/24;00:07:17;1.016;-0.036;0.1;-0.4153883755207062;0.021991148591041565;-0.021991148591041565
01:00:0A:00:00:00:00;1724026038;19/08/24;00:07:18;1.016;-0.031;0.091;-0.3995058536529541;-0.0036651913542300463;-0.02687807008624077
01:00:0A:00:00:00:00;1724026039;19/08/24;00:07:19;1.016;-0.029;0.077;-0.3738495111465454;0.0;-0.024434609338641167
01:00:0A:00:00:00:00;1724026040;19/08/24;00:07:20;1.007;-0.034;0.091;-0.3530800938606262;0.02321287989616394;-0.0036651913542300463
01:00:0A:00:00:00:00;1724026041;19/08/24;00:07:21;1.003;-0.033;0.083;-0.3347541391849518;0.0;-0.030543262138962746
01:00:0A:00:00:00:00;1724026042;19/08/24;00:07:22;1.005;-0.03;0.075;-0.32131510972976685;-0.01710422709584236;-0.02321287989616394
01:00:0A:00:00:00:00;1724026043;19/08/24;00:07:23;1.008;-0.036;0.084;-0.3090977966785431;-0.00855211354792118;-0.006108652334660292
01:00:0A:00:00:00:00;1724026044;19/08/24;00:07:24;1.021;-0.048;0.09;-0.2834414541721344;-0.004886921960860491;-0.028099799528717995
01:00:0A:00:00:00:00;1724026045;19/08/24;00:07:25;1.023;-0.023;0.084;-0.28099802136421204;-0.018325956538319588;-0.0024434609804302454
01:00:0A:00:00:00:00;1724026046;19/08/24;00:07:26;1.023;-0.033;0.088;-0.27000245451927185;-0.0073303827084600925;0.010995574295520782
01:00:0A:00:00:00:00;1724026047;19/08/24;00:07:27;1.019;-0.029;0.082;-0.24434609711170197;0.0036651913542300463;-0.018325956538319588
01:00:0A:00:00:00:00;1724026048;19/08/24;00:07:28;1.014;-0.029;0.088;-0.2382374405860901;0.015882495790719986;-0.0036651913542300463
01:00:0A:00:00:00:00;1724026049;19/08/24;00:07:29;1.006;-0.033;0.069;-0.22846359014511108;-0.02321287989616394;0.0
01:00:0A:00:00:00:00;1724026050;19/08/24;00:07:30;1.0;-0.023;0.074;-0.20525071024894714;-0.00855211354792118;-0.006108652334660292
01:00:0A:00:00:00:00;1724026051;19/08/24;00:07:31;1.007;-0.035;0.092;-0.19547687470912933;-0.02321287989616394;-0.019547687843441963
01:00:0A:00:00:00:00;1724026052;19/08/24;00:07:32;1.01;-0.031;0.084;-0.18814648687839508;-0.021991148591041565;-0.019547687843441963
01:00:0A:00:00:00:00;1724026053;19/08/24;00:07:33;1.016;-0.03;0.081;-0.1771509200334549;0.0036651913542300463;0.0
01:00:0A:00:00:00:00;1724026054;19/08/24;00:07:34;1.023;-0.037;0.09;-0.16859880089759827;-0.015882495790719986;-0.018325956538319588
01:00:0A:00:00:00:00;1724026055;19/08/24;00:07:35;1.025;-0.031;0.083;-0.16004669666290283;-0.030543262138962746;-0.019547687843441963
01:00:0A:00:00:00:00;1724026056;19/08/24;00:07:36;1.025;-0.037;0.082;-0.1466076523065567;0.00855211354792118;0.009773843921720982
01:00:0A:00:00:00:00;1724026057;19/08/24;00:07:37;1.018;-0.037;0.096;-0.13927726447582245;-0.004886921960860491;0.00855211354792118
01:00:0A:00:00:00:00;1724026058;19/08/24;00:07:38;1.006;-0.029;0.074;-0.12950342893600464;-0.012217304669320583;-0.0012217304902151227
01:00:0A:00:00:00:00;1724026059;19/08/24;00:07:39;1.005;-0.026;0.082;-0.11972958594560623;0.009773843921720982;0.0012217304902151227
01:00:0A:00:00:00:00;1724026060;19/08/24;00:07:40;1.008;-0.032;0.084;-0.11728612333536148;-0.030543262138962746;-0.01710422709584236
01:00:0A:00:00:00:00;1724026061;19/08/24;00:07:41;1.014;-0.003;0.063;-0.1918116807937622;-0.05375614017248154;-0.07208210229873657
01:00:0A:00:00:00:00;1724026062;19/08/24;00:07:42;1.01;0.014;0.063;-0.3152064383029938;-0.004886921960860491;-0.019547687843441963
01:00:0A:00:00:00:00;1724026063;19/08/24;00:07:43;1.008;-0.025;0.087;-0.38606682419776917;0.0024434609804302454;0.042760565876960754
01:00:0A:00:00:00:00;1724026064;19/08/24;00:07:44;1.015;-0.06;0.076;-0.3347541391849518;-0.012217304669320583;-0.06108652427792549
01:00:0A:00:00:00:00;1724026065;19/08/24;00:07:45;1.021;-0.006;0.101;-0.3237585723400116;0.0012217304902151227;-0.039095375686883926
01:00:0A:00:00:00:00;1724026066;19/08/24;00:07:46;1.022;-0.041;0.084;-0.34086278080940247;-0.040317103266716;0.0354301817715168
01:00:0A:00:00:00:00;1724026067;19/08/24;00:07:47;1.016;-0.041;0.071;-0.2883284091949463;0.025656338781118393;-0.025656338781118393
01:00:0A:00:00:00:00;1724026068;19/08/24;00:07:48;1.011;-0.019;0.1;-0.2871066629886627;0.0024434609804302454;-0.012217304669320583
01:00:0A:00:00:00:00;1724026069;19/08/24;00:07:49;1.011;-0.038;0.076;-0.2895500957965851;-0.04642575979232788;-0.0073303827084600925
01:00:0A:00:00:00:00;1724026070;19/08/24;00:07:50;1.014;-0.036;0.075;-0.24923302233219147;0.021991148591041565;-0.013439035043120384
01:00:0A:00:00:00:00;1724026071;19/08/24;00:07:51;1.01;-0.04;0.095;-0.24556782841682434;-0.014660765416920185;0.0012217304902151227
01:00:0A:00:00:00:00;1724026072;19/08/24;00:07:52;1.011;-0.027;0.077;-0.2321287840604782;-0.03420845419168472;-0.019547687843441963
01:00:0A:00:00:00:00;1724026073;19/08/24;00:07:53;1.014;-0.022;0.078;-0.2125810980796814;0.006108652334660292;-0.004886921960860491
01:00:0A:00:00:00:00;1724026074;19/08/24;00:07:54;1.017;-0.04;0.096;-0.2028072476387024;0.0012217304902151227;-0.014660765416920185
01:00:0A:00:00:00:00;1724026075;19/08/24;00:07:55;1.019;-0.031;0.074;-0.19425514340400696;-0.021991148591041565;-0.02932153083384037
01:00:0A:00:00:00:00;1724026076;19/08/24;00:07:56;1.017;-0.019;0.081;-0.19303341209888458;0.004886921960860491;0.013439035043120384
01:00:0A:00:00:00:00;1724026077;19/08/24;00:07:57;1.012;-0.045;0.086;-0.18448130786418915;-0.012217304669320583;-0.0036651913542300463
01:00:0A:00:00:00:00;1724026078;19/08/24;00:07:58;1.013;-0.024;0.082;-0.16982054710388184;-0.012217304669320583;-0.03298672288656235
01:00:0A:00:00:00:00;1724026079;19/08/24;00:07:59;1.015;-0.026;0.085;-0.1771509200334549;-0.0036651913542300463;0.01710422709584236
01:00:0A:00:00:00:00;1724026080;19/08/24;00:08:00;1.016;-0.042;0.081;-0.16371189057826996;-0.012217304669320583;-0.006108652334660292
01:00:0A:00:00:00:00;1724026081;19/08/24;00:08:01;1.012;-0.023;0.083;-0.1514945775270462;0.0024434609804302454;-0.02687807008624077
01:00:0A:00:00:00:00;1724026082;19/08/24;00:08:02;1.01;-0.03;0.082;-0.15882496535778046;-0.013439035043120384;0.009773843921720982
01:00:0A:00:00:00:00;1724026083;19/08/24;00:08:03;1.01;-0.041;0.08;-0.14294245839118958;-0.014660765416920185;-0.013439035043120384
01:00:0A:00:00:00:00;1724026084;19/08/24;00:08:04;1.011;-0.024;0.086;-0.13561207056045532;-0.0073303827084600925;-0.015882495790719986
01:00:0A:00:00:00:00;1724026085;19/08/24;00:08:05;1.014;-0.031;0.084;-0.14416420459747314;-0.03176499158143997;0.004886921960860491
01:00:0A:00:00:00:00;1724026086;19/08/24;00:08:06;1.015;-0.037;0.082;-0.1270599663257599;-0.0012217304902151227;-0.0073303827084600925
01:00:0A:00:00:00:00;1724026087;19/08/24;00:08:07;1.017;-0.03;0.088;-0.12217304855585098;0.0012217304902151227;-0.009773843921720982
01:00:0A:00:00:00:00;1724026088;19/08/24;00:08:08;1.017;-0.031;0.086;-0.12828169763088226;-0.019547687843441963;0.0012217304902151227
01:00:0A:00:00:00:00;1724026089;19/08/24;00:08:09;1.013;-0.032;0.078;-0.11484266817569733;0.0036651913542300463;-0.004886921960860491
01:00:0A:00:00:00:00;1724026090;19/08/24;00:08:10;1.01;-0.027;0.084;-0.11239919811487198;-0.006108652334660292;-0.00855211354792118
01:00:0A:00:00:00:00;1724026091;19/08/24;00:08:11;1.011;-0.032;0.081;-0.11728612333536148;-0.02321287989616394;0.004886921960860491
01:00:0A:00:00:00:00;1724026092;19/08/24;00:08:12;1.017;-0.032;0.078;-0.10506881773471832;-0.0012217304902151227;-0.012217304669320583
01:00:0A:00:00:00:00;1724026093;19/08/24;00:08:13;1.016;-0.027;0.09;-0.10751228034496307;-0.009773843921720982;-0.0012217304902151227
01:00:0A:00:00:00:00;1724026094;19/08/24;00:08:14;1.017;-0.031;0.083;-0.10873401165008545;-0.01710422709584236;-0.004886921960860491
01:00:0A:00:00:00:00;1724026095;19/08/24;00:08:15;1.016;-0.029;0.079;-0.10018189996480942;-0.0024434609804302454;-0.0073303827084600925
01:00:0A:00:00:00:00;1724026096;19/08/24;00:08:16;1.016;-0.029;0.088;-0.10262535512447357;-0.009773843921720982;0.0
01:00:0A:00:00:00:00;1724026097;19/08/24;00:08:17;1.016;-0.03;0.081;-0.10262535512447357;-0.02076941914856434;-0.006108652334660292
01:00:0A:00:00:00:00;1724026098;19/08/24;00:08:18;1.015;-0.03;0.083;-0.09529497474431992;-0.0024434609804302454;-0.0036651913542300463
01:00:0A:00:00:00:00;1724026099;19/08/24;00:08:19;1.015;-0.032;0.089;-0.09529497474431992;-0.0073303827084600925;-0.004886921960860491
01:00:0A:00:00:00:00;1724026100;19/08/24;00:08:20;1.015;-0.031;0.082;-0.09773843735456467;-0.019547687843441963;-0.0024434609804302454
01:00:0A:00:00:00:00;1724026101;19/08/24;00:08:21;1.016;-0.029;0.084;-0.09285151958465576;-0.0012217304902151227;0.004886921960860491
01:00:0A:00:00:00:00;1724026102;19/08/24;00:08:22;1.015;-0.029;0.087;-0.09285151958465576;-0.012217304669320583;-0.004886921960860491
01:00:0A:00:00:00:00;1724026103;19/08/24;00:08:23;1.013;-0.031;0.083;-0.09162978082895279;-0.012217304669320583;-0.004886921960860491
01:00:0A:00:00:00:00;1724026104;19/08/24;00:08:24;1.014;-0.027;0.083;-0.08796459436416626;-0.0012217304902151227;-0.0024434609804302454
01:00:0A:00:00:00:00;1724026105;19/08/24;00:08:25;1.014;-0.031;0.085;-0.09040805697441101;-0.014660765416920185;-0.0012217304902151227
01:00:0A:00:00:00:00;1724026106;19/08/24;00:08:26;1.016;-0.031;0.081;-0.08796459436416626;-0.013439035043120384;-0.0024434609804302454
01:00:0A:00:00:00:00;1724026107;19/08/24;00:08:27;1.015;-0.029;0.084;-0.08429940044879913;-0.004886921960860491;0.0012217304902151227
01:00:0A:00:00:00:00;1724026108;19/08/24;00:08:28;1.013;-0.033;0.085;-0.08674286305904388;-0.012217304669320583;0.0024434609804302454
01:00:0A:00:00:00:00;1724026109;19/08/24;00:08:29;1.016;-0.03;0.082;-0.08307767659425735;-0.00855211354792118;-0.006108652334660292
01:00:0A:00:00:00:00;1724026110;19/08/24;00:08:30;1.017;-0.031;0.083;-0.08307767659425735;-0.006108652334660292;0.0024434609804302454
01:00:0A:00:00:00:00;1724026111;19/08/24;00:08:31;1.017;-0.031;0.083;-0.08185594528913498;-0.012217304669320583;0.0036651913542300463
01:00:0A:00:00:00:00;1724026112;19/08/24;00:08:32;1.014;-0.029;0.082;-0.07819075137376785;-0.009773843921720982;-0.006108652334660292
01:00:0A:00:00:00:00;1724026113;19/08/24;00:08:33;1.012;-0.031;0.083;-0.07941248267889023;-0.0073303827084600925;0.0036651913542300463
01:00:0A:00:00:00:00;1724026114;19/08/24;00:08:34;1.013;-0.031;0.087;-0.07696902006864548;-0.010995574295520782;-0.004886921960860491
01:00:0A:00:00:00:00;1724026115;19/08/24;00:08:35;1.014;-0.03;0.082;-0.0757472887635231;-0.00855211354792118;0.0
01:00:0A:00:00:00:00;1724026116;19/08/24;00:08:36;1.013;-0.028;0.084;-0.07452555745840073;-0.009773843921720982;-0.0024434609804302454
01:00:0A:00:00:00:00;1724026117;19/08/24;00:08:37;1.014;-0.032;0.082;-0.07330382615327835;-0.00855211354792118;-0.0036651913542300463
01:00:0A:00:00:00:00;1724026118;19/08/24;00:08:38;1.015;-0.031;0.084;-0.07208210229873657;-0.013439035043120384;-0.006108652334660292
01:00:0A:00:00:00:00;1724026119;19/08/24;00:08:39;1.014;-0.031;0.085;-0.07208210229873657;-0.00855211354792118;0.0
01:00:0A:00:00:00:00;1724026120;19/08/24;00:08:40;1.013;-0.032;0.083;-0.06963863223791122;-0.015882495790719986;-0.0012217304902151227
01:00:0A:00:00:00:00;1724026121;19/08/24;00:08:41;1.013;-0.029;0.086;-0.06719517707824707;-0.0073303827084600925;-0.0036651913542300463
01:00:0A:00:00:00:00;1724026122;19/08/24;00:08:42;1.015;-0.033;0.085;-0.06841690838336945;-0.004886921960860491;0.006108652334660292
01:00:0A:00:00:00:00;1724026123;19/08/24;00:08:43;1.013;-0.03;0.085;-0.0659734457731247;-0.013439035043120384;-0.004886921960860491
01:00:0A:00:00:00:00;1724026124;19/08/24;00:08:44;1.013;-0.03;0.085;-0.06475171446800232;-0.0073303827084600925;-0.0012217304902151227
01:00:0A:00:00:00:00;1724026125;19/08/24;00:08:45;1.012;-0.032;0.083;-0.06352998316287994;-0.012217304669320583;-0.0024434609804302454
01:00:0A:00:00:00:00;1724026126;19/08/24;00:08:46;1.014;-0.035;0.085;-0.06108652427792549;-0.013439035043120384;-0.004886921960860491
01:00:0A:00:00:00:00;1724026127;19/08/24;00:08:47;1.016;-0.032;0.084;-0.06108652427792549;-0.012217304669320583;0.0036651913542300463
01:00:0A:00:00:00:00;1724026128;19/08/24;00:08:48;1.015;-0.032;0.087;-0.059864792972803116;-0.010995574295520782;0.0012217304902151227
01:00:0A:00:00:00:00;1724026129;19/08/24;00:08:49;1.016;-0.031;0.083;-0.05742133408784866;-0.0024434609804302454;0.0012217304902151227
01:00:0A:00:00:00:00;1724026130;19/08/24;00:08:50;1.014;-0.03;0.083;-0.05497787147760391;-0.0073303827084600925;-0.004886921960860491
01:00:0A:00:00:00:00;1724026131;19/08/24;00:08:51;1.014;-0.033;0.082;-0.05375614017248154;-0.0073303827084600925;0.0
01:00:0A:00:00:00:00;1724026132;19/08/24;00:08:52;1.01;-0.04;0.126;-0.22846359014511108;0.013439035043120384;0.02076941914856434
01:00:0A:00:00:00:00;1724026133;19/08/24;00:08:53;1.011;-0.065;0.115;-0.3995058536529541;-0.05864306166768074;-0.06230825558304787
01:00:0A:00:00:00:00;1724026134;19/08/24;00:08:54;1.013;-0.013;0.069;-0.445931613445282;-0.012217304669320583;-0.030543262138962746
01:00:0A:00:00:00:00;1724026135;19/08/24;00:08:55;1.012;-0.036;0.088;-0.42149701714515686;0.01710422709584236;0.02321287989616394
01:00:0A:00:00:00:00;1724026136;19/08/24;00:08:56;1.015;-0.047;0.081;-0.3787364363670349;-0.009773843921720982;-0.05497787147760391
01:00:0A:00:00:00:00;1724026137;19/08/24;00:08:57;1.014;-0.009;0.094;-0.37140607833862305;-0.0012217304902151227;-0.03298672288656235
01:00:0A:00:00:00:00;1724026138;19/08/24;00:08:58;1.014;-0.041;0.081;-0.37751471996307373;-0.025656338781118393;0.014660765416920185
01:00:0A:00:00:00:00;1724026139;19/08/24;00:08:59;1.013;-0.04;0.077;-0.3347541391849518;0.015882495790719986;-0.039095375686883926
01:00:0A:00:00:00:00;1724026140;19/08/24;00:09:00;1.012;-0.023;0.102;-0.3384193480014801;-0.006108652334660292;-0.014660765416920185
01:00:0A:00:00:00:00;1724026141;19/08/24;00:09:01;1.016;-0.036;0.077;-0.33719760179519653;-0.0354301817715168;-0.018325956538319588
01:00:0A:00:00:00:00;1724026142;19/08/24;00:09:02;1.016;-0.033;0.076;-0.3078760802745819;0.02321287989616394;-0.00855211354792118
01:00:0A:00:00:00:00;1724026143;19/08/24;00:09:03;1.014;-0.039;0.101;-0.30543261766433716;-0.0073303827084600925;-0.013439035043120384
01:00:0A:00:00:00:00;1724026144;19/08/24;00:09:04;1.014;-0.028;0.077;-0.2981022298336029;-0.02932153083384037;-0.030543262138962746
01:00:0A:00:00:00:00;1724026145;19/08/24;00:09:05;1.014;-0.027;0.081;-0.2871066629886627;0.015882495790719986;0.0073303827084600925
01:00:0A:00:00:00:00;1724026146;19/08/24;00:09:06;1.013;-0.042;0.092;-0.27977627515792847;-0.010995574295520782;-0.013439035043120384
01:00:0A:00:00:00:00;1724026147;19/08/24;00:09:07;1.015;-0.021;0.078;-0.2675589621067047;-0.019547687843441963;-0.03420845419168472
01:00:0A:00:00:00:00;1724026148;19/08/24;00:09:08;1.014;-0.026;0.086;-0.2687807083129883;0.0012217304902151227;0.00855211354792118
01:00:0A:00:00:00:00;1724026149;19/08/24;00:09:09;1.016;-0.044;0.083;-0.2541199326515198;-0.010995574295520782;-0.025656338781118393
01:00:0A:00:00:00:00;1724026150;19/08/24;00:09:10;1.016;-0.023;0.084;-0.24678954482078552;-0.004886921960860491;-0.021991148591041565
01:00:0A:00:00:00:00;1724026151;19/08/24;00:09:11;1.016;-0.032;0.086;-0.2541199326515198;-0.01710422709584236;0.009773843921720982
01:00:0A:00:00:00:00;1724026152;19/08/24;00:09:12;1.016;-0.038;0.08;-0.23579397797584534;-0.004886921960860491;-0.019547687843441963
01:00:0A:00:00:00:00;1724026153;19/08/24;00:09:13;1.013;-0.023;0.09;-0.22968533635139465;0.0073303827084600925;-0.012217304669320583
01:00:0A:00:00:00:00;1724026154;19/08/24;00:09:14;1.013;-0.034;0.083;-0.23457224667072296;-0.02321287989616394;-0.0024434609804302454
01:00:0A:00:00:00:00;1724026155;19/08/24;00:09:15;1.015;-0.034;0.077;-0.21868975460529327;-0.004886921960860491;-0.012217304669320583
01:00:0A:00:00:00:00;1724026156;19/08/24;00:09:16;1.014;-0.03;0.092;-0.2125810980796814;-0.0012217304902151227;-0.013439035043120384
01:00:0A:00:00:00:00;1724026157;19/08/24;00:09:17;1.015;-0.032;0.085;-0.21624629199504852;-0.024434609338641167;-0.006108652334660292
01:00:0A:00:00:00:00;1724026158;19/08/24;00:09:18;1.015;-0.03;0.078;-0.20036379992961884;0.0;-0.00855211354792118
01:00:0A:00:00:00:00;1724026159;19/08/24;00:09:19;1.015;-0.033;0.09;-0.1966986060142517;0.0;-0.006108652334660292
01:00:0A:00:00:00:00;1724026160;19/08/24;00:09:20;1.015;-0.032;0.082;-0.19547687470912933;-0.025656338781118393;-0.014660765416920185
01:00:0A:00:00:00:00;1724026161;19/08/24;00:09:21;1.016;-0.028;0.08;-0.18325956165790558;0.0036651913542300463;-0.0024434609804302454
01:00:0A:00:00:00:00;1724026162;19/08/24;00:09:22;1.015;-0.014;0.059;-0.24678954482078552;-0.1014036238193512;-0.07208210229873657
01:00:0A:00:00:00:00;1724026163;19/08/24;00:09:23;1.015;0.026;0.034;-0.27488934993743896;0.012217304669320583;0.004886921960860491
01:00:0A:00:00:00:00;1724026164;19/08/24;00:09:24;1.012;-0.013;0.083;-0.3127630054950714;0.0354301817715168;0.059864792972803116
01:00:0A:00:00:00:00;1724026165;19/08/24;00:09:25;1.011;-0.06;0.09;-0.3066543638706207;-0.021991148591041565;-0.028099799528717995
01:00:0A:00:00:00:00;1724026166;19/08/24;00:09:26;1.015;-0.014;0.081;-0.2834414541721344;-0.0012217304902151227;-0.05864306166768074
01:00:0A:00:00:00:00;1724026167;19/08/24;00:09:27;1.015;-0.028;0.092;-0.3090977966785431;-0.019547687843441963;0.030543262138962746
01:00:0A:00:00:00:00;1724026168;19/08/24;00:09:28;1.016;-0.053;0.074;-0.2834414541721344;-0.00855211354792118;-0.019547687843441963
01:00:0A:00:00:00:00;1724026169;19/08/24;00:09:29;1.013;-0.019;0.093;-0.26511549949645996;0.018325956538319588;-0.04153883829712868
01:00:0A:00:00:00:00;1724026170;19/08/24;00:09:30;1.014;-0.032;0.091;-0.2919935882091522;-0.039095375686883926;0.015882495790719986
01:00:0A:00:00:00:00;1724026171;19/08/24;00:09:31;1.016;-0.042;0.064;-0.26145032048225403;-0.0036651913542300463;-0.024434609338641167
01:00:0A:00:00:00:00;1724026172;19/08/24;00:09:32;1.014;-0.025;0.1;-0.251676470041275;0.021991148591041565;-0.012217304669320583
01:00:0A:00:00:00:00;1724026173;19/08/24;00:09:33;1.013;-0.038;0.086;-0.2687807083129883;-0.05253440886735916;-0.00855211354792118
01:00:0A:00:00:00:00;1724026174;19/08/24;00:09:34;1.014;-0.027;0.068;-0.24190263450145721;0.012217304669320583;-0.013439035043120384
01:00:0A:00:00:00:00;1724026175;19/08/24;00:09:35;1.012;-0.033;0.101;-0.24068090319633484;0.009773843921720982;-0.004886921960860491
01:00:0A:00:00:00:00;1724026176;19/08/24;00:09:36;1.015;-0.033;0.08;-0.2431243658065796;-0.039095375686883926;-0.025656338781118393
01:00:0A:00:00:00:00;1724026177;19/08/24;00:09:37;1.015;-0.024;0.075;-0.22968533635139465;0.009773843921720982;-0.0036651913542300463
01:00:0A:00:00:00:00;1724026178;19/08/24;00:09:38;1.012;-0.039;0.097;-0.22968533635139465;-0.004886921960860491;0.0012217304902151227
01:00:0A:00:00:00:00;1724026179;19/08/24;00:09:39;1.014;-0.032;0.08;-0.21991148591041565;-0.024434609338641167;-0.03298672288656235
01:00:0A:00:00:00:00;1724026180;19/08/24;00:09:40;1.015;-0.023;0.082;-0.2174680233001709;0.004886921960860491;0.0024434609804302454
01:00:0A:00:00:00:00;1724026181;19/08/24;00:09:41;1.016;-0.042;0.09;-0.21380282938480377;-0.010995574295520782;-0.0012217304902151227
01:00:0A:00:00:00:00;1724026182;19/08/24;00:09:42;1.016;-0.029;0.08;-0.19792033731937408;-0.010995574295520782;-0.030543262138962746
01:00:0A:00:00:00:00;1724026183;19/08/24;00:09:43;1.014;-0.024;0.088;-0.2015855312347412;-0.0024434609804302454;0.006108652334660292
01:00:0A:00:00:00:00;1724026184;19/08/24;00:09:44;1.014;-0.043;0.083;-0.19547687470912933;-0.015882495790719986;-0.0012217304902151227
01:00:0A:00:00:00:00;1724026185;19/08/24;00:09:45;1.013;-0.026;0.082;-0.17837265133857727;-0.0012217304902151227;-0.025656338781118393
01:00:0A:00:00:00:00;1724026186;19/08/24;00:09:46;1.013;-0.026;0.09;-0.18936821818351746;-0.014660765416920185;0.00855211354792118
01:00:0A:00:00:00:00;1724026187;19/08/24;00:09:47;1.014;-0.04;0.078;-0.1771509200334549;-0.012217304669320583;-0.00855211354792118
01:00:0A:00:00:00:00;1724026188;19/08/24;00:09:48;1.014;-0.026;0.086;-0.16371189057826996;0.0036651913542300463;-0.02076941914856434
01:00:0A:00:00:00:00;1724026189;19/08/24;00:09:49;1.013;-0.031;0.087;-0.17470745742321014;-0.021991148591041565;0.006108652334660292
01:00:0A:00:00:00:00;1724026190;19/08/24;00:09:50;1.014;-0.037;0.078;-0.161268413066864;-0.009773843921720982;-0.012217304669320583
01:00:0A:00:00:00:00;1724026191;19/08/24;00:09:51;1.015;-0.028;0.089;-0.15393804013729095;0.0036651913542300463;-0.009773843921720982
01:00:0A:00:00:00:00;1724026192;19/08/24;00:09:52;1.015;-0.032;0.087;-0.16004669666290283;-0.021991148591041565;-0.0012217304902151227
01:00:0A:00:00:00:00;1724026193;19/08/24;00:09:53;1.015;-0.034;0.077;-0.14905111491680145;-0.006108652334660292;-0.00855211354792118
01:00:0A:00:00:00:00;1724026194;19/08/24;00:09:54;1.013;-0.029;0.091;-0.14538592100143433;0.0;-0.0036651913542300463
01:00:0A:00:00:00:00;1724026195;19/08/24;00:09:55;1.014;-0.033;0.085;-0.14782939851284027;-0.02076941914856434;-0.006108652334660292
01:00:0A:00:00:00:00;1724026196;19/08/24;00:09:56;1.015;-0.03;0.079;-0.13927726447582245;-0.004886921960860491;-0.006108652334660292
01:00:0A:00:00:00:00;1724026197;19/08/24;00:09:57;1.013;-0.03;0.088;-0.1368338167667389;-0.0024434609804302454;-0.0012217304902151227
01:00:0A:00:00:00:00;1724026198;19/08/24;00:09:58;1.015;-0.033;0.084;-0.1368338167667389;-0.02076941914856434;-0.010995574295520782
01:00:0A:00:00:00:00;1724026199;19/08/24;00:09:59;1.016;-0.028;0.08;-0.12950342893600464;-0.004886921960860491;-0.004886921960860491
01:00:0A:00:00:00:00;1724026200;19/08/24;00:10:00;1.015;-0.034;0.09;-0.12950342893600464;-0.0036651913542300463;0.0024434609804302454
01:00:0A:00:00:00:00;1724026201;19/08/24;00:10:01;1.015;-0.033;0.082;-0.1258382350206375;-0.018325956538319588;-0.00855211354792118
01:00:0A:00:00:00:00;1724026202;19/08/24;00:10:02;1.015;-0.027;0.081;-0.12095131725072861;-0.0012217304902151227;-0.0024434609804302454
01:00:0A:00:00:00:00;1724026203;19/08/24;00:10:03;1.015;-0.032;0.086;-0.11972958594560623;-0.010995574295520782;0.0
01:00:0A:00:00:00:00;1724026204;19/08/24;00:10:04;1.014;-0.031;0.084;-0.11484266817569733;-0.013439035043120384;-0.012217304669320583
01:00:0A:00:00:00:00;1724026205;19/08/24;00:10:05;1.016;-0.028;0.083;-0.11362093687057495;-0.006108652334660292;0.0
01:00:0A:00:00:00:00;1724026206;19/08/24;00:10:06;1.014;-0.035;0.084;-0.11239919811487198;-0.012217304669320583;0.0012217304902151227
01:00:0A:00:00:00:00;1724026207;19/08/24;00:10:07;1.015;-0.03;0.082;-0.1062905490398407;-0.009773843921720982;-0.010995574295520782
01:00:0A:00:00:00:00;1724026208;19/08/24;00:10:08;1.014;-0.027;0.084;-0.10751228034496307;-0.0073303827084600925;0.0012217304902151227
01:00:0A:00:00:00:00;1724026209;19/08/24;00:10:09;1.015;-0.037;0.086;-0.10506881773471832;-0.010995574295520782;0.0
01:00:0A:00:00:00:00;1724026210;19/08/24;00:10:10;1.016;-0.029;0.083;-0.10018189996480942;-0.00855211354792118;-0.00855211354792118
01:00:0A:00:00:00:00;1724026211;19/08/24;00:10:11;1.015;-0.031;0.084;-0.1014036238193512;-0.00855211354792118;0.0024434609804302454
01:00:0A:00:00:00:00;1724026212;19/08/24;00:10:12;1.014;-0.033;0.085;-0.09896016865968704;-0.010995574295520782;-0.0012217304902151227
01:00:0A:00:00:00:00;1724026213;19/08/24;00:10:13;1.015;-0.03;0.085;-0.09407324343919754;-0.00855211354792118;-0.0073303827084600925
01:00:0A:00:00:00:00;1724026214;19/08/24;00:10:14;1.013;-0.029;0.085;-0.09651670604944229;-0.009773843921720982;0.0036651913542300463
01:00:0A:00:00:00:00;1724026215;19/08/24;00:10:15;1.014;-0.033;0.083;-0.09285151958465576;-0.012217304669320583;-0.0036651913542300463
01:00:0A:00:00:00:00;1724026216;19/08/24;00:10:16;1.014;-0.029;0.085;-0.08918632566928864;-0.00855211354792118;-0.004886921960860491
01:00:0A:00:00:00:00;1724026217;19/08/24;00:10:17;1.015;-0.03;0.085;-0.09040805697441101;-0.010995574295520782;0.0024434609804302454
01:00:0A:00:00:00:00;1724026218;19/08/24;00:10:18;1.014;-0.034;0.082;-0.08552113175392151;-0.010995574295520782;-0.0024434609804302454
01:00:0A:00:00:00:00;1724026219;19/08/24;00:10:19;1.014;-0.029;0.084;-0.08307767659425735;-0.0073303827084600925;-0.0036651913542300463
01:00:0A:00:00:00:00;1724026220;19/08/24;00:10:20;1.013;-0.029;0.083;-0.08429940044879913;-0.012217304669320583;0.0012217304902151227
01:00:0A:00:00:00:00;1724026221;19/08/24;00:10:21;1.014;-0.033;0.083;-0.080634206533432;-0.010995574295520782;-0.0036651913542300463
01:00:0A:00:00:00:00;1724026222;19/08/24;00:10:22;1.015;-0.029;0.084;-0.07819075137376785;-0.006108652334660292;-0.0036651913542300463
01:00:0A:00:00:00:00;1724026223;19/08/24;00:10:23;1.015;-0.031;0.083;-0.07941248267889023;-0.014660765416920185;0.0012217304902151227
01:00:0A:00:00:00:00;1724026224;19/08/24;00:10:24;1.015;-0.032;0.083;-0.07452555745840073;-0.0073303827084600925;-0.0012217304902151227
01:00:0A:00:00:00:00;1724026225;19/08/24;00:10:25;1.014;-0.028;0.084;-0.07330382615327835;-0.00855211354792118;-0.0024434609804302454
01:00:0A:00:00:00:00;1724026226;19/08/24;00:10:26;1.014;-0.032;0.084;-0.07452555745840073;-0.013439035043120384;0.0
01:00:0A:00:00:00:00;1724026227;19/08/24;00:10:27;1.015;-0.031;0.083;-0.0708603635430336;-0.009773843921720982;-0.0024434609804302454
01:00:0A:00:00:00:00;1724026228;19/08/24;00:10:28;1.015;-0.031;0.085;-0.06963863223791122;-0.00855211354792118;0.0
01:00:0A:00:00:00:00;1724026229;19/08/24;00:10:29;1.014;-0.031;0.085;-0.0708603635430336;-0.012217304669320583;0.0012217304902151227
01:00:0A:00:00:00:00;1724026230;19/08/24;00:10:30;1.013;-0.03;0.082;-0.06719517707824707;-0.00855211354792118;-0.0024434609804302454
01:00:0A:00:00:00:00;1724026231;19/08/24;00:10:31;1.016;-0.032;0.085;-0.06719517707824707;-0.009773843921720982;0.0
01:00:0A:00:00:00:00;1724026232;19/08/24;00:10:32;1.015;-0.031;0.083;-0.0659734457731247;-0.012217304669320583;-0.0012217304902151227
01:00:0A:00:00:00:00;1724026233;19/08/24;00:10:33;1.014;-0.032;0.083;-0.06352998316287994;-0.00855211354792118;-0.0024434609804302454
01:00:0A:00:00:00:00;1724026234;19/08/24;00:10:34;1.015;-0.03;0.085;-0.06352998316287994;-0.009773843921720982;0.0
01:00:0A:00:00:00:00;1724026235;19/08/24;00:10:35;1.014;-0.033;0.085;-0.06352998316287994;-0.012217304669320583;-0.0012217304902151227
01:00:0A:00:00:00:00;1724026236;19/08/24;00:10:36;1.015;-0.032;0.084;-0.06108652427792549;-0.0073303827084600925;0.0
01:00:0A:00:00:00:00;1724026237;19/08/24;00:10:37;1.014;-0.031;0.085;-0.059864792972803116;-0.009773843921720982;0.0
01:00:0A:00:00:00:00;1724026238;19/08/24;00:10:38;1.014;-0.031;0.082;-0.059864792972803116;-0.012217304669320583;0.0
01:00:0A:00:00:00:00;1724026239;19/08/24;00:10:39;1.014;-0.029;0.085;-0.05864306166768074;-0.009773843921720982;0.0
01:00:0A:00:00:00:00;1724026240;19/08/24;00:10:40;1.014;-0.031;0.086;-0.05742133408784866;-0.010995574295520782;-0.0012217304902151227
01:00:0A:00:00:00:00;1724026241;19/08/24;00:10:41;1.015;-0.032;0.082;-0.05742133408784866;-0.010995574295520782;0.0
01:00:0A:00:00:00:00;1724026242;19/08/24;00:10:42;1.015;-0.03;0.085;-0.05619959905743599;-0.00855211354792118;0.0
01:00:0A:00:00:00:00;1724026243;19/08/24;00:10:43;1.014;-0.031;0.083;-0.05619959905743599;-0.010995574295520782;0.0012217304902151227
01:00:0A:00:00:00:00;1724026244;19/08/24;00:10:44;1.015;-0.031;0.084;-0.05375614017248154;-0.012217304669320583;-0.0012217304902151227
01:00:0A:00:00:00:00;1724026245;19/08/24;00:10:45;1.015;-0.031;0.084;-0.05253440886735916;-0.00855211354792118;0.0
01:00:0A:00:00:00:00;1724026246;19/08/24;00:10:46;1.015;-0.032;0.085;-0.05253440886735916;-0.010995574295520782;0.0
01:00:0A:00:00:00:00;1724026247;19/08/24;00:10:47;1.014;-0.031;0.083;-0.051312677562236786;-0.012217304669320583;0.0
01:00:0A:00:00:00:00;1724026248;19/08/24;00:10:48;1.013;-0.031;0.084;-0.051312677562236786;-0.010995574295520782;0.0012217304902151227
01:00:0A:00:00:00:00;1724026249;19/08/24;00:10:49;1.015;-0.031;0.084;-0.05009094998240471;-0.010995574295520782;0.0
01:00:0A:00:00:00:00;1724026250;19/08/24;00:10:50;1.015;-0.031;0.082;-0.04886921867728233;-0.009773843921720982;0.0
01:00:0A:00:00:00:00;1724026251;19/08/24;00:10:51;1.015;-0.03;0.084;-0.04764748737215996;-0.009773843921720982;0.0
01:00:0A:00:00:00:00;1724026252;19/08/24;00:10:52;1.014;-0.032;0.084;-0.04764748737215996;-0.010995574295520782;0.0
01:00:0A:00:00:00:00;1724026253;19/08/24;00:10:53;1.015;-0.031;0.083;-0.04642575979232788;-0.010995574295520782;0.0
01:00:0A:00:00:00:00;1724026254;19/08/24;00:10:54;1.015;-0.032;0.085;-0.045204028487205505;-0.009773843921720982;0.0012217304902151227
01:00:0A:00:00:00:00;1724026255;19/08/24;00:10:55;1.015;-0.032;0.084;-0.04398229718208313;-0.009773843921720982;0.0024434609804302454
01:00:0A:00:00:00:00;1724026256;19/08/24;00:10:56;1.015;-0.031;0.085;-0.042760565876960754;-0.010995574295520782;0.0
01:00:0A:00:00:00:00;1724026257;19/08/24;00:10:57;1.015;-0.031;0.085;-0.042760565876960754;-0.009773843921720982;0.0012217304902151227
01:00:0A:00:00:00:00;1724026258;19/08/24;00:10:58;1.016;-0.032;0.084;-0.04153883829712868;-0.010995574295520782;0.0
01:00:0A:00:00:00:00;1724026259;19/08/24;00:10:59;1.014;-0.032;0.083;-0.040317103266716;-0.010995574295520782;0.0024434609804302454
01:00:0A:00:00:00:00;1724026260;19/08/24;00:11:00;1.015;-0.031;0.084;-0.039095375686883926;-0.010995574295520782;0.0036651913542300463
01:00:0A:00:00:00:00;1724026261;19/08/24;00:11:01;1.014;-0.031;0.084;-0.03787364438176155;-0.010995574295520782;0.0
01:00:0A:00:00:00:00;1724026262;19/08/24;00:11:02;1.014;-0.03;0.083;-0.03787364438176155;-0.010995574295520782;0.0012217304902151227
01:00:0A:00:00:00:00;1724026263;19/08/24;00:11:03;1.014;-0.031;0.085;-0.036651913076639175;-0.009773843921720982;0.0012217304902151227
01:00:0A:00:00:00:00;1724026264;19/08/24;00:11:04;1.014;-0.032;0.084;-0.036651913076639175;-0.010995574295520782;0.0024434609804302454
01:00:0A:00:00:00:00;1724026265;19/08/24;00:11:05;1.015;-0.029;0.083;-0.0354301817715168;-0.010995574295520782;0.0012217304902151227
01:00:0A:00:00:00:00;1724026266;19/08/24;00:11:06;1.014;-0.032;0.085;-0.0354301817715168;-0.012217304669320583;0.0012217304902151227
01:00:0A:00:00:00:00;1724026267;19/08/24;00:11:07;1.014;-0.031;0.084;-0.03420845419168472;-0.010995574295520782;0.0
01:00:0A:00:00:00:00;1724026268;19/08/24;00:11:08;1.015;-0.031;0.084;-0.03420845419168472;-0.010995574295520782;0.0012217304902151227
01:00:0A:00:00:00:00;1724026269;19/08/24;00:11:09;1.015;-0.03;0.084;-0.03420845419168472;-0.010995574295520782;0.0036651913542300463
01:00:0A:00:00:00:00;1724026270;19/08/24;00:11:10;1.014;-0.03;0.084;-0.03298672288656235;-0.010995574295520782;0.0
01:00:0A:00:00:00:00;1724026271;19/08/24;00:11:11;1.014;-0.031;0.084;-0.03298672288656235;-0.010995574295520782;0.0012217304902151227
01:00:0A:00:00:00:00;1724026272;19/08/24;00:11:12;1.014;-0.031;0.085;-0.03298672288656235;-0.010995574295520782;0.0012217304902151227
01:00:0A:00:00:00:00;1724026273;19/08/24;00:11:13;1.014;-0.031;0.084;-0.03176499158143997;-0.010995574295520782;0.0012217304902151227
01:00:0A:00:00:00:00;1724026274;19/08/24;00:11:14;1.015;-0.032;0.085;-0.03176499158143997;-0.010995574295520782;0.0012217304902151227
01:00:0A:00:00:00:00;1724026275;19/08/24;00:11:15;1.015;-0.031;0.084;-0.030543262138962746;-0.010995574295520782;0.0
01:00:0A:00:00:00:00;1724026276;19/08/24;00:11:16;1.014;-0.032;0.084;-0.030543262138962746;-0.010995574295520782;0.0012217304902151227
01:00:0A:00:00:00:00;1724026277;19/08/24;00:11:17;1.015;-0.031;0.084;-0.030543262138962746;-0.009773843921720982;0.0012217304902151227
01:00:0A:00:00:00:00;1724026278;19/08/24;00:11:18;1.014;-0.031;0.084;-0.030543262138962746;-0.010995574295520782;0.0024434609804302454
01:00:0A:00:00:00:00;1724026279;19/08/24;00:11:19;1.015;-0.032;0.084;-0.02932153083384037;-0.010995574295520782;0.0012217304902151227
01:00:0A:00:00:00:00;1724026280;19/08/24;00:11:20;1.014;-0.031;0.084;-0.028099799528717995;-0.010995574295520782;0.0012217304902151227
01:00:0A:00:00:00:00;1724026281;19/08/24;00:11:21;1.014;-0.032;0.084;-0.028099799528717995;-0.010995574295520782;0.0024434609804302454
01:00:0A:00:00:00:00;1724026282;19/08/24;00:11:22;1.014;-0.03;0.084;-0.028099799528717995;-0.009773843921720982;0.0012217304902151227
01:00:0A:00:00:00:00;1724026283;19/08/24;00:11:23;1.013;-0.031;0.084;-0.028099799528717995;-0.012217304669320583;0.0024434609804302454
01:00:0A:00:00:00:00;1724026284;19/08/24;00:11:24;1.014;-0.031;0.084;-0.02687807008624077;-0.009773843921720982;0.0
01:00:0A:00:00:00:00;1724026285;19/08/24;00:11:25;1.015;-0.03;0.084;-0.02687807008624077;-0.010995574295520782;0.0024434609804302454
01:00:0A:00:00:00:00;1724026286;19/08/24;00:11:26;1.015;-0.032;0.084;-0.025656338781118393;-0.010995574295520782;0.0012217304902151227
01:00:0A:00:00:00:00;1724026287;19/08/24;00:11:27;1.015;-0.03;0.085;-0.025656338781118393;-0.010995574295520782;0.0024434609804302454
01:00:0A:00:00:00:00;1724026288;19/08/24;00:11:28;1.014;-0.031;0.083;-0.025656338781118393;-0.012217304669320583;0.0012217304902151227
01:00:0A:00:00:00:00;1724026289;19/08/24;00:11:29;1.014;-0.031;0.083;-0.024434609338641167;-0.009773843921720982;0.0012217304902151227
01:00:0A:00:00:00:00;1724026290;19/08/24;00:11:30;1.014;-0.031;0.084;-0.024434609338641167;-0.012217304669320583;0.0024434609804302454
01:00:0A:00:00:00:00;1724026291;19/08/24;00:11:31;1.015;-0.032;0.084;-0.02321287989616394;-0.009773843921720982;0.0012217304902151227
01:00:0A:00:00:00:00;1724026292;19/08/24;00:11:32;1.015;-0.031;0.083;-0.024434609338641167;-0.012217304669320583;0.0024434609804302454
01:00:0A:00:00:00:00;1724026293;19/08/24;00:11:33;1.015;-0.032;0.084;-0.02321287989616394;-0.009773843921720982;0.0012217304902151227
01:00:0A:00:00:00:00;1724026294;19/08/24;00:11:34;1.014;-0.03;0.084;-0.021991148591041565;-0.010995574295520782;0.0012217304902151227
01:00:0A:00:00:00:00;1724026295;19/08/24;00:11:35;1.016;-0.03;0.084;-0.02321287989616394;-0.010995574295520782;0.0036651913542300463
01:00:0A:00:00:00:00;1724026296;19/08/24;00:11:36;1.014;-0.031;0.083;-0.021991148591041565;-0.010995574295520782;0.0012217304902151227
01:00:0A:00:00:00:00;1724026297;19/08/24;00:11:37;1.014;-0.031;0.084;-0.021991148591041565;-0.010995574295520782;0.0024434609804302454
01:00:0A:00:00:00:00;1724026298;19/08/24;00:11:38;1.014;-0.03;0.084;-0.02076941914856434;-0.010995574295520782;0.0012217304902151227
01:00:0A:00:00:00:00;1724026299;19/08/24;00:11:39;1.014;-0.029;0.085;-0.021991148591041565;-0.010995574295520782;0.0024434609804302454
01:00:0A:00:00:00:00;1724026300;19/08/24;00:11:40;1.015;-0.032;0.084;-0.02076941914856434;-0.012217304669320583;0.0012217304902151227
01:00:0A:00:00:00:00;1724026301;19/08/24;00:11:41;1.015;-0.031;0.085;-0.019547687843441963;-0.009773843921720982;0.0024434609804302454
01:00:0A:00:00:00:00;1724026302;19/08/24;00:11:42;1.014;-0.032;0.083;-0.019547687843441963;-0.012217304669320583;0.0024434609804302454
01:00:0A:00:00:00:00;1724026303;19/08/24;00:11:43;1.015;-0.03;0.083;-0.018325956538319588;-0.00855211354792118;0.0024434609804302454
01:00:0A:00:00:00:00;1724026304;19/08/24;00:11:44;1.015;-0.031;0.085;-0.019547687843441963;-0.012217304669320583;0.0024434609804302454
01:00:0A:00:00:00:00;1724026305;19/08/24;00:11:45;1.014;-0.031;0.084;-0.018325956538319588;-0.010995574295520782;0.0024434609804302454
01:00:0A:00:00:00:00;1724026306;19/08/24;00:11:46;1.014;-0.031;0.084;-0.01710422709584236;-0.010995574295520782;0.0012217304902151227
01:00:0A:00:00:00:00;1724026307;19/08/24;00:11:47;1.015;-0.032;0.083;-0.01710422709584236;-0.010995574295520782;0.0024434609804302454
01:00:0A:00:00:00:00;1724026308;19/08/24;00:11:48;1.015;-0.032;0.085;-0.015882495790719986;-0.009773843921720982;0.0012217304902151227
01:00:0A:00:00:00:00;1724026309;19/08/24;00:11:49;1.014;-0.031;0.083;-0.01710422709584236;-0.012217304669320583;0.0036651913542300463
01:00:0A:00:00:00:00;1724026310;19/08/24;00:11:50;1.014;-0.031;0.084;-0.014660765416920185;-0.010995574295520782;0.0012217304902151227
01:00:0A:00:00:00:00;1724026311;19/08/24;00:11:51;1.015;-0.031;0.084;-0.014660765416920185;-0.010995574295520782;0.0024434609804302454
01:00:0A:00:00:00:00;1724026312;19/08/24;00:11:52;1.014;-0.031;0.083;-0.014660765416920185;-0.010995574295520782;0.0024434609804302454
01:00:0A:00:00:00:00;1724026313;19/08/24;00:11:53;1.014;-0.031;0.086;-0.014660765416920185;-0.009773843921720982;0.0024434609804302454
01:00:0A:00:00:00:00;1724026314;19/08/24;00:11:54;1.014;-0.032;0.083;-0.014660765416920185;-0.012217304669320583;0.0036651913542300463
01:00:0A:00:00:00:00;1724026315;19/08/24;00:11:55;1.015;-0.032;0.083;-0.012217304669320583;-0.009773843921720982;0.0012217304902151227
01:00:0A:00:00:00:00;1724026316;19/08/24;00:11:56;1.016;-0.032;0.086;-0.012217304669320583;-0.012217304669320583;0.0024434609804302454
01:00:0A:00:00:00:00;1724026317;19/08/24;00:11:57;1.015;-0.031;0.084;-0.012217304669320583;-0.009773843921720982;0.0024434609804302454
01:00:0A:00:00:00:00;1724026318;19/08/24;00:11:58;1.014;-0.031;0.084;-0.012217304669320583;-0.010995574295520782;0.0036651913542300463
01:00:0A:00:00:00:00;1724026319;19/08/24;00:11:59;1.014;-0.031;0.084;-0.012217304669320583;-0.010995574295520782;0.0036651913542300463
01:00:0A:00:00:00:00;1724026320;19/08/24;00:12:00;1.015;-0.032;0.085;-0.010995574295520782;-0.009773843921720982;0.0012217304902151227
01:00:0A:00:00:00:00;1724026321;19/08/24;00:12:01;1.015;-0.031;0.084;-0.010995574295520782;-0.010995574295520782;0.0036651913542300463
01:00:0A:00:00:00:00;1724026322;19/08/24;00:12:02;1.014;-0.031;0.085;-0.010995574295520782;-0.009773843921720982;0.0024434609804302454
01:00:0A:00:00:00:00;1724026323;19/08/24;00:12:03;1.014;-0.03;0.084;-0.010995574295520782;-0.012217304669320583;0.0036651913542300463
01:00:0A:00:00:00:00;1724026324;19/08/24;00:12:04;1.015;-0.032;0.084;-0.009773843921720982;-0.010995574295520782;0.0024434609804302454
01:00:0A:00:00:00:00;1724026325;19/08/24;00:12:05;1.014;-0.03;0.085;-0.00855211354792118;-0.010995574295520782;0.0024434609804302454
01:00:0A:00:00:00:00;1724026326;19/08/24;00:12:06;1.015;-0.032;0.084;-0.009773843921720982;-0.012217304669320583;0.0036651913542300463
01:00:0A:00:00:00:00;1724026327;19/08/24;00:12:07;1.015;-0.031;0.084;-0.00855211354792118;-0.009773843921720982;0.0036651913542300463
01:00:0A:00:00:00:00;1724026328;19/08/24;00:12:08;1.014;-0.031;0.083;-0.00855211354792118;-0.012217304669320583;0.0036651913542300463
01:00:0A:00:00:00:00;1724026329;19/08/24;00:12:09;1.014;-0.031;0.084;-0.0073303827084600925;-0.009773843921720982;0.0024434609804302454
01:00:0A:00:00:00:00;1724026330;19/08/24;00:12:10;1.014;-0.03;0.085;-0.00855211354792118;-0.012217304669320583;0.0024434609804302454
01:00:0A:00:00:00:00;1724026331;19/08/24;00:12:11;1.015;-0.032;0.084;-0.0073303827084600925;-0.010995574295520782;0.0036651913542300463
01:00:0A:00:00:00:00;1724026332;19/08/24;00:12:12;1.014;-0.03;0.084;-0.0073303827084600925;-0.010995574295520782;0.0024434609804302454
01:00:0A:00:00:00:00;1724026333;19/08/24;00:12:13;1.014;-0.032;0.083;-0.0073303827084600925;-0.012217304669320583;0.0036651913542300463
01:00:0A:00:00:00:00;1724026334;19/08/24;00:12:14;1.016;-0.031;0.083;-0.006108652334660292;-0.010995574295520782;0.0012217304902151227
01:00:0A:00:00:00:00;1724026335;19/08/24;00:12:15;1.016;-0.031;0.084;-0.006108652334660292;-0.010995574295520782;0.0036651913542300463
01:00:0A:00:00:00:00;1724026336;19/08/24;00:12:16;1.015;-0.031;0.084;-0.006108652334660292;-0.010995574295520782;0.0036651913542300463
01:00:0A:00:00:00:00;1724026337;19/08/24;00:12:17;1.016;-0.031;0.084;-0.004886921960860491;-0.010995574295520782;0.0036651913542300463
01:00:0A:00:00:00:00;1724026338;19/08/24;00:12:18;1.014;-0.031;0.084;-0.004886921960860491;-0.012217304669320583;0.0024434609804302454
01:00:0A:00:00:00:00;1724026339;19/08/24;00:12:19;1.016;-0.031;0.083;-0.0036651913542300463;-0.009773843921720982;0.0024434609804302454
01:00:0A:00:00:00:00;1724026340;19/08/24;00:12:20;1.015;-0.031;0.084;-0.004886921960860491;-0.012217304669320583;0.0036651913542300463
01:00:0A:00:00:00:00;1724026341;19/08/24;00:12:21;1.015;-0.031;0.085;-0.0036651913542300463;-0.009773843921720982;0.0036651913542300463
01:00:0A:00:00:00:00;1724026342;19/08/24;00:12:22;1.014;-0.031;0.086;-0.0036651913542300463;-0.012217304669320583;0.0036651913542300463
01:00:0A:00:00:00:00;1724026343;19/08/24;00:12:23;1.015;-0.032;0.085;-0.0024434609804302454;-0.010995574295520782;0.0036651913542300463
01:00:0A:00:00:00:00;1724026344;19/08/24;00:12:24;1.015;-0.031;0.084;-0.0024434609804302454;-0.010995574295520782;0.0024434609804302454
01:00:0A:00:00:00:00;1724026345;19/08/24;00:12:25;1.014;-0.031;0.083;-0.0024434609804302454;-0.012217304669320583;0.0036651913542300463
01:00:0A:00:00:00:00;1724026346;19/08/24;00:12:26;1.015;-0.032;0.085;-0.0024434609804302454;-0.010995574295520782;0.0024434609804302454
01:00:0A:00:00:00:00;1724026347;19/08/24;00:12:27;1.015;-0.031;0.084;-0.0012217304902151227;-0.010995574295520782;0.0036651913542300463
01:00:0A:00:00:00:00;1724026348;19/08/24;00:12:28;1.015;-0.033;0.083;-0.0012217304902151227;-0.010995574295520782;0.0036651913542300463
01:00:0A:00:00:00:00;1724026349;19/08/24;00:12:29;1.014;-0.031;0.084;-0.0012217304902151227;-0.010995574295520782;0.0036651913542300463
01:00:0A:00:00:00:00;1724026350;19/08/24;00:12:30;1.013;-0.032;0.084;-0.0012217304902151227;-0.012217304669320583;0.0036651913542300463
01:00:0A:00:00:00:00;1724026351;19/08/24;00:12:31;1.014;-0.032;0.083;0.0;-0.009773843921720982;0.0036651913542300463
01:00:0A:00:00:00:00;1724026352;19/08/24;00:12:32;1.015;-0.032;0.084;0.0;-0.012217304669320583;0.0036651913542300463
01:00:0A:00:00:00:00;1724026353;19/08/24;00:12:33;1.014;-0.032;0.085;0.0012217304902151227;-0.009773843921720982;0.0024434609804302454
01:00:0A:00:00:00:00;1724026354;19/08/24;00:12:34;1.014;-0.031;0.083;0.0;-0.012217304669320583;0.0036651913542300463
01:00:0A:00:00:00:00;1724026355;19/08/24;00:12:35;1.014;-0.033;0.083;0.0012217304902151227;-0.010995574295520782;0.0036651913542300463
01:00:0A:00:00:00:00;1724026356;19/08/24;00:12:36;1.014;-0.032;0.083;0.0012217304902151227;-0.010995574295520782;0.0036651913542300463
01:00:0A:00:00:00:00;1724026357;19/08/24;00:12:37;1.014;-0.033;0.085;0.0012217304902151227;-0.010995574295520782;0.0036651913542300463
01:00:0A:00:00:00:00;1724026358;19/08/24;00:12:38;1.014;-0.031;0.084;0.0024434609804302454;-0.010995574295520782;0.0036651913542300463
01:00:0A:00:00:00:00;1724026359;19/08/24;00:12:39;1.014;-0.032;0.084;0.0024434609804302454;-0.012217304669320583;0.0036651913542300463
01:00:0A:00:00:00:00;1724026360;19/08/24;00:12:40;1.013;-0.031;0.083;0.0024434609804302454;-0.010995574295520782;0.0036651913542300463
01:00:0A:00:00:00:00;1724026361;19/08/24;00:12:41;1.013;-0.032;0.085;0.0024434609804302454;-0.010995574295520782;0.0036651913542300463
01:00:0A:00:00:00:00;1724026362;19/08/24;00:12:42;1.014;-0.031;0.084;0.0036651913542300463;-0.010995574295520782;0.0036651913542300463
01:00:0A:00:00:00:00;1724026363;19/08/24;00:12:43;1.014;-0.031;0.084;0.0036651913542300463;-0.010995574295520782;0.0036651913542300463
01:00:0A:00:00:00:00;1724026364;19/08/24;00:12:44;1.015;-0.032;0.084;0.0036651913542300463;-0.012217304669320583;0.0036651913542300463
01:00:0A:00:00:00:00;1724026365;19/08/24;00:12:45;1.014;-0.032;0.085;0.004886921960860491;-0.009773843921720982;0.0036651913542300463
01:00:0A:00:00:00:00;1724026366;19/08/24;00:12:46;1.014;-0.032;0.084;0.004886921960860491;-0.012217304669320583;0.0036651913542300463
01:00:0A:00:00:00:00;1724026367;19/08/24;00:12:47;1.015;-0.032;0.084;0.004886921960860491;-0.010995574295520782;0.0036651913542300463
01:00:0A:00:00:00:00;1724026368;19/08/24;00:12:48;1.016;-0.031;0.084;0.004886921960860491;-0.012217304669320583;0.0036651913542300463
01:00:0A:00:00:00:00;1724026369;19/08/24;00:12:49;1.014;-0.032;0.083;0.004886921960860491;-0.012217304669320583;0.0036651913542300463
01:00:0A:00:00:00:00;1724026370;19/08/24;00:12:50;1.014;-0.031;0.084;0.006108652334660292;-0.010995574295520782;0.0036651913542300463
01:00:0A:00:00:00:00;1724026371;19/08/24;00:12:51;1.014;-0.032;0.083;0.006108652334660292;-0.010995574295520782;0.004886921960860491
01:00:0A:00:00:00:00;1724026372;19/08/24;00:12:52;1.013;-0.031;0.084;0.006108652334660292;-0.010995574295520782;0.0036651913542300463
01:00:0A:00:00:00:00;1724026373;19/08/24;00:12:53;1.013;-0.032;0.084;0.006108652334660292;-0.010995574295520782;0.004886921960860491
01:00:0A:00:00:00:00;1724026374;19/08/24;00:12:54;1.015;-0.032;0.084;0.0073303827084600925;-0.010995574295520782;0.0036651913542300463
01:00:0A:00:00:00:00;1724026375;19/08/24;00:12:55;1.014;-0.03;0.084;0.0073303827084600925;-0.010995574295520782;0.0036651913542300463
01:00:0A:00:00:00:00;1724026376;19/08/24;00:12:56;1.014;-0.031;0.083;0.0073303827084600925;-0.012217304669320583;0.0036651913542300463
01:00:0A:00:00:00:00;1724026377;19/08/24;00:12:57;1.014;-0.031;0.085;0.0073303827084600925;-0.010995574295520782;0.0036651913542300463
01:00:0A:00:00:00:00;1724026378;19/08/24;00:12:58;1.016;-0.032;0.084;0.0073303827084600925;-0.012217304669320583;0.0036651913542300463
01:00:0A:00:00:00:00;1724026379;19/08/24;00:12:59;1.014;-0.031;0.085;0.00855211354792118;-0.010995574295520782;0.0036651913542300463
01:00:0A:00:00:00:00;1724026380;19/08/24;00:13:00;1.013;-0.031;0.084;0.00855211354792118;-0.010995574295520782;0.0036651913542300463
01:00:0A:00:00:00:00;1724026381;19/08/24;00:13:01;1.015;-0.032;0.084;0.00855211354792118;-0.012217304669320583;0.0036651913542300463
01:00:0A:00:00:00:00;1724026382;19/08/24;00:13:02;1.015;-0.032;0.084;0.00855211354792118;-0.012217304669320583;0.0036651913542300463
01:00:0A:00:00:00:00;1724026383;19/08/24;00:13:03;1.015;-0.031;0.084;0.00855211354792118;-0.010995574295520782;0.0036651913542300463
01:00:0A:00:00:00:00;1724026384;19/08/24;00:13:04;1.014;-0.033;0.084;0.009773843921720982;-0.010995574295520782;0.0036651913542300463
01:00:0A:00:00:00:00;1724026385;19/08/24;00:13:05;1.014;-0.031;0.084;0.00855211354792118;-0.010995574295520782;0.0036651913542300463
01:00:0A:00:00:00:00;1724026386;19/08/24;00:13:06;1.014;-0.03;0.083;0.00855211354792118;-0.012217304669320583;0.004886921960860491
01:00:0A:00:00:00:00;1724026387;19/08/24;00:13:07;1.015;-0.032;0.084;0.009773843921720982;-0.010995574295520782;0.0036651913542300463
01:00:0A:00:00:00:00;1724026388;19/08/24;00:13:08;1.015;-0.032;0.083;0.009773843921720982;-0.010995574295520782;0.0036651913542300463
01:00:0A:00:00:00:00;1724026389;19/08/24;00:13:09;1.015;-0.031;0.085;0.009773843921720982;-0.010995574295520782;0.0036651913542300463
01:00:0A:00:00:00:00;1724026390;19/08/24;00:13:10;1.014;-0.032;0.084;0.009773843921720982;-0.012217304669320583;0.004886921960860491
01:00:0A:00:00:00:00;1724026391;19/08/24;00:13:11;1.015;-0.031;0.084;0.009773843921720982;-0.010995574295520782;0.0036651913542300463
01:00:0A:00:00:00:00;1724026392;19/08/24;00:13:12;1.013;-0.031;0.083;0.009773843921720982;-0.010995574295520782;0.0036651913542300463
01:00:0A:00:00:00:00;1724026393;19/08/24;00:13:13;1.016;-0.031;0.083;0.010995574295520782;-0.010995574295520782;0.0036651913542300463
01:00:0A:00:00:00:00;1724026394;19/08/24;00:13:14;1.015;-0.032;0.084;0.009773843921720982;-0.010995574295520782;0.0036651913542300463
01:00:0A:00:00:00:00;1724026395;19/08/24;00:13:15;1.014;-0.031;0.084;0.010995574295520782;-0.010995574295520782;0.0036651913542300463
01:00:0A:00:00:00:00;1724026396;19/08/24;00:13:16;1.014;-0.032;0.083;0.010995574295520782;-0.012217304669320583;0.0036651913542300463
01:00:0A:00:00:00:00;1724026397;19/08/24;00:13:17;1.015;-0.03;0.084;0.010995574295520782;-0.010995574295520782;0.0036651913542300463
01:00:0A:00:00:00:00;1724026398;19/08/24;00:13:18;1.014;-0.03;0.084;0.010995574295520782;-0.010995574295520782;0.0036651913542300463
01:00:0A:00:00:00:00;1724026399;19/08/24;00:13:19;1.014;-0.031;0.083;0.010995574295520782;-0.010995574295520782;0.0036651913542300463
01:00:0A:00:00:00:00;1724026400;19/08/24;00:13:20;1.015;-0.032;0.084;0.010995574295520782;-0.012217304669320583;0.0036651913542300463
01:00:0A:00:00:00:00;1724026401;19/08/24;00:13:21;1.014;-0.032;0.084;0.010995574295520782;-0.010995574295520782;0.0036651913542300463
01:00:0A:00:00:00:00;1724026402;19/08/24;00:13:22;1.015;-0.031;0.084;0.012217304669320583;-0.010995574295520782;0.0036651913542300463
01:00:0A:00:00:00:00;1724026403;19/08/24;00:13:23;1.015;-0.031;0.083;0.012217304669320583;-0.010995574295520782;0.0036651913542300463
01:00:0A:00:00:00:00;1724026404;19/08/24;00:13:24;1.014;-0.031;0.084;0.012217304669320583;-0.010995574295520782;0.004886921960860491
01:00:0A:00:00:00:00;1724026405;19/08/24;00:13:25;1.015;-0.032;0.084;0.012217304669320583;-0.012217304669320583;0.004886921960860491
01:00:0A:00:00:00:00;1724026406;19/08/24;00:13:26;1.014;-0.031;0.084;0.012217304669320583;-0.010995574295520782;0.0036651913542300463
01:00:0A:00:00:00:00;1724026407;19/08/24;00:13:27;1.014;-0.032;0.083;0.012217304669320583;-0.010995574295520782;0.0036651913542300463
01:00:0A:00:00:00:00;1724026408;19/08/24;00:13:28;1.014;-0.032;0.084;0.010995574295520782;-0.010995574295520782;0.004886921960860491
01:00:0A:00:00:00:00;1724026409;19/08/24;00:13:29;1.014;-0.031;0.084;0.010995574295520782;-0.012217304669320583;0.004886921960860491
01:00:0A:00:00:00:00;1724026410;19/08/24;00:13:30;1.014;-0.031;0.083;0.012217304669320583;-0.010995574295520782;0.0036651913542300463
01:00:0A:00:00:00:00;1724026411;19/08/24;00:13:31;1.015;-0.032;0.083;0.012217304669320583;-0.010995574295520782;0.0036651913542300463
01:00:0A:00:00:00:00;1724026412;19/08/24;00:13:32;1.014;-0.031;0.084;0.012217304669320583;-0.010995574295520782;0.0036651913542300463
01:00:0A:00:00:00:00;1724026413;19/08/24;00:13:33;1.015;-0.032;0.083;0.012217304669320583;-0.012217304669320583;0.004886921960860491
01:00:0A:00:00:00:00;1724026414;19/08/24;00:13:34;1.014;-0.031;0.083;0.012217304669320583;-0.010995574295520782;0.0036651913542300463
01:00:0A:00:00:00:00;1724026415;19/08/24;00:13:35;1.014;-0.031;0.084;0.012217304669320583;-0.010995574295520782;0.0036651913542300463
01:00:0A:00:00:00:00;1724026416;19/08/24;00:13:36;1.015;-0.032;0.084;0.012217304669320583;-0.010995574295520782;0.004886921960860491
01:00:0A:00:00:00:00;1724026417;19/08/24;00:13:37;1.014;-0.031;0.084;0.012217304669320583;-0.010995574295520782;0.0036651913542300463
01:00:0A:00:00:00:00;1724026418;19/08/24;00:13:38;1.013;-0.031;0.083;0.012217304669320583;-0.012217304669320583;0.004886921960860491
01:00:0A:00:00:00:00;1724026419;19/08/24;00:13:39;1.015;-0.032;0.083;0.013439035043120384;-0.010995574295520782;0.0036651913542300463
01:00:0A:00:00:00:00;1724026420;19/08/24;00:13:40;1.014;-0.033;0.082;0.013439035043120384;-0.010995574295520782;0.004886921960860491
01:00:0A:00:00:00:00;1724026421;19/08/24;00:13:41;1.014;-0.031;0.084;0.013439035043120384;-0.010995574295520782;0.0036651913542300463
01:00:0A:00:00:00:00;1724026422;19/08/24;00:13:42;1.015;-0.032;0.083;0.012217304669320583;-0.012217304669320583;0.004886921960860491
01:00:0A:00:00:00:00;1724026423;19/08/24;00:13:43;1.014;-0.031;0.083;0.013439035043120384;-0.012217304669320583;0.0036651913542300463
01:00:0A:00:00:00:00;1724026424;19/08/24;00:13:44;1.014;-0.031;0.084;0.013439035043120384;-0.010995574295520782;0.0036651913542300463
01:00:0A:00:00:00:00;1724026425;19/08/24;00:13:45;1.014;-0.031;0.083;0.013439035043120384;-0.010995574295520782;0.0036651913542300463
01:00:0A:00:00:00:00;1724026426;19/08/24;00:13:46;1.015;-0.031;0.084;0.013439035043120384;-0.010995574295520782;0.004886921960860491
01:00:0A:00:00:00:00;1724026427;19/08/24;00:13:47;1.014;-0.031;0.083;0.013439035043120384;-0.012217304669320583;0.0036651913542300463
01:00:0A:00:00:00:00;1724026428;19/08/24;00:13:48;1.014;-0.032;0.083;0.013439035043120384;-0.010995574295520782;0.0036651913542300463
01:00:0A:00:00:00:00;1724026429;19/08/24;00:13:49;1.016;-0.031;0.084;0.013439035043120384;-0.010995574295520782;0.0036651913542300463
01:00:0A:00:00:00:00;1724026430;19/08/24;00:13:50;1.015;-0.031;0.083;0.013439035043120384;-0.010995574295520782;0.004886921960860491
01:00:0A:00:00:00:00;1724026431;19/08/24;00:13:51;1.014;-0.032;0.084;0.013439035043120384;-0.010995574295520782;0.0036651913542300463
01:00:0A:00:00:00:00;1724026432;19/08/24;00:13:52;1.014;-0.03;0.083;0.013439035043120384;-0.010995574295520782;0.004886921960860491
01:00:0A:00:00:00:00;1724026433;19/08/24;00:13:53;1.016;-0.032;0.084;0.013439035043120384;-0.010995574295520782;0.0036651913542300463
01:00:0A:00:00:00:00;1724026434;19/08/24;00:13:54;1.014;-0.031;0.083;0.013439035043120384;-0.010995574295520782;0.0036651913542300463
01:00:0A:00:00:00:00;1724026435;19/08/24;00:13:55;1.014;-0.031;0.084;0.013439035043120384;-0.010995574295520782;0.0036651913542300463
01:00:0A:00:00:00:00;1724026436;19/08/24;00:13:56;1.015;-0.031;0.084;0.012217304669320583;-0.010995574295520782;0.0036651913542300463
01:00:0A:00:00:00:00;1724026437;19/08/24;00:13:57;1.014;-0.032;0.084;0.012217304669320583;-0.010995574295520782;0.0036651913542300463
01:00:0A:00:00:00:00;1724026438;19/08/24;00:13:58;1.015;-0.03;0.084;0.012217304669320583;-0.010995574295520782;0.0036651913542300463
01:00:0A:00:00:00:00;1724026439;19/08/24;00:13:59;1.014;-0.031;0.083;0.012217304669320583;-0.010995574295520782;0.0036651913542300463
01:00:0A:00:00:00:00;1724026440;19/08/24;00:14:00;1.015;-0.032;0.083;0.012217304669320583;-0.012217304669320583;0.0036651913542300463
01:00:0A:00:00:00:00;1724026441;19/08/24;00:14:01;1.015;-0.032;0.083;0.010995574295520782;-0.010995574295520782;0.0036651913542300463
01:00:0A:00:00:00:00;1724026442;19/08/24;00:14:02;1.013;-0.031;0.084;0.012217304669320583;-0.010995574295520782;0.0036651913542300463
01:00:0A:00:00:00:00;1724026443;19/08/24;00:14:03;1.015;-0.03;0.083;0.010995574295520782;-0.010995574295520782;0.0036651913542300463
01:00:0A:00:00:00:00;1724026444;19/08/24;00:14:04;1.013;-0.032;0.084;0.010995574295520782;-0.010995574295520782;0.0036651913542300463
01:00:0A:00:00:00:00;1724026445;19/08/24;00:14:05;1.014;-0.03;0.083;0.010995574295520782;-0.010995574295520782;0.0036651913542300463
01:00:0A:00:00:00:00;1724026446;19/08/24;00:14:06;1.015;-0.032;0.084;0.010995574295520782;-0.012217304669320583;0.0036651913542300463
01:00:0A:00:00:00:00;1724026447;19/08/24;00:14:07;1.014;-0.032;0.084;0.010995574295520782;-0.010995574295520782;0.0036651913542300463
01:00:0A:00:00:00:00;1724026448;19/08/24;00:14:08;1.015;-0.031;0.083;0.010995574295520782;-0.010995574295520782;0.0036651913542300463
01:00:0A:00:00:00:00;1724026449;19/08/24;00:14:09;1.014;-0.032;0.083;0.010995574295520782;-0.010995574295520782;0.0036651913542300463
01:00:0A:00:00:00:00;1724026450;19/08/24;00:14:10;1.015;-0.031;0.084;0.010995574295520782;-0.012217304669320583;0.0036651913542300463
01:00:0A:00:00:00:00;1724026451;19/08/24;00:14:11;1.014;-0.032;0.084;0.010995574295520782;-0.010995574295520782;0.004886921960860491
01:00:0A:00:00:00:00;1724026452;19/08/24;00:14:12;1.014;-0.031;0.083;0.010995574295520782;-0.010995574295520782;0.0036651913542300463
01:00:0A:00:00:00:00;1724026453;19/08/24;00:14:13;1.015;-0.031;0.083;0.009773843921720982;-0.010995574295520782;0.0036651913542300463
01:00:0A:00:00:00:00;1724026454;19/08/24;00:14:14;1.014;-0.031;0.084;0.009773843921720982;-0.012217304669320583;0.0036651913542300463
01:00:0A:00:00:00:00;1724026455;19/08/24;00:14:15;1.013;-0.031;0.083;0.010995574295520782;-0.010995574295520782;0.004886921960860491
01:00:0A:00:00:00:00;1724026456;19/08/24;00:14:16;1.015;-0.031;0.083;0.010995574295520782;-0.010995574295520782;0.0036651913542300463
01:00:0A:00:00:00:00;1724026457;19/08/24;00:14:17;1.014;-0.031;0.083;0.010995574295520782;-0.010995574295520782;0.0036651913542300463
01:00:0A:00:00:00:00;1724026458;19/08/24;00:14:18;1.015;-0.033;0.083;0.010995574295520782;-0.010995574295520782;0.0036651913542300463
01:00:0A:00:00:00:00;1724026459;19/08/24;00:14:19;1.015;-0.032;0.083;0.010995574295520782;-0.012217304669320583;0.0036651913542300463
01:00:0A:00:00:00:00;1724026460;19/08/24;00:14:20;1.016;-0.031;0.084;0.010995574295520782;-0.010995574295520782;0.004886921960860491
01:00:0A:00:00:00:00;1724026461;19/08/24;00:14:21;1.014;-0.032;0.083;0.010995574295520782;-0.010995574295520782;0.004886921960860491
01:00:0A:00:00:00:00;1724026462;19/08/24;00:14:22;1.015;-0.031;0.085;0.010995574295520782;-0.010995574295520782;0.004886921960860491
01:00:0A:00:00:00:00;1724026463;19/08/24;00:14:23;1.014;-0.03;0.083;0.010995574295520782;-0.010995574295520782;0.004886921960860491
01:00:0A:00:00:00:00;1724026464;19/08/24;00:14:24;1.015;-0.031;0.084;0.010995574295520782;-0.010995574295520782;0.0036651913542300463
01:00:0A:00:00:00:00;1724026465;19/08/24;00:14:25;1.013;-0.032;0.084;0.010995574295520782;-0.010995574295520782;0.0036651913542300463
01:00:0A:00:00:00:00;1724026466;19/08/24;00:14:26;1.016;-0.032;0.084;0.010995574295520782;-0.010995574295520782;0.0036651913542300463
01:00:0A:00:00:00:00;1724026467;19/08/24;00:14:27;1.014;-0.032;0.084;0.010995574295520782;-0.010995574295520782;0.0036651913542300463
01:00:0A:00:00:00:00;1724026468;19/08/24;00:14:28;1.016;-0.031;0.083;0.010995574295520782;-0.010995574295520782;0.0036651913542300463
01:00:0A:00:00:00:00;1724026469;19/08/24;00:14:29;1.014;-0.032;0.084;0.010995574295520782;-0.012217304669320583;0.0036651913542300463
01:00:0A:00:00:00:00;1724026470;19/08/24;00:14:30;1.014;-0.032;0.084;0.010995574295520782;-0.010995574295520782;0.0036651913542300463
01:00:0A:00:00:00:00;1724026471;19/08/24;00:14:31;1.015;-0.032;0.083;0.010995574295520782;-0.010995574295520782;0.0036651913542300463
01:00:0A:00:00:00:00;1724026472;19/08/24;00:14:32;1.015;-0.032;0.084;0.010995574295520782;-0.012217304669320583;0.004886921960860491
01:00:0A:00:00:00:00;1724026473;19/08/24;00:14:33;1.015;-0.031;0.083;0.010995574295520782;-0.010995574295520782;0.0036651913542300463
01:00:0A:00:00:00:00;1724026474;19/08/24;00:14:34;1.014;-0.031;0.084;0.009773843921720982;-0.010995574295520782;0.0036651913542300463
01:00:0A:00:00:00:00;1724026475;19/08/24;00:14:35;1.014;-0.032;0.083;0.010995574295520782;-0.010995574295520782;0.0036651913542300463
01:00:0A:00:00:00:00;1724026476;19/08/24;00:14:36;1.014;-0.031;0.084;0.010995574295520782;-0.012217304669320583;0.0036651913542300463
01:00:0A:00:00:00:00;1724026477;19/08/24;00:14:37;1.014;-0.032;0.083;0.010995574295520782;-0.010995574295520782;0.004886921960860491
01:00:0A:00:00:00:00;1724026478;19/08/24;00:14:38;1.014;-0.032;0.084;0.010995574295520782;-0.010995574295520782;0.0036651913542300463
01:00:0A:00:00:00:00;1724026479;19/08/24;00:14:39;1.015;-0.031;0.084;0.010995574295520782;-0.010995574295520782;0.0036651913542300463
01:00:0A:00:00:00:00;1724026480;19/08/24;00:14:40;1.014;-0.031;0.083;0.010995574295520782;-0.010995574295520782;0.0036651913542300463
01:00:0A:00:00:00:00;1724026481;19/08/24;00:14:41;1.015;-0.031;0.084;0.010995574295520782;-0.010995574295520782;0.0036651913542300463
01:00:0A:00:00:00:00;1724026482;19/08/24;00:14:42;1.015;-0.031;0.083;0.009773843921720982;-0.012217304669320583;0.0036651913542300463
01:00:0A:00:00:00:00;1724026483;19/08/24;00:14:43;1.015;-0.032;0.083;0.010995574295520782;-0.010995574295520782;0.004886921960860491
01:00:0A:00:00:00:00;1724026484;19/08/24;00:14:44;1.015;-0.031;0.083;0.010995574295520782;-0.010995574295520782;0.0036651913542300463
01:00:0A:00:00:00:00;1724026485;19/08/24;00:14:45;1.015;-0.031;0.083;0.010995574295520782;-0.010995574295520782;0.0036651913542300463
01:00:0A:00:00:00:00;1724026486;19/08/24;00:14:46;1.014;-0.032;0.083;0.009773843921720982;-0.012217304669320583;0.0036651913542300463
01:00:0A:00:00:00:00;1724026487;19/08/24;00:14:47;1.014;-0.031;0.083;0.010995574295520782;-0.010995574295520782;0.0036651913542300463
01:00:0A:00:00:00:00;1724026488;19/08/24;00:14:48;1.014;-0.032;0.084;0.010995574295520782;-0.010995574295520782;0.0036651913542300463
01:00:0A:00:00:00:00;1724026489;19/08/24;00:14:49;1.015;-0.031;0.083;0.009773843921720982;-0.010995574295520782;0.0036651913542300463
01:00:0A:00:00:00:00;1724026490;19/08/24;00:14:50;1.014;-0.03;0.083;0.010995574295520782;-0.010995574295520782;0.0036651913542300463
01:00:0A:00:00:00:00;1724026491;19/08/24;00:14:51;1.014;-0.032;0.084;0.009773843921720982;-0.010995574295520782;0.004886921960860491
01:00:0A:00:00:00:00;1724026492;19/08/24;00:14:52;1.015;-0.032;0.083;0.010995574295520782;-0.010995574295520782;0.0036651913542300463
01:00:0A:00:00:00:00;1724026493;19/08/24;00:14:53;1.014;-0.031;0.083;0.010995574295520782;-0.010995574295520782;0.0036651913542300463
01:00:0A:00:00:00:00;1724026494;19/08/24;00:14:54;1.014;-0.032;0.083;0.010995574295520782;-0.012217304669320583;0.0036651913542300463
01:00:0A:00:00:00:00;1724026495;19/08/24;00:14:55;1.015;-0.032;0.082;0.010995574295520782;-0.010995574295520782;0.0036651913542300463
01:00:0A:00:00:00:00;1724026496;19/08/24;00:14:56;1.013;-0.031;0.083;0.010995574295520782;-0.012217304669320583;0.0036651913542300463
01:00:0A:00:00:00:00;1724026497;19/08/24;00:14:57;1.014;-0.032;0.083;0.010995574295520782;-0.010995574295520782;0.0036651913542300463
01:00:0A:00:00:00:00;1724026498;19/08/24;00:14:58;1.015;-0.032;0.084;0.010995574295520782;-0.010995574295520782;0.0036651913542300463
01:00:0A:00:00:00:00;1724026499;19/08/24;00:14:59;1.015;-0.031;0.084;0.010995574295520782;-0.010995574295520782;0.0036651913542300463
01:00:0A:00:00:00:00;1724026500;19/08/24;00:15:00;1.016;-0.032;0.083;0.010995574295520782;-0.010995574295520782;0.0036651913542300463
01:00:0A:00:00:00:00;1724026501;19/08/24;00:15:01;1.015;-0.031;0.085;0.010995574295520782;-0.010995574295520782;0.0036651913542300463
01:00:0A:00:00:00:00;1724026502;19/08/24;00:15:02;1.013;-0.031;0.083;0.010995574295520782;-0.010995574295520782;0.0036651913542300463
01:00:0A:00:00:00:00;1724026503;19/08/24;00:15:03;1.014;-0.03;0.084;0.010995574295520782;-0.010995574295520782;0.0036651913542300463
01:00:0A:00:00:00:00;1724026504;19/08/24;00:15:04;1.015;-0.032;0.083;0.012217304669320583;-0.010995574295520782;0.004886921960860491
01:00:0A:00:00:00:00;1724026505;19/08/24;00:15:05;1.015;-0.031;0.083;0.012217304669320583;-0.010995574295520782;0.004886921960860491
01:00:0A:00:00:00:00;1724026506;19/08/24;00:15:06;1.013;-0.03;0.083;0.012217304669320583;-0.010995574295520782;0.004886921960860491
01:00:0A:00:00:00:00;1724026507;19/08/24;00:15:07;1.013;-0.032;0.084;0.012217304669320583;-0.010995574295520782;0.0036651913542300463
01:00:0A:00:00:00:00;1724026508;19/08/24;00:15:08;1.015;-0.031;0.083;0.010995574295520782;-0.012217304669320583;0.004886921960860491
01:00:0A:00:00:00:00;1724026509;19/08/24;00:15:09;1.014;-0.032;0.083;0.010995574295520782;-0.010995574295520782;0.0036651913542300463
01:00:0A:00:00:00:00;1724026510;19/08/24;00:15:10;1.014;-0.031;0.084;0.012217304669320583;-0.010995574295520782;0.004886921960860491
