Source;Epoch timestamp (UTC);Date;Time (UTC);Accel X (G);Accel Y (G);Accel Z (G);Gyro X (rad/s);Gyro Y (rad/s);Gyro Z (rad/s)
01:00:0A:00:00:00:00;1724198394;20/08/24;23:59:54;0.911;0.063;0.405;0.32009339332580566;-1.540602207183838;-0.4764748811721802
01:00:0A:00:00:00:00;1724198395;20/08/24;23:59:55;0.889;-0.182;-0.197;0.24434609711170197;0.3848450779914856;0.5485569834709167
01:00:0A:00:00:00:00;1724198396;20/08/24;23:59:56;1.007;-0.066;-0.101;0.2822197377681732;0.16982054710388184;0.4349360466003418
01:00:0A:00:00:00:00;1724198397;20/08/24;23:59:57;0.967;-0.289;0.306;0.37140607833862305;-0.2076941877603531;-0.6572909951210022
01:00:0A:00:00:00:00;1724198398;20/08/24;23:59:58;0.808;0.726;-0.107;-0.46792274713516235;-0.3494149148464203;0.8429940342903137
01:00:0A:00:00:00:00;1724198399;20/08/24;23:59:59;0.951;-0.27;0.317;-0.4703662395477295;-0.3274237811565399;-0.3042108714580536
01:00:0A:00:00:00:00;1724198400;21/08/24;00:00:00;0.996;0.281;0.031;-0.36651912331581116;0.019547687843441963;0.14294245839118958
01:00:0A:00:00:00:00;1724198401;21/08/24;00:00:01;1.013;-0.215;0.09;-0.3836233615875244;-0.14538592100143433;0.46670106053352356
01:00:0A:00:00:00:00;1724198402;21/08/24;00:00:02;0.992;-0.124;0.031;0.13439035415649414;0.46547931432724;0.34208452701568604
01:00:0A:00:00:00:00;1724198403;21/08/24;00:00:03;0.824;0.359;0.275;-0.23090705275535583;-1.490511178970337;-0.2932153046131134
01:00:0A:00:00:00:00;1724198404;21/08/24;00:00:04;0.898;0.054;-0.186;-0.5656611919403076;0.12095131725072861;0.44104471802711487
01:00:0A:00:00:00:00;1724198405;21/08/24;00:00:05;0.959;0.081;0.144;-0.42638394236564636;1.1679743528366089;-0.4495967924594879
01:00:0A:00:00:00:00;1724198406;21/08/24;00:00:06;0.854;0.141;0.333;-0.7550294399261475;-1.725083351135254;-0.1062905490398407
01:00:0A:00:00:00:00;1724198407;21/08/24;00:00:07;0.919;0.154;-0.184;-0.7867944240570068;-0.08918632566928864;0.5094615817070007
01:00:0A:00:00:00:00;1724198408;21/08/24;00:00:08;0.992;0.173;-0.048;-0.8674286603927612;0.3286454975605011;0.9272934198379517
01:00:0A:00:00:00:00;1724198409;21/08/24;00:00:09;0.964;-0.269;0.051;-0.6988298296928406;-0.02321287989616394;-0.05253440886735916
01:00:0A:00:00:00:00;1724198410;21/08/24;00:00:10;1.035;-0.097;0.109;-0.5717698335647583;-0.0659734457731247;0.09285151958465576
01:00:0A:00:00:00:00;1724198411;21/08/24;00:00:11;1.011;-0.273;-0.048;-0.21502456068992615;0.2223549485206604;0.11484266817569733
01:00:0A:00:00:00:00;1724198412;21/08/24;00:00:12;0.764;0.417;0.691;-0.2919935882091522;-0.6792821884155273;-0.4239404499530792
01:00:0A:00:00:00:00;1724198413;21/08/24;00:00:13;0.937;-0.015;-0.288;-0.3433062732219696;-0.03298672288656235;0.03176499158143997
01:00:0A:00:00:00:00;1724198414;21/08/24;00:00:14;0.818;0.406;-0.304;-0.3579670488834381;-0.7073819637298584;-0.7440338730812073
01:00:0A:00:00:00:00;1724198415;21/08/24;00:00:15;0.947;-0.376;0.125;-0.3530800938606262;0.9236282110214233;1.0665706396102905
01:00:0A:00:00:00:00;1724198416;21/08/24;00:00:16;1.007;-0.189;0.278;-0.09162978082895279;0.27488934993743896;-0.6157521605491638
01:00:0A:00:00:00:00;1724198417;21/08/24;00:00:17;0.803;-0.598;0.15;-1.0519099235534668;-0.436157763004303;0.31642818450927734
01:00:0A:00:00:00:00;1724198418;21/08/24;00:00:18;0.949;0.014;0.264;-0.36163222789764404;0.7110471129417419;-1.0396926403045654
01:00:0A:00:00:00:00;1724198419;21/08/24;00:00:19;0.722;0.65;0.313;-2.337170362472534;-1.0580185651779175;-0.9346237778663635
01:00:0A:00:00:00:00;1724198420;21/08/24;00:00:20;0.894;0.139;0.463;-2.6645941734313965;-0.656069278717041;-0.6426302194595337
01:00:0A:00:00:00:00;1724198421;21/08/24;00:00:21;0.95;0.064;0.069;-2.689028739929199;-1.1044443845748901;-0.02076941914856434
01:00:0A:00:00:00:00;1724198422;21/08/24;00:00:22;0.844;0.355;-0.69;0.06108652427792549;-1.4526375532150269;-0.7525859475135803
01:00:0A:00:00:00:00;1724198423;21/08/24;00:00:23;0.833;0.425;-0.084;-0.0659734457731247;-1.2034045457839966;-1.7776178121566772
01:00:0A:00:00:00:00;1724198424;21/08/24;00:00:24;1.1;0.236;0.422;-0.7220427393913269;0.9822713136672974;-1.5528194904327393
01:00:0A:00:00:00:00;1724198425;21/08/24;00:00:25;0.799;-0.718;0.268;-0.9663888216018677;1.695761799812317;1.5344934463500977
01:00:0A:00:00:00:00;1724198426;21/08/24;00:00:26;0.765;0.075;-0.325;-0.6780604124069214;-2.4727823734283447;1.4379768371582031
01:00:0A:00:00:00:00;1724198427;21/08/24;00:00:27;0.795;-0.312;0.649;-0.8503243923187256;1.4795156717300415;-1.653001308441162
01:00:0A:00:00:00:00;1724198428;21/08/24;00:00:28;1.013;0.117;-0.259;-1.540602207183838;-1.1484266519546509;0.22846359014511108
01:00:0A:00:00:00:00;1724198429;21/08/24;00:00:29;0.935;0.332;0.247;-0.7819074988365173;1.1582003831863403;0.2577851116657257
01:00:0A:00:00:00:00;1724198430;21/08/24;00:00:30;0.739;0.066;0.67;-1.508837103843689;0.4153883755207062;-0.5974262356758118
01:00:0A:00:00:00:00;1724198431;21/08/24;00:00:31;0.955;0.372;-0.335;0.039095375686883926;-1.1557570695877075;-0.7086036801338196
01:00:0A:00:00:00:00;1724198432;21/08/24;00:00:32;0.938;0.257;0.22;-0.019547687843441963;0.4092797040939331;-1.1496483087539673
01:00:0A:00:00:00:00;1724198433;21/08/24;00:00:33;1.012;-0.02;-0.056;-0.5534439086914062;-0.6047565937042236;0.779464066028595
01:00:0A:00:00:00:00;1724198434;21/08/24;00:00:34;0.944;0.174;-0.198;-0.10262535512447357;-0.2028072476387024;-0.5277875661849976
01:00:0A:00:00:00:00;1724198435;21/08/24;00:00:35;1.024;0.0;0.105;-0.08552113175392151;0.42638394236564636;0.1820378452539444
01:00:0A:00:00:00:00;1724198436;21/08/24;00:00:36;1.001;0.251;0.192;-0.24068090319633484;-0.32131510972976685;-0.8613200187683105
01:00:0A:00:00:00:00;1724198437;21/08/24;00:00:37;0.758;0.622;0.376;-0.6939429044723511;-0.16982054710388184;0.3946189284324646
01:00:0A:00:00:00:00;1724198438;21/08/24;00:00:38;0.935;0.202;-0.279;-0.5925393104553223;-0.07819075137376785;-0.2076941877603531
01:00:0A:00:00:00:00;1724198439;21/08/24;00:00:39;0.936;0.153;0.315;-0.7012733221054077;-0.3127630054950714;0.3543018400669098
01:00:0A:00:00:00:00;1724198440;21/08/24;00:00:40;0.946;0.217;0.183;-0.5962044596672058;-0.12217304855585098;-0.3445279896259308
01:00:0A:00:00:00:00;1724198441;21/08/24;00:00:41;1.016;0.009;0.137;-0.8051203489303589;-0.4813618063926697;0.40194931626319885
01:00:0A:00:00:00:00;1724198442;21/08/24;00:00:42;0.987;-0.2;-0.266;-0.3127630054950714;0.436157763004303;-0.05253440886735916
01:00:0A:00:00:00:00;1724198443;21/08/24;00:00:43;1.019;0.025;0.328;-0.2480112910270691;0.3481931686401367;0.313984751701355
01:00:0A:00:00:00:00;1724198444;21/08/24;00:00:44;1.008;-0.208;0.019;-0.06108652427792549;-0.43860122561454773;-0.5754350423812866
01:00:0A:00:00:00:00;1724198445;21/08/24;00:00:45;0.937;0.264;-0.164;-0.3481931686401367;-0.5473352670669556;0.4789183437824249
01:00:0A:00:00:00:00;1724198446;21/08/24;00:00:46;0.875;-0.343;-0.315;0.08429940044879913;0.6047565937042236;0.5791001915931702
01:00:0A:00:00:00:00;1724198447;21/08/24;00:00:47;1.045;0.091;0.402;0.08796459436416626;-0.2919935882091522;-1.4208725690841675
01:00:0A:00:00:00:00;1724198448;21/08/24;00:00:48;0.903;0.504;0.016;-2.6988024711608887;-1.605353832244873;-0.2687807083129883
01:00:0A:00:00:00:00;1724198449;21/08/24;00:00:49;0.956;0.365;-0.046;-3.1422908306121826;-0.9957103133201599;0.24434609711170197
01:00:0A:00:00:00:00;1724198450;21/08/24;00:00:50;0.997;-0.069;-0.265;-3.2730159759521484;-0.4703662395477295;0.5827654600143433
01:00:0A:00:00:00:00;1724198451;21/08/24;00:00:51;0.925;0.406;-0.184;-2.624277114868164;-0.6646214127540588;0.836885392665863
01:00:0A:00:00:00:00;1724198452;21/08/24;00:00:52;0.773;0.511;-0.37;-2.0622808933258057;-0.9871581792831421;0.3738495111465454
01:00:0A:00:00:00:00;1724198453;21/08/24;00:00:53;0.985;0.2;-0.297;-1.2217304706573486;0.37262779474258423;0.4996877610683441
01:00:0A:00:00:00:00;1724198454;21/08/24;00:00:54;1.006;-0.312;0.047;-1.1423180103302002;0.07696902006864548;-0.31154125928878784
01:00:0A:00:00:00:00;1724198455;21/08/24;00:00:55;1.028;-0.049;0.284;-1.0396926403045654;-0.06963863223791122;0.04642575979232788
01:00:0A:00:00:00:00;1724198456;21/08/24;00:00:56;0.873;-0.31;0.446;-0.8857545852661133;-0.18814648687839508;-0.9224064946174622
01:00:0A:00:00:00:00;1724198457;21/08/24;00:00:57;0.806;0.147;0.755;-1.0140362977981567;0.3029891550540924;-0.3274237811565399
01:00:0A:00:00:00:00;1724198458;21/08/24;00:00:58;1.029;0.097;-0.267;-1.0348056554794312;-0.004886921960860491;-0.3591887652873993
01:00:0A:00:00:00:00;1724198459;21/08/24;00:00:59;0.995;-0.057;0.315;-0.9224064946174622;-0.28466320037841797;0.1062905490398407
01:00:0A:00:00:00:00;1724198460;21/08/24;00:01:00;0.897;-0.127;-0.101;-0.6010913848876953;-0.015882495790719986;0.15515977144241333
01:00:0A:00:00:00:00;1724198461;21/08/24;00:01:01;0.986;-0.003;0.128;-0.21868975460529327;0.5143485069274902;-0.6609562039375305
01:00:0A:00:00:00:00;1724198462;21/08/24;00:01:02;0.951;-0.038;0.391;-0.6633996367454529;-0.2015855312347412;0.31154125928878784
01:00:0A:00:00:00:00;1724198463;21/08/24;00:01:03;0.919;-0.251;0.394;-0.5351179242134094;0.006108652334660292;-0.27611109614372253
01:00:0A:00:00:00:00;1724198464;21/08/24;00:01:04;1.022;0.186;-0.1;-0.5962044596672058;-0.8698720932006836;-0.03298672288656235
01:00:0A:00:00:00:00;1724198465;21/08/24;00:01:05;0.931;0.024;-0.421;-0.5839871764183044;0.5998696088790894;1.0946705341339111
01:00:0A:00:00:00:00;1724198466;21/08/24;00:01:06;0.952;-0.163;0.399;-1.8851301670074463;0.48380526900291443;-0.3433062732219696
01:00:0A:00:00:00:00;1724198467;21/08/24;00:01:07;0.907;0.24;0.274;-1.4734070301055908;0.9541715383529663;-1.0323623418807983
01:00:0A:00:00:00:00;1724198468;21/08/24;00:01:08;0.984;-0.076;0.008;-2.648711681365967;-0.5021312236785889;-1.5833626985549927
01:00:0A:00:00:00:00;1724198469;21/08/24;00:01:09;1.014;-0.162;0.167;-2.4935519695281982;-0.4740314185619354;-0.16004669666290283
01:00:0A:00:00:00:00;1724198470;21/08/24;00:01:10;1.0;-0.063;0.106;-2.0476202964782715;0.21380282938480377;0.533896267414093
01:00:0A:00:00:00:00;1724198471;21/08/24;00:01:11;0.915;-0.084;-0.419;-1.226617455482483;0.21991148591041565;-0.22846359014511108
01:00:0A:00:00:00:00;1724198472;21/08/24;00:01:12;1.019;-0.125;0.286;-0.8943067193031311;0.045204028487205505;0.2822197377681732
01:00:0A:00:00:00:00;1724198473;21/08/24;00:01:13;1.014;-0.04;0.312;-0.5485569834709167;-0.06841690838336945;-0.33719760179519653
01:00:0A:00:00:00:00;1724198474;21/08/24;00:01:14;1.05;0.108;-0.023;-1.9132298231124878;-1.016479730606079;0.03787364438176155
01:00:0A:00:00:00:00;1724198475;21/08/24;00:01:15;0.988;0.124;-0.212;-1.722640037536621;-0.24434609711170197;0.4801400899887085
01:00:0A:00:00:00:00;1724198476;21/08/24;00:01:16;0.996;-0.174;-0.167;-1.4062117338180542;-0.051312677562236786;0.6096435189247131
01:00:0A:00:00:00:00;1724198477;21/08/24;00:01:17;1.066;0.096;0.065;-1.0653489828109741;0.0659734457731247;-0.6291911602020264
01:00:0A:00:00:00:00;1724198478;21/08/24;00:01:18;0.879;0.356;0.406;-1.3292428255081177;-0.27000245451927185;0.6743952035903931
01:00:0A:00:00:00:00;1724198479;21/08/24;00:01:19;0.928;-0.026;-0.369;-0.8136724829673767;0.015882495790719986;0.006108652334660292
01:00:0A:00:00:00:00;1724198480;21/08/24;00:01:20;0.941;-0.165;0.055;-0.5400049090385437;0.8820894360542297;-0.36651912331581116
01:00:0A:00:00:00:00;1724198481;21/08/24;00:01:21;0.916;0.116;0.026;-0.8271114826202393;-0.5277875661849976;-0.28099802136421204
01:00:0A:00:00:00:00;1724198482;21/08/24;00:01:22;0.928;0.052;-0.099;-0.891863226890564;-0.1319468915462494;0.8429940342903137
01:00:0A:00:00:00:00;1724198483;21/08/24;00:01:23;0.978;-0.179;0.258;-0.6291911602020264;0.7648032903671265;-0.34208452701568604
01:00:0A:00:00:00:00;1724198484;21/08/24;00:01:24;1.029;-0.331;0.202;-0.7061601877212524;-0.41294488310813904;-0.3604104816913605
01:00:0A:00:00:00:00;1724198485;21/08/24;00:01:25;0.915;0.472;0.179;-0.6866125464439392;-0.1368338167667389;0.5815436840057373
01:00:0A:00:00:00:00;1724198486;21/08/24;00:01:26;0.973;0.234;0.109;-1.1325441598892212;-0.17592918872833252;1.3683381080627441
01:00:0A:00:00:00:00;1724198487;21/08/24;00:01:27;0.775;-0.507;-0.204;-0.4141666293144226;0.010995574295520782;-0.2480112910270691
01:00:0A:00:00:00:00;1724198488;21/08/24;00:01:28;0.946;0.165;0.388;0.04764748737215996;0.8271114826202393;-0.6536257863044739
01:00:0A:00:00:00:00;1724198489;21/08/24;00:01:29;0.866;0.039;0.554;-0.2932153046131134;-0.8100073337554932;0.38606682419776917
01:00:0A:00:00:00:00;1724198490;21/08/24;00:01:30;0.961;0.053;-0.287;-1.4721851348876953;-0.40194931626319885;0.911410927772522
01:00:0A:00:00:00:00;1724198491;21/08/24;00:01:31;1.026;0.014;0.047;-1.2510520219802856;0.2431243658065796;-0.021991148591041565
01:00:0A:00:00:00:00;1724198492;21/08/24;00:01:32;0.945;-0.406;0.089;0.0757472887635231;-0.5253441333770752;-1.4196507930755615
01:00:0A:00:00:00:00;1724198493;21/08/24;00:01:33;0.829;0.531;-0.192;0.010995574295520782;0.41172316670417786;0.03787364438176155
01:00:0A:00:00:00:00;1724198494;21/08/24;00:01:34;1.026;0.045;0.016;-0.4202752709388733;-0.375071257352829;-0.5155702233314514
01:00:0A:00:00:00:00;1724198495;21/08/24;00:01:35;0.971;-0.221;-0.172;-0.21624629199504852;1.5711454153060913;0.5204571485519409
01:00:0A:00:00:00:00;1724198496;21/08/24;00:01:36;0.964;0.157;0.337;-0.3738495111465454;-0.46181410551071167;-0.862541675567627
01:00:0A:00:00:00:00;1724198497;21/08/24;00:01:37;0.818;0.524;-0.096;-0.6181955933570862;-0.6108652353286743;0.22968533635139465
01:00:0A:00:00:00:00;1724198498;21/08/24;00:01:38;1.01;0.028;-0.082;-0.6243042349815369;-0.04642575979232788;0.9175195693969727
01:00:0A:00:00:00:00;1724198499;21/08/24;00:01:39;0.999;-0.092;-0.003;-0.2626720666885376;0.09162978082895279;-0.27611109614372253
01:00:0A:00:00:00:00;1724198500;21/08/24;00:01:40;0.985;0.115;0.169;-0.24678954482078552;-0.13927726447582245;0.09162978082895279
01:00:0A:00:00:00:00;1724198501;21/08/24;00:01:41;1.026;-0.043;-0.052;-0.2993239760398865;0.028099799528717995;0.2736676335334778
01:00:0A:00:00:00:00;1724198502;21/08/24;00:01:42;1.04;-0.24;0.169;-0.19547687470912933;0.15271630883216858;-0.41661006212234497
01:00:0A:00:00:00:00;1724198503;21/08/24;00:01:43;0.989;0.365;0.103;-0.028099799528717995;-0.18081611394882202;0.2993239760398865
01:00:0A:00:00:00:00;1724198504;21/08/24;00:01:44;1.0;-0.428;0.026;-0.040317103266716;0.06108652427792549;0.3323107063770294
01:00:0A:00:00:00:00;1724198505;21/08/24;00:01:45;1.043;0.129;0.067;0.05497787147760391;-0.039095375686883926;-0.4337143301963806
01:00:0A:00:00:00:00;1724198506;21/08/24;00:01:46;1.013;0.038;0.002;-0.05009094998240471;-0.018325956538319588;0.2638937830924988
01:00:0A:00:00:00:00;1724198507;21/08/24;00:01:47;0.971;-0.144;0.126;-0.036651913076639175;0.20891590416431427;-0.01710422709584236
01:00:0A:00:00:00:00;1724198508;21/08/24;00:01:48;0.981;0.081;0.096;-0.1319468915462494;-0.3897320330142975;-0.2687807083129883
01:00:0A:00:00:00:00;1724198509;21/08/24;00:01:49;0.993;0.051;-0.073;-0.27488934993743896;0.1111774742603302;0.40194931626319885
01:00:0A:00:00:00:00;1724198510;21/08/24;00:01:50;0.977;-0.196;0.238;-0.3152064383029938;0.17348572611808777;-0.3017674386501312
01:00:0A:00:00:00:00;1724198511;21/08/24;00:01:51;1.005;0.137;0.222;-0.4960225820541382;-0.42271876335144043;-0.2565633952617645
01:00:0A:00:00:00:00;1724198512;21/08/24;00:01:52;1.015;0.071;-0.171;-0.5925393104553223;-0.1820378452539444;0.29077184200286865
01:00:0A:00:00:00:00;1724198513;21/08/24;00:01:53;0.994;-0.287;0.073;-0.48869219422340393;0.31154125928878784;0.23090705275535583
01:00:0A:00:00:00:00;1724198514;21/08/24;00:01:54;1.008;0.04;0.16;-0.45814892649650574;-0.0073303827084600925;-0.4789183437824249
01:00:0A:00:00:00:00;1724198515;21/08/24;00:01:55;0.985;0.2;0.04;-0.6511822938919067;-0.27488934993743896;0.13561207056045532
01:00:0A:00:00:00:00;1724198516;21/08/24;00:01:56;1.01;-0.09;0.001;-0.7183775305747986;0.07208210229873657;0.3885102868080139
01:00:0A:00:00:00:00;1724198517;21/08/24;00:01:57;0.999;-0.147;0.162;-0.645073652267456;0.1820378452539444;-0.2993239760398865
01:00:0A:00:00:00:00;1724198518;21/08/24;00:01:58;1.004;0.097;0.136;-0.7562511563301086;-0.251676470041275;-0.1918116807937622
01:00:0A:00:00:00:00;1724198519;21/08/24;00:01:59;1.004;-0.013;-0.073;-0.836885392665863;-0.1514945775270462;0.27000245451927185
01:00:0A:00:00:00:00;1724198520;21/08/24;00:02:00;0.997;-0.099;0.079;-0.7489207983016968;0.3347541391849518;0.0012217304902151227
01:00:0A:00:00:00:00;1724198521;21/08/24;00:02:01;0.987;-0.061;0.203;-0.779464066028595;-0.1563815027475357;-0.26633724570274353
01:00:0A:00:00:00:00;1724198522;21/08/24;00:02:02;1.012;0.105;0.028;-0.8344419002532959;-0.20036379992961884;-0.039095375686883926
01:00:0A:00:00:00:00;1724198523;21/08/24;00:02:03;1.027;-0.006;-0.003;-0.8503243923187256;-0.025656338781118393;0.20402899384498596
01:00:0A:00:00:00:00;1724198524;21/08/24;00:02:04;1.033;-0.078;0.067;-0.7855727076530457;0.0708603635430336;-0.11484266817569733
01:00:0A:00:00:00:00;1724198525;21/08/24;00:02:05;1.022;0.078;0.143;-0.8100073337554932;-0.04153883829712868;-0.17104226350784302
01:00:0A:00:00:00:00;1724198526;21/08/24;00:02:06;1.018;-0.043;-0.03;-0.8246681094169617;-0.2125810980796814;0.14782939851284027
01:00:0A:00:00:00:00;1724198527;21/08/24;00:02:07;1.086;0.051;-0.029;-0.7953465580940247;0.03176499158143997;-0.0659734457731247
01:00:0A:00:00:00:00;1724198528;21/08/24;00:02:08;0.983;-0.117;0.069;-0.7281513810157776;0.10506881773471832;0.31031954288482666
01:00:0A:00:00:00:00;1724198529;21/08/24;00:02:09;0.989;-0.161;0.04;-0.5448917746543884;0.09162978082895279;-0.36529743671417236
01:00:0A:00:00:00:00;1724198530;21/08/24;00:02:10;0.986;0.066;0.15;-0.5290092825889587;-0.025656338781118393;-0.02687807008624077
01:00:0A:00:00:00:00;1724198531;21/08/24;00:02:11;1.016;-0.053;0.087;-0.5363396406173706;-0.22113320231437683;0.08185594528913498
01:00:0A:00:00:00:00;1724198532;21/08/24;00:02:12;1.022;-0.051;-0.026;-0.42271876335144043;0.13316862285137177;-0.06108652427792549
01:00:0A:00:00:00:00;1724198533;21/08/24;00:02:13;1.02;-0.032;0.197;-0.40194931626319885;-0.07696902006864548;-0.05253440886735916
01:00:0A:00:00:00:00;1724198534;21/08/24;00:02:14;1.038;-0.012;-0.014;-0.39584067463874817;-0.20036379992961884;-0.08552113175392151
01:00:0A:00:00:00:00;1724198535;21/08/24;00:02:15;1.034;0.015;0.013;-0.35552355647087097;0.09773843735456467;0.04642575979232788
01:00:0A:00:00:00:00;1724198536;21/08/24;00:02:16;1.006;-0.077;0.134;-0.33964109420776367;0.039095375686883926;0.09529497474431992
01:00:0A:00:00:00:00;1724198537;21/08/24;00:02:17;0.987;0.04;0.014;-0.29565879702568054;-0.13316862285137177;-0.18081611394882202
01:00:0A:00:00:00:00;1724198538;21/08/24;00:02:18;0.983;0.01;0.045;-0.2981022298336029;0.059864792972803116;0.20647244155406952
01:00:0A:00:00:00:00;1724198539;21/08/24;00:02:19;0.997;-0.065;0.058;-0.22968533635139465;-0.051312677562236786;-0.1771509200334549
01:00:0A:00:00:00:00;1724198540;21/08/24;00:02:20;1.016;0.068;0.073;-0.23457224667072296;-0.03420845419168472;-0.021991148591041565
01:00:0A:00:00:00:00;1724198541;21/08/24;00:02:21;1.024;-0.011;0.067;-0.24434609711170197;-0.024434609338641167;0.1014036238193512
01:00:0A:00:00:00:00;1724198542;21/08/24;00:02:22;1.029;-0.059;0.077;-0.19792033731937408;0.03298672288656235;-0.09162978082895279
01:00:0A:00:00:00:00;1724198543;21/08/24;00:02:23;1.033;0.05;0.093;-0.21135938167572021;0.025656338781118393;-0.05742133408784866
01:00:0A:00:00:00:00;1724198544;21/08/24;00:02:24;1.029;-0.036;0.061;-0.2370157092809677;-0.05497787147760391;0.080634206533432
01:00:0A:00:00:00:00;1724198545;21/08/24;00:02:25;1.003;-0.017;0.062;-0.2076941877603531;0.014660765416920185;-0.06352998316287994
01:00:0A:00:00:00:00;1724198546;21/08/24;00:02:26;1.002;-0.005;0.096;-0.21868975460529327;0.009773843921720982;0.0024434609804302454
01:00:0A:00:00:00:00;1724198547;21/08/24;00:02:27;1.015;-0.023;0.063;-0.22846359014511108;-0.05619959905743599;0.015882495790719986
01:00:0A:00:00:00:00;1724198548;21/08/24;00:02:28;1.022;0.0;0.047;-0.2174680233001709;0.015882495790719986;-0.02932153083384037
01:00:0A:00:00:00:00;1724198549;21/08/24;00:02:29;1.016;-0.013;0.103;-0.22479839622974396;0.0012217304902151227;0.0
01:00:0A:00:00:00:00;1724198550;21/08/24;00:02:30;1.008;-0.02;0.044;-0.22602014243602753;-0.08796459436416626;-0.013439035043120384
01:00:0A:00:00:00:00;1724198551;21/08/24;00:02:31;1.007;-0.002;0.057;-0.20891590416431427;0.03420845419168472;-0.019547687843441963
01:00:0A:00:00:00:00;1724198552;21/08/24;00:02:32;1.008;-0.033;0.096;-0.21135938167572021;-0.02932153083384037;0.0
01:00:0A:00:00:00:00;1724198553;21/08/24;00:02:33;1.009;-0.009;0.055;-0.2015855312347412;-0.015882495790719986;-0.015882495790719986
01:00:0A:00:00:00:00;1724198554;21/08/24;00:02:34;1.002;0.003;0.056;-0.19425514340400696;0.042760565876960754;0.02321287989616394
01:00:0A:00:00:00:00;1724198555;21/08/24;00:02:35;1.003;-0.005;0.065;-0.1918116807937622;-0.025656338781118393;-0.02076941914856434
01:00:0A:00:00:00:00;1724198556;21/08/24;00:02:36;1.032;0.0;0.052;-0.17959438264369965;-0.013439035043120384;-0.03298672288656235
01:00:0A:00:00:00:00;1724198557;21/08/24;00:02:37;1.044;0.0;0.069;-0.17959438264369965;0.01710422709584236;0.010995574295520782
01:00:0A:00:00:00:00;1724198558;21/08/24;00:02:38;1.033;-0.016;0.071;-0.17837265133857727;-0.004886921960860491;0.004886921960860491
01:00:0A:00:00:00:00;1724198559;21/08/24;00:02:39;1.009;-0.005;0.051;-0.1722639948129654;-0.0073303827084600925;-0.015882495790719986
01:00:0A:00:00:00:00;1724198560;21/08/24;00:02:40;0.993;-0.01;0.068;-0.1771509200334549;0.0;0.04153883829712868
01:00:0A:00:00:00:00;1724198561;21/08/24;00:02:41;0.992;-0.015;0.072;-0.17104226350784302;-0.04153883829712868;0.0
01:00:0A:00:00:00:00;1724198562;21/08/24;00:02:42;1.003;0.002;0.067;-0.16371189057826996;-0.019547687843441963;-0.02321287989616394
01:00:0A:00:00:00:00;1724198563;21/08/24;00:02:43;1.018;0.0;0.073;-0.16371189057826996;-0.013439035043120384;-0.02076941914856434
01:00:0A:00:00:00:00;1724198564;21/08/24;00:02:44;1.023;-0.024;0.062;-0.16249015927314758;-0.014660765416920185;-0.015882495790719986
01:00:0A:00:00:00:00;1724198565;21/08/24;00:02:45;1.02;-0.016;0.074;-0.161268413066864;-0.019547687843441963;-0.010995574295520782
01:00:0A:00:00:00:00;1724198566;21/08/24;00:02:46;1.021;-0.012;0.074;-0.16249015927314758;-0.028099799528717995;0.01710422709584236
01:00:0A:00:00:00:00;1724198567;21/08/24;00:02:47;1.021;-0.02;0.067;-0.15515977144241333;-0.010995574295520782;-0.0024434609804302454
01:00:0A:00:00:00:00;1724198568;21/08/24;00:02:48;1.014;-0.011;0.072;-0.15027284622192383;-0.010995574295520782;-0.00855211354792118
01:00:0A:00:00:00:00;1724198569;21/08/24;00:02:49;1.012;-0.017;0.068;-0.15027284622192383;-0.024434609338641167;0.013439035043120384
01:00:0A:00:00:00:00;1724198570;21/08/24;00:02:50;1.004;-0.011;0.073;-0.14538592100143433;-0.018325956538319588;0.01710422709584236
01:00:0A:00:00:00:00;1724198571;21/08/24;00:02:51;1.007;-0.005;0.074;-0.14049901068210602;-0.015882495790719986;0.0073303827084600925
01:00:0A:00:00:00:00;1724198572;21/08/24;00:02:52;1.018;-0.014;0.073;-0.1368338167667389;-0.012217304669320583;-0.013439035043120384
01:00:0A:00:00:00:00;1724198573;21/08/24;00:02:53;1.027;-0.018;0.06;-0.13316862285137177;-0.0073303827084600925;0.009773843921720982
01:00:0A:00:00:00:00;1724198574;21/08/24;00:02:54;1.022;-0.017;0.08;-0.13072516024112701;-0.018325956538319588;0.0012217304902151227
01:00:0A:00:00:00:00;1724198575;21/08/24;00:02:55;1.048;-0.019;0.071;-0.10262535512447357;-0.009773843921720982;-0.0073303827084600925
01:00:0A:00:00:00:00;1724198576;21/08/24;00:02:56;1.013;-0.014;0.1;-0.024434609338641167;-0.03420845419168472;0.013439035043120384
01:00:0A:00:00:00:00;1724198577;21/08/24;00:02:57;1.011;-0.021;0.038;-0.028099799528717995;-0.05497787147760391;0.009773843921720982
01:00:0A:00:00:00:00;1724198578;21/08/24;00:02:58;1.011;-0.011;0.055;-0.018325956538319588;0.03298672288656235;0.004886921960860491
01:00:0A:00:00:00:00;1724198579;21/08/24;00:02:59;1.015;-0.001;0.085;-0.03420845419168472;-0.06108652427792549;0.009773843921720982
01:00:0A:00:00:00:00;1724198580;21/08/24;00:03:00;1.018;-0.011;0.045;-0.03298672288656235;-0.036651913076639175;-0.006108652334660292
01:00:0A:00:00:00:00;1724198581;21/08/24;00:03:01;1.018;-0.008;0.063;-0.02687807008624077;0.024434609338641167;-0.021991148591041565
01:00:0A:00:00:00:00;1724198582;21/08/24;00:03:02;1.021;-0.011;0.083;-0.045204028487205505;-0.06108652427792549;0.00855211354792118
01:00:0A:00:00:00:00;1724198583;21/08/24;00:03:03;1.028;-0.015;0.051;-0.04398229718208313;-0.04398229718208313;-0.0012217304902151227
01:00:0A:00:00:00:00;1724198584;21/08/24;00:03:04;1.023;-0.013;0.082;-0.03787364438176155;0.04153883829712868;-0.004886921960860491
01:00:0A:00:00:00:00;1724198585;21/08/24;00:03:05;1.013;-0.014;0.08;-0.05009094998240471;-0.01710422709584236;0.021991148591041565
01:00:0A:00:00:00:00;1724198586;21/08/24;00:03:06;0.999;-0.01;0.05;-0.051312677562236786;-0.0354301817715168;0.021991148591041565
01:00:0A:00:00:00:00;1724198587;21/08/24;00:03:07;0.998;-0.01;0.072;-0.040317103266716;0.012217304669320583;0.0012217304902151227
01:00:0A:00:00:00:00;1724198588;21/08/24;00:03:08;1.015;-0.018;0.075;-0.042760565876960754;-0.028099799528717995;-0.014660765416920185
01:00:0A:00:00:00:00;1724198589;21/08/24;00:03:09;1.024;-0.012;0.045;-0.03787364438176155;-0.014660765416920185;-0.0012217304902151227
01:00:0A:00:00:00:00;1724198590;21/08/24;00:03:10;1.023;-0.006;0.071;-0.0354301817715168;0.00855211354792118;0.0073303827084600925
01:00:0A:00:00:00:00;1724198591;21/08/24;00:03:11;1.019;-0.011;0.067;-0.036651913076639175;-0.039095375686883926;0.0012217304902151227
01:00:0A:00:00:00:00;1724198592;21/08/24;00:03:12;1.024;-0.005;0.057;-0.03420845419168472;-0.013439035043120384;0.012217304669320583
01:00:0A:00:00:00:00;1724198593;21/08/24;00:03:13;1.025;-0.011;0.072;-0.03176499158143997;0.0012217304902151227;0.013439035043120384
01:00:0A:00:00:00:00;1724198594;21/08/24;00:03:14;1.017;-0.011;0.075;-0.03420845419168472;-0.03420845419168472;0.0036651913542300463
01:00:0A:00:00:00:00;1724198595;21/08/24;00:03:15;1.011;-0.007;0.065;-0.03176499158143997;0.004886921960860491;-0.0012217304902151227
01:00:0A:00:00:00:00;1724198596;21/08/24;00:03:16;1.012;-0.013;0.071;-0.03420845419168472;0.009773843921720982;0.015882495790719986
01:00:0A:00:00:00:00;1724198597;21/08/24;00:03:17;1.013;-0.01;0.071;-0.036651913076639175;-0.010995574295520782;0.0024434609804302454
01:00:0A:00:00:00:00;1724198598;21/08/24;00:03:18;1.014;-0.005;0.054;-0.036651913076639175;-0.006108652334660292;-0.0012217304902151227
01:00:0A:00:00:00:00;1724198599;21/08/24;00:03:19;1.016;-0.017;0.069;-0.036651913076639175;-0.012217304669320583;0.0024434609804302454
01:00:0A:00:00:00:00;1724198600;21/08/24;00:03:20;1.018;-0.013;0.071;-0.03787364438176155;-0.028099799528717995;0.004886921960860491
01:00:0A:00:00:00:00;1724198601;21/08/24;00:03:21;1.017;-0.008;0.066;-0.03787364438176155;-0.015882495790719986;0.014660765416920185
01:00:0A:00:00:00:00;1724198602;21/08/24;00:03:22;1.018;-0.004;0.076;-0.03298672288656235;-0.00855211354792118;0.0024434609804302454
01:00:0A:00:00:00:00;1724198603;21/08/24;00:03:23;1.021;-0.013;0.068;-0.030543262138962746;-0.006108652334660292;-0.013439035043120384
01:00:0A:00:00:00:00;1724198604;21/08/24;00:03:24;1.011;-0.013;0.064;-0.030543262138962746;-0.00855211354792118;0.009773843921720982
01:00:0A:00:00:00:00;1724198605;21/08/24;00:03:25;1.009;-0.013;0.062;-0.02932153083384037;-0.010995574295520782;0.021991148591041565
01:00:0A:00:00:00:00;1724198606;21/08/24;00:03:26;1.009;-0.008;0.067;-0.025656338781118393;-0.036651913076639175;-0.0012217304902151227
01:00:0A:00:00:00:00;1724198607;21/08/24;00:03:27;1.005;0.032;0.103;-0.04153883829712868;0.051312677562236786;-0.06352998316287994
01:00:0A:00:00:00:00;1724198608;21/08/24;00:03:28;1.004;0.042;0.162;-0.3787364363670349;0.009773843921720982;-0.006108652334660292
01:00:0A:00:00:00:00;1724198609;21/08/24;00:03:29;1.016;-0.013;0.092;-0.5265658497810364;-0.1918116807937622;-0.00855211354792118
01:00:0A:00:00:00:00;1724198610;21/08/24;00:03:30;1.019;0.0;0.034;-0.4801400899887085;0.03298672288656235;0.0
01:00:0A:00:00:00:00;1724198611;21/08/24;00:03:31;1.015;-0.039;0.102;-0.45326200127601624;0.013439035043120384;0.013439035043120384
01:00:0A:00:00:00:00;1724198612;21/08/24;00:03:32;1.008;0.0;0.056;-0.42638394236564636;-0.0659734457731247;-0.07208210229873657
01:00:0A:00:00:00:00;1724198613;21/08/24;00:03:33;1.007;0.017;0.063;-0.4153883755207062;0.0036651913542300463;0.03176499158143997
01:00:0A:00:00:00:00;1724198614;21/08/24;00:03:34;1.012;-0.036;0.062;-0.38240164518356323;-0.014660765416920185;-0.03298672288656235
01:00:0A:00:00:00:00;1724198615;21/08/24;00:03:35;1.021;-0.002;0.067;-0.35674530267715454;-0.0024434609804302454;-0.06475171446800232
01:00:0A:00:00:00:00;1724198616;21/08/24;00:03:36;1.023;-0.002;0.078;-0.35552355647087097;-0.0354301817715168;0.013439035043120384
01:00:0A:00:00:00:00;1724198617;21/08/24;00:03:37;1.02;-0.026;0.045;-0.3335324227809906;-0.02076941914856434;0.0012217304902151227
01:00:0A:00:00:00:00;1724198618;21/08/24;00:03:38;1.013;0.0;0.081;-0.3127630054950714;0.039095375686883926;-0.024434609338641167
01:00:0A:00:00:00:00;1724198619;21/08/24;00:03:39;1.004;-0.009;0.069;-0.3152064383029938;-0.05864306166768074;-0.00855211354792118
01:00:0A:00:00:00:00;1724198620;21/08/24;00:03:40;1.006;-0.01;0.045;-0.294437050819397;-0.0036651913542300463;-0.014660765416920185
01:00:0A:00:00:00:00;1724198621;21/08/24;00:03:41;1.005;-0.016;0.077;-0.2834414541721344;0.00855211354792118;-0.012217304669320583
01:00:0A:00:00:00:00;1724198622;21/08/24;00:03:42;1.016;-0.02;0.076;-0.27977627515792847;-0.05375614017248154;-0.019547687843441963
01:00:0A:00:00:00:00;1724198623;21/08/24;00:03:43;1.024;-0.005;0.049;-0.26633724570274353;0.004886921960860491;0.0024434609804302454
01:00:0A:00:00:00:00;1724198624;21/08/24;00:03:44;1.026;-0.018;0.081;-0.26022857427597046;-0.0024434609804302454;0.02076941914856434
01:00:0A:00:00:00:00;1724198625;21/08/24;00:03:45;1.023;-0.013;0.063;-0.2480112910270691;-0.02932153083384037;-0.030543262138962746
01:00:0A:00:00:00:00;1724198626;21/08/24;00:03:46;1.014;0.0;0.059;-0.2431243658065796;-0.0036651913542300463;-0.0024434609804302454
01:00:0A:00:00:00:00;1724198627;21/08/24;00:03:47;1.008;-0.043;0.081;0.3494149148464203;0.06475171446800232;0.17348572611808777
01:00:0A:00:00:00:00;1724198628;21/08/24;00:03:48;1.0;-0.083;0.124;0.4056144952774048;-0.1258382350206375;-0.080634206533432
01:00:0A:00:00:00:00;1724198629;21/08/24;00:03:49;1.012;-0.052;-0.005;0.5412266254425049;-0.10873401165008545;-0.09651670604944229
01:00:0A:00:00:00:00;1724198630;21/08/24;00:03:50;1.016;0.022;0.029;0.5387831330299377;0.12217304855585098;-0.05375614017248154
01:00:0A:00:00:00:00;1724198631;21/08/24;00:03:51;1.013;0.018;0.132;0.4691444933414459;0.03420845419168472;0.10873401165008545
01:00:0A:00:00:00:00;1724198632;21/08/24;00:03:52;1.014;-0.076;0.068;0.4337143301963806;-0.10384709388017654;0.06352998316287994
01:00:0A:00:00:00:00;1724198633;21/08/24;00:03:53;1.016;-0.021;0.028;0.455705463886261;-0.018325956538319588;-0.1014036238193512
01:00:0A:00:00:00:00;1724198634;21/08/24;00:03:54;1.013;0.037;0.072;0.4190535545349121;0.07941248267889023;0.06719517707824707
01:00:0A:00:00:00:00;1724198635;21/08/24;00:03:55;1.008;-0.037;0.102;0.3799581527709961;-0.039095375686883926;0.10995574295520782
01:00:0A:00:00:00:00;1724198636;21/08/24;00:03:56;1.011;-0.03;0.049;0.3885102868080139;-0.08307767659425735;-0.06230825558304787
01:00:0A:00:00:00:00;1724198637;21/08/24;00:03:57;1.016;0.021;0.039;0.3836233615875244;0.06841690838336945;-0.004886921960860491
01:00:0A:00:00:00:00;1724198638;21/08/24;00:03:58;1.015;-0.014;0.112;0.3481931686401367;0.004886921960860491;0.080634206533432
01:00:0A:00:00:00:00;1724198639;21/08/24;00:03:59;1.018;-0.04;0.055;0.3384193480014801;-0.08796459436416626;0.019547687843441963
01:00:0A:00:00:00:00;1724198640;21/08/24;00:04:00;1.017;0.001;0.037;0.35063666105270386;0.02076941914856434;-0.02687807008624077
01:00:0A:00:00:00:00;1724198641;21/08/24;00:04:01;1.016;0.01;0.092;0.32498031854629517;0.025656338781118393;0.05009094998240471
01:00:0A:00:00:00:00;1724198642;21/08/24;00:04:02;1.015;-0.032;0.075;0.30543261766433716;-0.06108652427792549;0.05009094998240471
01:00:0A:00:00:00:00;1724198643;21/08/24;00:04:03;1.011;-0.009;0.042;0.3188716471195221;-0.0012217304902151227;-0.03787364438176155
01:00:0A:00:00:00:00;1724198644;21/08/24;00:04:04;1.006;0.01;0.073;0.3042108714580536;0.030543262138962746;0.021991148591041565
01:00:0A:00:00:00:00;1724198645;21/08/24;00:04:05;1.007;-0.024;0.079;0.28099802136421204;-0.045204028487205505;0.05253440886735916
01:00:0A:00:00:00:00;1724198646;21/08/24;00:04:06;1.016;-0.026;0.053;0.29077184200286865;-0.021991148591041565;-0.03176499158143997
01:00:0A:00:00:00:00;1724198647;21/08/24;00:04:07;1.021;0.012;0.064;0.28099802136421204;0.021991148591041565;0.012217304669320583
01:00:0A:00:00:00:00;1724198648;21/08/24;00:04:08;1.021;-0.022;0.082;0.2626720666885376;-0.00855211354792118;0.05742133408784866
01:00:0A:00:00:00:00;1724198649;21/08/24;00:04:09;1.017;-0.023;0.061;0.2626720666885376;-0.04153883829712868;-0.0073303827084600925
01:00:0A:00:00:00:00;1724198650;21/08/24;00:04:10;1.016;0.002;0.057;0.26145032048225403;0.018325956538319588;-0.0024434609804302454
01:00:0A:00:00:00:00;1724198651;21/08/24;00:04:11;1.016;-0.014;0.082;0.24434609711170197;0.006108652334660292;0.05009094998240471
01:00:0A:00:00:00:00;1724198652;21/08/24;00:04:12;1.013;-0.019;0.063;0.23945917189121246;-0.03420845419168472;0.00855211354792118
01:00:0A:00:00:00:00;1724198653;21/08/24;00:04:13;1.006;-0.001;0.052;0.23945917189121246;0.0073303827084600925;-0.004886921960860491
01:00:0A:00:00:00:00;1724198654;21/08/24;00:04:14;1.004;-0.005;0.078;0.2272418737411499;0.010995574295520782;0.03298672288656235
01:00:0A:00:00:00:00;1724198655;21/08/24;00:04:15;1.014;-0.02;0.069;0.21868975460529327;-0.04398229718208313;0.015882495790719986
01:00:0A:00:00:00:00;1724198656;21/08/24;00:04:16;1.017;-0.005;0.052;0.22357667982578278;0.014660765416920185;-0.0036651913542300463
01:00:0A:00:00:00:00;1724198657;21/08/24;00:04:17;1.019;-0.002;0.074;0.21380282938480377;-0.0012217304902151227;0.018325956538319588
01:00:0A:00:00:00:00;1724198658;21/08/24;00:04:18;1.02;-0.019;0.07;0.20647244155406952;-0.03298672288656235;0.021991148591041565
01:00:0A:00:00:00:00;1724198659;21/08/24;00:04:19;1.019;-0.013;0.055;0.21013763546943665;-0.0024434609804302454;0.0012217304902151227
01:00:0A:00:00:00:00;1724198660;21/08/24;00:04:20;1.016;0.0;0.071;0.20525071024894714;0.006108652334660292;0.013439035043120384
01:00:0A:00:00:00:00;1724198661;21/08/24;00:04:21;1.014;-0.016;0.066;0.1966986060142517;-0.02321287989616394;0.030543262138962746
01:00:0A:00:00:00:00;1724198662;21/08/24;00:04:22;1.011;-0.014;0.059;0.2015855312347412;-0.014660765416920185;-0.012217304669320583
01:00:0A:00:00:00:00;1724198663;21/08/24;00:04:23;1.01;-0.002;0.069;0.19792033731937408;0.009773843921720982;0.012217304669320583
01:00:0A:00:00:00:00;1724198664;21/08/24;00:04:24;1.014;-0.019;0.069;0.18936821818351746;-0.024434609338641167;0.02687807008624077
01:00:0A:00:00:00:00;1724198665;21/08/24;00:04:25;1.015;-0.015;0.059;0.19425514340400696;-0.0073303827084600925;-0.0036651913542300463
01:00:0A:00:00:00:00;1724198666;21/08/24;00:04:26;1.016;-0.003;0.068;0.19058994948863983;-0.00855211354792118;0.010995574295520782
01:00:0A:00:00:00:00;1724198667;21/08/24;00:04:27;1.016;-0.016;0.071;0.18448130786418915;-0.015882495790719986;0.03176499158143997
01:00:0A:00:00:00:00;1724198668;21/08/24;00:04:28;1.016;-0.015;0.066;0.1869247555732727;-0.014660765416920185;-0.0036651913542300463
01:00:0A:00:00:00:00;1724198669;21/08/24;00:04:29;1.016;-0.005;0.064;0.18325956165790558;-0.0012217304902151227;0.013439035043120384
01:00:0A:00:00:00:00;1724198670;21/08/24;00:04:30;1.016;-0.014;0.071;0.17837265133857727;-0.015882495790719986;0.02321287989616394
01:00:0A:00:00:00:00;1724198671;21/08/24;00:04:31;1.014;-0.014;0.067;0.17837265133857727;-0.019547687843441963;0.0024434609804302454
01:00:0A:00:00:00:00;1724198672;21/08/24;00:04:32;1.012;-0.004;0.065;0.17592918872833252;-0.0012217304902151227;0.012217304669320583
01:00:0A:00:00:00:00;1724198673;21/08/24;00:04:33;1.012;-0.015;0.07;0.17104226350784302;-0.013439035043120384;0.01710422709584236
01:00:0A:00:00:00:00;1724198674;21/08/24;00:04:34;1.016;-0.015;0.068;0.17104226350784302;-0.014660765416920185;0.0024434609804302454
01:00:0A:00:00:00:00;1724198675;21/08/24;00:04:35;1.016;-0.008;0.063;0.16859880089759827;-0.00855211354792118;0.012217304669320583
01:00:0A:00:00:00:00;1724198676;21/08/24;00:04:36;1.014;-0.012;0.071;0.16493360698223114;-0.0036651913542300463;0.019547687843441963
01:00:0A:00:00:00:00;1724198677;21/08/24;00:04:37;1.013;-0.013;0.068;0.16371189057826996;-0.019547687843441963;0.004886921960860491
01:00:0A:00:00:00:00;1724198678;21/08/24;00:04:38;1.016;-0.007;0.063;0.16249015927314758;-0.006108652334660292;0.0073303827084600925
01:00:0A:00:00:00:00;1724198679;21/08/24;00:04:39;1.016;-0.011;0.071;0.15882496535778046;-0.0073303827084600925;0.015882495790719986
01:00:0A:00:00:00:00;1724198680;21/08/24;00:04:40;1.015;-0.012;0.065;0.1576032191514969;-0.018325956538319588;0.006108652334660292
01:00:0A:00:00:00:00;1724198681;21/08/24;00:04:41;1.016;-0.006;0.062;0.1563815027475357;-0.0036651913542300463;0.0036651913542300463
01:00:0A:00:00:00:00;1724198682;21/08/24;00:04:42;1.017;-0.012;0.071;0.15271630883216858;-0.013439035043120384;0.012217304669320583
01:00:0A:00:00:00:00;1724198683;21/08/24;00:04:43;1.017;-0.011;0.067;0.15027284622192383;-0.02076941914856434;0.010995574295520782
01:00:0A:00:00:00:00;1724198684;21/08/24;00:04:44;1.014;-0.007;0.069;0.15027284622192383;-0.0024434609804302454;0.00855211354792118
01:00:0A:00:00:00:00;1724198685;21/08/24;00:04:45;1.012;-0.009;0.067;0.14782939851284027;-0.0073303827084600925;0.010995574295520782
01:00:0A:00:00:00:00;1724198686;21/08/24;00:04:46;1.014;-0.012;0.066;0.14538592100143433;-0.015882495790719986;0.0073303827084600925
01:00:0A:00:00:00:00;1724198687;21/08/24;00:04:47;1.012;-0.009;0.064;0.14416420459747314;-0.00855211354792118;0.010995574295520782
01:00:0A:00:00:00:00;1724198688;21/08/24;00:04:48;1.013;-0.009;0.069;0.14049901068210602;-0.006108652334660292;0.0073303827084600925
01:00:0A:00:00:00:00;1724198689;21/08/24;00:04:49;1.016;-0.012;0.064;0.13805554807186127;-0.01710422709584236;0.00855211354792118
01:00:0A:00:00:00:00;1724198690;21/08/24;00:04:50;1.018;-0.012;0.066;0.1368338167667389;-0.009773843921720982;0.009773843921720982
01:00:0A:00:00:00:00;1724198691;21/08/24;00:04:51;1.018;-0.009;0.069;0.13316862285137177;-0.012217304669320583;0.01710422709584236
01:00:0A:00:00:00:00;1724198692;21/08/24;00:04:52;1.017;-0.01;0.069;0.1319468915462494;-0.012217304669320583;0.0073303827084600925
01:00:0A:00:00:00:00;1724198693;21/08/24;00:04:53;1.016;-0.014;0.068;0.1319468915462494;-0.009773843921720982;0.0073303827084600925
01:00:0A:00:00:00:00;1724198694;21/08/24;00:04:54;1.011;-0.01;0.068;0.12950342893600464;-0.006108652334660292;0.009773843921720982
01:00:0A:00:00:00:00;1724198695;21/08/24;00:04:55;1.012;-0.012;0.067;0.1270599663257599;-0.015882495790719986;0.010995574295520782
01:00:0A:00:00:00:00;1724198696;21/08/24;00:04:56;1.013;-0.011;0.066;0.12828169763088226;-0.0073303827084600925;0.0024434609804302454
01:00:0A:00:00:00:00;1724198697;21/08/24;00:04:57;1.014;-0.01;0.069;0.12461651116609573;-0.009773843921720982;0.00855211354792118
01:00:0A:00:00:00:00;1724198698;21/08/24;00:04:58;1.015;-0.013;0.066;0.12339477241039276;-0.012217304669320583;0.0073303827084600925
01:00:0A:00:00:00:00;1724198699;21/08/24;00:04:59;1.015;-0.01;0.065;0.12339477241039276;-0.009773843921720982;0.009773843921720982
01:00:0A:00:00:00:00;1724198700;21/08/24;00:05:00;1.017;-0.01;0.07;0.12095131725072861;-0.012217304669320583;0.009773843921720982
01:00:0A:00:00:00:00;1724198701;21/08/24;00:05:01;1.018;-0.011;0.067;0.11972958594560623;-0.0073303827084600925;0.010995574295520782
01:00:0A:00:00:00:00;1724198702;21/08/24;00:05:02;1.016;-0.01;0.067;0.11850785464048386;-0.010995574295520782;0.006108652334660292
01:00:0A:00:00:00:00;1724198703;21/08/24;00:05:03;1.013;-0.009;0.068;0.1160643920302391;-0.009773843921720982;0.009773843921720982
01:00:0A:00:00:00:00;1724198704;21/08/24;00:05:04;1.013;-0.011;0.068;0.11484266817569733;-0.009773843921720982;0.009773843921720982
01:00:0A:00:00:00:00;1724198705;21/08/24;00:05:05;1.013;-0.009;0.068;0.11362093687057495;-0.0073303827084600925;0.004886921960860491
01:00:0A:00:00:00:00;1724198706;21/08/24;00:05:06;1.012;-0.009;0.067;0.11239919811487198;-0.00855211354792118;0.0073303827084600925
01:00:0A:00:00:00:00;1724198707;21/08/24;00:05:07;1.014;-0.01;0.066;0.10995574295520782;-0.014660765416920185;0.00855211354792118
01:00:0A:00:00:00:00;1724198708;21/08/24;00:05:08;1.015;-0.01;0.067;0.10995574295520782;-0.009773843921720982;0.0036651913542300463
01:00:0A:00:00:00:00;1724198709;21/08/24;00:05:09;1.017;-0.01;0.066;0.10873401165008545;-0.012217304669320583;0.0073303827084600925
01:00:0A:00:00:00:00;1724198710;21/08/24;00:05:10;1.018;-0.01;0.068;0.10751228034496307;-0.010995574295520782;0.010995574295520782
01:00:0A:00:00:00:00;1724198711;21/08/24;00:05:11;1.016;-0.01;0.066;0.1062905490398407;-0.009773843921720982;0.0073303827084600925
01:00:0A:00:00:00:00;1724198712;21/08/24;00:05:12;1.014;-0.009;0.067;0.10506881773471832;-0.009773843921720982;0.009773843921720982
01:00:0A:00:00:00:00;1724198713;21/08/24;00:05:13;1.014;-0.011;0.067;0.10384709388017654;-0.013439035043120384;0.006108652334660292
01:00:0A:00:00:00:00;1724198714;21/08/24;00:05:14;1.014;-0.01;0.066;0.10262535512447357;-0.00855211354792118;0.00855211354792118
01:00:0A:00:00:00:00;1724198715;21/08/24;00:05:15;1.014;-0.008;0.066;0.1014036238193512;-0.009773843921720982;0.00855211354792118
01:00:0A:00:00:00:00;1724198716;21/08/24;00:05:16;1.013;-0.011;0.065;0.10018189996480942;-0.009773843921720982;0.0073303827084600925
01:00:0A:00:00:00:00;1724198717;21/08/24;00:05:17;1.014;-0.01;0.066;0.09773843735456467;-0.013439035043120384;0.00855211354792118
01:00:0A:00:00:00:00;1724198718;21/08/24;00:05:18;1.016;-0.01;0.066;0.09651670604944229;-0.010995574295520782;0.006108652334660292
01:00:0A:00:00:00:00;1724198719;21/08/24;00:05:19;1.016;-0.011;0.069;0.09285151958465576;-0.010995574295520782;0.00855211354792118
01:00:0A:00:00:00:00;1724198720;21/08/24;00:05:20;1.016;-0.011;0.064;0.09162978082895279;-0.0073303827084600925;0.004886921960860491
01:00:0A:00:00:00:00;1724198721;21/08/24;00:05:21;1.015;-0.01;0.067;0.08796459436416626;-0.009773843921720982;0.010995574295520782
01:00:0A:00:00:00:00;1724198722;21/08/24;00:05:22;1.014;-0.009;0.064;0.08552113175392151;-0.010995574295520782;0.00855211354792118
01:00:0A:00:00:00:00;1724198723;21/08/24;00:05:23;1.014;-0.009;0.066;0.08429940044879913;-0.012217304669320583;0.0036651913542300463
01:00:0A:00:00:00:00;1724198724;21/08/24;00:05:24;1.014;-0.01;0.066;0.080634206533432;-0.00855211354792118;0.00855211354792118
01:00:0A:00:00:00:00;1724198725;21/08/24;00:05:25;1.013;-0.011;0.066;0.07941248267889023;-0.009773843921720982;0.006108652334660292
01:00:0A:00:00:00:00;1724198726;21/08/24;00:05:26;1.013;-0.01;0.065;0.07696902006864548;-0.012217304669320583;0.0073303827084600925
01:00:0A:00:00:00:00;1724198727;21/08/24;00:05:27;1.016;-0.01;0.067;0.07452555745840073;-0.010995574295520782;0.004886921960860491
01:00:0A:00:00:00:00;1724198728;21/08/24;00:05:28;1.016;-0.011;0.067;0.07208210229873657;-0.010995574295520782;0.00855211354792118
01:00:0A:00:00:00:00;1724198729;21/08/24;00:05:29;1.016;-0.011;0.066;0.0708603635430336;-0.0073303827084600925;0.006108652334660292
01:00:0A:00:00:00:00;1724198730;21/08/24;00:05:30;1.015;-0.011;0.065;0.06963863223791122;-0.015882495790719986;0.0073303827084600925
01:00:0A:00:00:00:00;1724198731;21/08/24;00:05:31;1.015;-0.01;0.07;0.06719517707824707;-0.009773843921720982;0.0073303827084600925
01:00:0A:00:00:00:00;1724198732;21/08/24;00:05:32;1.015;-0.009;0.066;0.0659734457731247;-0.010995574295520782;0.0073303827084600925
01:00:0A:00:00:00:00;1724198733;21/08/24;00:05:33;1.015;-0.009;0.066;0.06475171446800232;-0.00855211354792118;0.0036651913542300463
01:00:0A:00:00:00:00;1724198734;21/08/24;00:05:34;1.015;-0.011;0.066;0.06230825558304787;-0.012217304669320583;0.006108652334660292
01:00:0A:00:00:00:00;1724198735;21/08/24;00:05:35;1.013;0.009;0.097;0.042760565876960754;0.05253440886735916;-0.025656338781118393
01:00:0A:00:00:00:00;1724198736;21/08/24;00:05:36;1.009;0.029;0.122;-0.09407324343919754;-0.05253440886735916;0.015882495790719986
01:00:0A:00:00:00:00;1724198737;21/08/24;00:05:37;1.014;0.012;0.085;-0.17104226350784302;-0.042760565876960754;0.018325956538319588
01:00:0A:00:00:00:00;1724198738;21/08/24;00:05:38;1.014;-0.022;0.061;-0.1673770695924759;-0.040317103266716;0.02076941914856434
01:00:0A:00:00:00:00;1724198739;21/08/24;00:05:39;1.016;-0.016;0.055;-0.14416420459747314;0.012217304669320583;-0.028099799528717995
01:00:0A:00:00:00:00;1724198740;21/08/24;00:05:40;1.014;0.0;0.083;-0.14416420459747314;-0.012217304669320583;0.006108652334660292
01:00:0A:00:00:00:00;1724198741;21/08/24;00:05:41;1.015;-0.016;0.058;-0.1417207270860672;-0.040317103266716;0.00855211354792118
01:00:0A:00:00:00:00;1724198742;21/08/24;00:05:42;1.014;-0.008;0.061;-0.1258382350206375;0.01710422709584236;-0.01710422709584236
01:00:0A:00:00:00:00;1724198743;21/08/24;00:05:43;1.012;-0.007;0.081;-0.12828169763088226;-0.013439035043120384;0.0073303827084600925
01:00:0A:00:00:00:00;1724198744;21/08/24;00:05:44;1.014;-0.012;0.056;-0.12461651116609573;-0.0354301817715168;-0.0036651913542300463
01:00:0A:00:00:00:00;1724198745;21/08/24;00:05:45;1.016;-0.007;0.064;-0.11362093687057495;0.013439035043120384;-0.004886921960860491
01:00:0A:00:00:00:00;1724198746;21/08/24;00:05:46;1.015;-0.013;0.08;-0.11484266817569733;-0.019547687843441963;0.0024434609804302454
01:00:0A:00:00:00:00;1724198747;21/08/24;00:05:47;1.016;-0.009;0.057;-0.10873401165008545;-0.02932153083384037;-0.0073303827084600925
01:00:0A:00:00:00:00;1724198748;21/08/24;00:05:48;1.016;-0.007;0.064;-0.10262535512447357;0.009773843921720982;0.0036651913542300463
01:00:0A:00:00:00:00;1724198749;21/08/24;00:05:49;1.014;-0.015;0.076;-0.10018189996480942;-0.02321287989616394;-0.0024434609804302454
01:00:0A:00:00:00:00;1724198750;21/08/24;00:05:50;1.015;-0.008;0.059;-0.09407324343919754;-0.024434609338641167;-0.0073303827084600925
01:00:0A:00:00:00:00;1724198751;21/08/24;00:05:51;1.016;-0.008;0.069;-0.08918632566928864;0.006108652334660292;0.009773843921720982
01:00:0A:00:00:00:00;1724198752;21/08/24;00:05:52;1.013;-0.013;0.073;-0.08552113175392151;-0.019547687843441963;-0.0036651913542300463
01:00:0A:00:00:00:00;1724198753;21/08/24;00:05:53;1.016;-0.006;0.059;-0.07941248267889023;-0.018325956538319588;-0.00855211354792118
01:00:0A:00:00:00:00;1724198754;21/08/24;00:05:54;1.016;-0.009;0.069;-0.07696902006864548;0.0;0.012217304669320583
01:00:0A:00:00:00:00;1724198755;21/08/24;00:05:55;1.015;-0.016;0.072;-0.07330382615327835;-0.018325956538319588;-0.0024434609804302454
01:00:0A:00:00:00:00;1724198756;21/08/24;00:05:56;1.016;-0.004;0.062;-0.06719517707824707;-0.012217304669320583;-0.0073303827084600925
01:00:0A:00:00:00:00;1724198757;21/08/24;00:05:57;1.014;-0.011;0.069;-0.0659734457731247;-0.006108652334660292;0.012217304669320583
01:00:0A:00:00:00:00;1724198758;21/08/24;00:05:58;1.015;-0.016;0.069;-0.059864792972803116;-0.018325956538319588;-0.0073303827084600925
01:00:0A:00:00:00:00;1724198759;21/08/24;00:05:59;1.016;-0.005;0.065;-0.05619959905743599;-0.010995574295520782;-0.004886921960860491
01:00:0A:00:00:00:00;1724198760;21/08/24;00:06:00;1.015;-0.011;0.068;-0.05497787147760391;-0.0073303827084600925;0.012217304669320583
01:00:0A:00:00:00:00;1724198761;21/08/24;00:06:01;1.014;-0.015;0.068;-0.05009094998240471;-0.015882495790719986;-0.004886921960860491
01:00:0A:00:00:00:00;1724198762;21/08/24;00:06:02;1.015;-0.004;0.066;-0.04764748737215996;-0.013439035043120384;-0.0024434609804302454
01:00:0A:00:00:00:00;1724198763;21/08/24;00:06:03;1.015;-0.014;0.068;-0.04642575979232788;-0.00855211354792118;0.012217304669320583
01:00:0A:00:00:00:00;1724198764;21/08/24;00:06:04;1.014;-0.013;0.068;-0.04153883829712868;-0.014660765416920185;-0.006108652334660292
01:00:0A:00:00:00:00;1724198765;21/08/24;00:06:05;1.015;-0.006;0.066;-0.040317103266716;-0.010995574295520782;0.0036651913542300463
01:00:0A:00:00:00:00;1724198766;21/08/24;00:06:06;1.016;-0.011;0.068;-0.03787364438176155;-0.010995574295520782;0.0073303827084600925
01:00:0A:00:00:00:00;1724198767;21/08/24;00:06:07;1.015;-0.013;0.066;-0.03420845419168472;-0.014660765416920185;-0.004886921960860491
01:00:0A:00:00:00:00;1724198768;21/08/24;00:06:08;1.015;-0.007;0.067;-0.03176499158143997;-0.00855211354792118;0.0024434609804302454
01:00:0A:00:00:00:00;1724198769;21/08/24;00:06:09;1.015;-0.013;0.068;-0.03176499158143997;-0.014660765416920185;0.010995574295520782
01:00:0A:00:00:00:00;1724198770;21/08/24;00:06:10;1.016;-0.01;0.065;-0.02687807008624077;-0.010995574295520782;-0.004886921960860491
01:00:0A:00:00:00:00;1724198771;21/08/24;00:06:11;1.016;-0.008;0.067;-0.025656338781118393;-0.010995574295520782;0.0036651913542300463
01:00:0A:00:00:00:00;1724198772;21/08/24;00:06:12;1.014;-0.014;0.068;-0.024434609338641167;-0.013439035043120384;0.004886921960860491
01:00:0A:00:00:00:00;1724198773;21/08/24;00:06:13;1.016;-0.01;0.066;-0.02076941914856434;-0.010995574295520782;0.0012217304902151227
01:00:0A:00:00:00:00;1724198774;21/08/24;00:06:14;1.016;-0.007;0.068;-0.02076941914856434;-0.013439035043120384;0.0036651913542300463
01:00:0A:00:00:00:00;1724198775;21/08/24;00:06:15;1.014;-0.01;0.067;-0.019547687843441963;-0.012217304669320583;0.006108652334660292
01:00:0A:00:00:00:00;1724198776;21/08/24;00:06:16;1.016;-0.011;0.067;-0.015882495790719986;-0.010995574295520782;-0.004886921960860491
01:00:0A:00:00:00:00;1724198777;21/08/24;00:06:17;1.015;-0.008;0.067;-0.015882495790719986;-0.010995574295520782;0.006108652334660292
01:00:0A:00:00:00:00;1724198778;21/08/24;00:06:18;1.015;-0.012;0.067;-0.014660765416920185;-0.012217304669320583;0.006108652334660292
01:00:0A:00:00:00:00;1724198779;21/08/24;00:06:19;1.009;0.024;0.042;0.11972958594560623;-0.042760565876960754;-0.03787364438176155
01:00:0A:00:00:00:00;1724198780;21/08/24;00:06:20;1.014;0.004;0.058;0.11972958594560623;0.04642575979232788;0.06963863223791122
01:00:0A:00:00:00:00;1724198781;21/08/24;00:06:21;1.014;-0.039;0.096;0.11484266817569733;-0.025656338781118393;0.0012217304902151227
01:00:0A:00:00:00:00;1724198782;21/08/24;00:06:22;1.016;0.004;0.045;0.11239919811487198;-0.04764748737215996;-0.028099799528717995
01:00:0A:00:00:00:00;1724198783;21/08/24;00:06:23;1.016;-0.001;0.061;0.10751228034496307;0.04642575979232788;0.045204028487205505
01:00:0A:00:00:00:00;1724198784;21/08/24;00:06:24;1.015;-0.027;0.096;0.1014036238193512;-0.02076941914856434;0.00855211354792118
01:00:0A:00:00:00:00;1724198785;21/08/24;00:06:25;1.015;0.0;0.044;0.10018189996480942;-0.04886921867728233;-0.019547687843441963
01:00:0A:00:00:00:00;1724198786;21/08/24;00:06:26;1.014;-0.004;0.062;0.10018189996480942;0.04398229718208313;0.03176499158143997
01:00:0A:00:00:00:00;1724198787;21/08/24;00:06:27;1.012;-0.018;0.092;0.09285151958465576;-0.02932153083384037;0.004886921960860491
01:00:0A:00:00:00:00;1724198788;21/08/24;00:06:28;1.014;-0.003;0.046;0.09040805697441101;-0.045204028487205505;-0.006108652334660292
01:00:0A:00:00:00:00;1724198789;21/08/24;00:06:29;1.015;-0.009;0.067;0.09407324343919754;0.036651913076639175;0.01710422709584236
01:00:0A:00:00:00:00;1724198790;21/08/24;00:06:30;1.015;-0.014;0.088;0.08429940044879913;-0.030543262138962746;0.006108652334660292
01:00:0A:00:00:00:00;1724198791;21/08/24;00:06:31;1.016;-0.009;0.047;0.08429940044879913;-0.030543262138962746;0.0012217304902151227
01:00:0A:00:00:00:00;1724198792;21/08/24;00:06:32;1.016;-0.007;0.067;0.08796459436416626;0.03420845419168472;0.010995574295520782
01:00:0A:00:00:00:00;1724198793;21/08/24;00:06:33;1.013;-0.012;0.085;0.07819075137376785;-0.03176499158143997;0.010995574295520782
01:00:0A:00:00:00:00;1724198794;21/08/24;00:06:34;1.016;-0.011;0.049;0.07819075137376785;-0.02687807008624077;0.0012217304902151227
01:00:0A:00:00:00:00;1724198795;21/08/24;00:06:35;1.015;-0.01;0.07;0.08185594528913498;0.025656338781118393;0.004886921960860491
01:00:0A:00:00:00:00;1724198796;21/08/24;00:06:36;1.014;-0.009;0.079;0.0708603635430336;-0.03176499158143997;0.013439035043120384
01:00:0A:00:00:00:00;1724198797;21/08/24;00:06:37;1.015;-0.012;0.053;0.07208210229873657;-0.02321287989616394;0.0036651913542300463
01:00:0A:00:00:00:00;1724198798;21/08/24;00:06:38;1.014;-0.008;0.071;0.0757472887635231;0.01710422709584236;0.0012217304902151227
01:00:0A:00:00:00:00;1724198799;21/08/24;00:06:39;1.015;-0.009;0.079;0.0659734457731247;-0.02932153083384037;0.012217304669320583
01:00:0A:00:00:00:00;1724198800;21/08/24;00:06:40;1.016;-0.014;0.054;0.06719517707824707;-0.01710422709584236;0.006108652334660292
01:00:0A:00:00:00:00;1724198801;21/08/24;00:06:41;1.015;-0.007;0.072;0.06963863223791122;0.014660765416920185;0.0
01:00:0A:00:00:00:00;1724198802;21/08/24;00:06:42;1.015;-0.008;0.073;0.059864792972803116;-0.028099799528717995;0.013439035043120384
01:00:0A:00:00:00:00;1724198803;21/08/24;00:06:43;1.015;-0.015;0.056;0.06230825558304787;-0.014660765416920185;0.004886921960860491
01:00:0A:00:00:00:00;1724198804;21/08/24;00:06:44;1.014;-0.005;0.07;0.06475171446800232;0.006108652334660292;-0.0024434609804302454
01:00:0A:00:00:00:00;1724198805;21/08/24;00:06:45;1.015;-0.009;0.072;0.05619959905743599;-0.024434609338641167;0.015882495790719986
01:00:0A:00:00:00:00;1724198806;21/08/24;00:06:46;1.016;-0.014;0.057;0.05864306166768074;-0.014660765416920185;0.0036651913542300463
01:00:0A:00:00:00:00;1724198807;21/08/24;00:06:47;1.013;-0.006;0.07;0.059864792972803116;0.0036651913542300463;0.0
01:00:0A:00:00:00:00;1724198808;21/08/24;00:06:48;1.015;-0.009;0.07;0.05253440886735916;-0.024434609338641167;0.015882495790719986
01:00:0A:00:00:00:00;1724198809;21/08/24;00:06:49;1.016;-0.014;0.059;0.05619959905743599;-0.009773843921720982;0.0
01:00:0A:00:00:00:00;1724198810;21/08/24;00:06:50;1.016;-0.006;0.071;0.05619959905743599;0.0;0.0012217304902151227
01:00:0A:00:00:00:00;1724198811;21/08/24;00:06:51;1.014;-0.008;0.069;0.05009094998240471;-0.02076941914856434;0.014660765416920185
01:00:0A:00:00:00:00;1724198812;21/08/24;00:06:52;1.015;-0.013;0.061;0.05253440886735916;-0.010995574295520782;0.0024434609804302454
01:00:0A:00:00:00:00;1724198813;21/08/24;00:06:53;1.014;-0.006;0.069;0.05375614017248154;-0.0024434609804302454;0.0
01:00:0A:00:00:00:00;1724198814;21/08/24;00:06:54;1.015;-0.01;0.067;0.04764748737215996;-0.019547687843441963;0.014660765416920185
01:00:0A:00:00:00:00;1724198815;21/08/24;00:06:55;1.014;-0.014;0.062;0.05009094998240471;-0.009773843921720982;0.0024434609804302454
01:00:0A:00:00:00:00;1724198816;21/08/24;00:06:56;1.015;-0.006;0.069;0.05009094998240471;-0.006108652334660292;0.0024434609804302454
01:00:0A:00:00:00:00;1724198817;21/08/24;00:06:57;1.015;-0.011;0.068;0.04642575979232788;-0.018325956538319588;0.013439035043120384
01:00:0A:00:00:00:00;1724198818;21/08/24;00:06:58;1.014;-0.013;0.064;0.04886921867728233;-0.00855211354792118;0.0
01:00:0A:00:00:00:00;1724198819;21/08/24;00:06:59;1.015;-0.006;0.069;0.04764748737215996;-0.0073303827084600925;0.0036651913542300463
01:00:0A:00:00:00:00;1724198820;21/08/24;00:07:00;1.015;-0.011;0.068;0.04398229718208313;-0.015882495790719986;0.012217304669320583
01:00:0A:00:00:00:00;1724198821;21/08/24;00:07:01;1.015;-0.011;0.064;0.04642575979232788;-0.010995574295520782;0.0012217304902151227
01:00:0A:00:00:00:00;1724198822;21/08/24;00:07:02;1.015;-0.006;0.068;0.045204028487205505;-0.0073303827084600925;0.0024434609804302454
01:00:0A:00:00:00:00;1724198823;21/08/24;00:07:03;1.016;-0.01;0.066;0.04153883829712868;-0.015882495790719986;0.010995574295520782
01:00:0A:00:00:00:00;1724198824;21/08/24;00:07:04;1.015;-0.012;0.064;0.04398229718208313;-0.009773843921720982;-0.0012217304902151227
01:00:0A:00:00:00:00;1724198825;21/08/24;00:07:05;1.015;-0.007;0.068;0.04153883829712868;-0.009773843921720982;0.006108652334660292
01:00:0A:00:00:00:00;1724198826;21/08/24;00:07:06;1.016;-0.012;0.066;0.040317103266716;-0.014660765416920185;0.0024434609804302454
01:00:0A:00:00:00:00;1724198827;21/08/24;00:07:07;1.012;0.03;0.059;-0.0024434609804302454;-0.010995574295520782;-0.015882495790719986
01:00:0A:00:00:00:00;1724198828;21/08/24;00:07:08;1.016;0.005;0.064;-0.04764748737215996;-0.009773843921720982;0.04153883829712868
01:00:0A:00:00:00:00;1724198829;21/08/24;00:07:09;1.016;-0.032;0.065;-0.042760565876960754;-0.010995574295520782;0.018325956538319588
01:00:0A:00:00:00:00;1724198830;21/08/24;00:07:10;1.015;-0.005;0.067;-0.02932153083384037;-0.00855211354792118;-0.03787364438176155
01:00:0A:00:00:00:00;1724198831;21/08/24;00:07:11;1.015;0.001;0.068;-0.03787364438176155;-0.014660765416920185;0.028099799528717995
01:00:0A:00:00:00:00;1724198832;21/08/24;00:07:12;1.014;-0.029;0.063;-0.030543262138962746;-0.010995574295520782;0.00855211354792118
01:00:0A:00:00:00:00;1724198833;21/08/24;00:07:13;1.015;-0.005;0.069;-0.021991148591041565;-0.004886921960860491;-0.030543262138962746
01:00:0A:00:00:00:00;1724198834;21/08/24;00:07:14;1.014;-0.004;0.069;-0.030543262138962746;-0.018325956538319588;0.02932153083384037
01:00:0A:00:00:00:00;1724198835;21/08/24;00:07:15;1.015;-0.026;0.064;-0.02321287989616394;-0.012217304669320583;0.0036651913542300463
01:00:0A:00:00:00:00;1724198836;21/08/24;00:07:16;1.014;-0.002;0.069;-0.015882495790719986;-0.004886921960860491;-0.02076941914856434
01:00:0A:00:00:00:00;1724198837;21/08/24;00:07:17;1.015;-0.005;0.068;-0.021991148591041565;-0.019547687843441963;0.025656338781118393
01:00:0A:00:00:00:00;1724198838;21/08/24;00:07:18;1.015;-0.023;0.061;-0.013439035043120384;-0.010995574295520782;-0.0024434609804302454
01:00:0A:00:00:00:00;1724198839;21/08/24;00:07:19;1.015;-0.003;0.07;-0.00855211354792118;-0.0036651913542300463;-0.014660765416920185
01:00:0A:00:00:00:00;1724198840;21/08/24;00:07:20;1.015;-0.008;0.068;-0.014660765416920185;-0.02076941914856434;0.02321287989616394
01:00:0A:00:00:00:00;1724198841;21/08/24;00:07:21;1.015;-0.02;0.062;-0.006108652334660292;-0.00855211354792118;-0.0024434609804302454
01:00:0A:00:00:00:00;1724198842;21/08/24;00:07:22;1.015;-0.004;0.069;-0.0024434609804302454;-0.004886921960860491;-0.010995574295520782
01:00:0A:00:00:00:00;1724198843;21/08/24;00:07:23;1.015;-0.01;0.066;-0.0073303827084600925;-0.02076941914856434;0.019547687843441963
01:00:0A:00:00:00:00;1724198844;21/08/24;00:07:24;1.016;-0.018;0.062;0.0;-0.00855211354792118;-0.0012217304902151227
01:00:0A:00:00:00:00;1724198845;21/08/24;00:07:25;1.015;-0.004;0.071;0.0024434609804302454;-0.006108652334660292;-0.004886921960860491
01:00:0A:00:00:00:00;1724198846;21/08/24;00:07:26;1.014;-0.01;0.067;-0.0012217304902151227;-0.02076941914856434;0.01710422709584236
01:00:0A:00:00:00:00;1724198847;21/08/24;00:07:27;1.015;-0.016;0.062;0.004886921960860491;-0.0073303827084600925;-0.0036651913542300463
01:00:0A:00:00:00:00;1724198848;21/08/24;00:07:28;1.015;-0.004;0.07;0.004886921960860491;-0.0073303827084600925;-0.0024434609804302454
01:00:0A:00:00:00:00;1724198849;21/08/24;00:07:29;1.015;-0.011;0.067;0.0012217304902151227;-0.019547687843441963;0.014660765416920185
01:00:0A:00:00:00:00;1724198850;21/08/24;00:07:30;1.015;-0.015;0.065;0.006108652334660292;-0.006108652334660292;-0.0036651913542300463
01:00:0A:00:00:00:00;1724198851;21/08/24;00:07:31;1.014;-0.005;0.069;0.004886921960860491;-0.00855211354792118;0.0
01:00:0A:00:00:00:00;1724198852;21/08/24;00:07:32;1.015;-0.013;0.067;0.0024434609804302454;-0.01710422709584236;0.012217304669320583
01:00:0A:00:00:00:00;1724198853;21/08/24;00:07:33;1.016;-0.014;0.064;0.006108652334660292;-0.00855211354792118;-0.0012217304902151227
01:00:0A:00:00:00:00;1724198854;21/08/24;00:07:34;1.015;-0.006;0.069;0.006108652334660292;-0.009773843921720982;0.0012217304902151227
01:00:0A:00:00:00:00;1724198855;21/08/24;00:07:35;1.014;-0.013;0.065;0.0036651913542300463;-0.018325956538319588;0.012217304669320583
01:00:0A:00:00:00:00;1724198856;21/08/24;00:07:36;1.016;-0.012;0.065;0.0073303827084600925;-0.006108652334660292;-0.0036651913542300463
01:00:0A:00:00:00:00;1724198857;21/08/24;00:07:37;1.015;-0.007;0.069;0.006108652334660292;-0.010995574295520782;0.0036651913542300463
01:00:0A:00:00:00:00;1724198858;21/08/24;00:07:38;1.014;-0.013;0.065;0.004886921960860491;-0.015882495790719986;0.009773843921720982
01:00:0A:00:00:00:00;1724198859;21/08/24;00:07:39;1.015;-0.011;0.065;0.00855211354792118;-0.00855211354792118;-0.0012217304902151227
01:00:0A:00:00:00:00;1724198860;21/08/24;00:07:40;1.013;-0.007;0.069;0.0073303827084600925;-0.010995574295520782;0.0024434609804302454
01:00:0A:00:00:00:00;1724198861;21/08/24;00:07:41;1.014;-0.012;0.066;0.006108652334660292;-0.015882495790719986;0.00855211354792118
01:00:0A:00:00:00:00;1724198862;21/08/24;00:07:42;1.016;-0.012;0.066;0.009773843921720982;-0.0073303827084600925;-0.0012217304902151227
01:00:0A:00:00:00:00;1724198863;21/08/24;00:07:43;1.016;-0.008;0.069;0.00855211354792118;-0.013439035043120384;0.006108652334660292
01:00:0A:00:00:00:00;1724198864;21/08/24;00:07:44;1.016;-0.012;0.065;0.00855211354792118;-0.014660765416920185;0.0073303827084600925
01:00:0A:00:00:00:00;1724198865;21/08/24;00:07:45;1.015;-0.011;0.066;0.009773843921720982;-0.00855211354792118;-0.0012217304902151227
01:00:0A:00:00:00:00;1724198866;21/08/24;00:07:46;1.014;-0.008;0.067;0.00855211354792118;-0.010995574295520782;0.004886921960860491
01:00:0A:00:00:00:00;1724198867;21/08/24;00:07:47;1.015;-0.011;0.066;0.009773843921720982;-0.014660765416920185;0.0073303827084600925
01:00:0A:00:00:00:00;1724198868;21/08/24;00:07:48;1.016;-0.01;0.067;0.010995574295520782;-0.00855211354792118;0.0
01:00:0A:00:00:00:00;1724198869;21/08/24;00:07:49;1.014;-0.008;0.068;0.009773843921720982;-0.012217304669320583;0.006108652334660292
01:00:0A:00:00:00:00;1724198870;21/08/24;00:07:50;1.015;-0.012;0.066;0.010995574295520782;-0.012217304669320583;0.004886921960860491
01:00:0A:00:00:00:00;1724198871;21/08/24;00:07:51;1.015;-0.011;0.066;0.012217304669320583;-0.00855211354792118;0.0
01:00:0A:00:00:00:00;1724198872;21/08/24;00:07:52;1.015;-0.01;0.068;0.010995574295520782;-0.012217304669320583;0.006108652334660292
01:00:0A:00:00:00:00;1724198873;21/08/24;00:07:53;1.014;-0.011;0.066;0.010995574295520782;-0.012217304669320583;0.004886921960860491
01:00:0A:00:00:00:00;1724198874;21/08/24;00:07:54;1.014;-0.009;0.066;0.012217304669320583;-0.00855211354792118;0.0012217304902151227
01:00:0A:00:00:00:00;1724198875;21/08/24;00:07:55;1.015;-0.009;0.068;0.010995574295520782;-0.012217304669320583;0.004886921960860491
01:00:0A:00:00:00:00;1724198876;21/08/24;00:07:56;1.015;-0.012;0.067;0.012217304669320583;-0.012217304669320583;0.004886921960860491
01:00:0A:00:00:00:00;1724198877;21/08/24;00:07:57;1.013;-0.01;0.067;0.012217304669320583;-0.009773843921720982;0.0024434609804302454
01:00:0A:00:00:00:00;1724198878;21/08/24;00:07:58;1.015;-0.009;0.067;0.012217304669320583;-0.012217304669320583;0.004886921960860491
01:00:0A:00:00:00:00;1724198879;21/08/24;00:07:59;1.015;-0.011;0.066;0.012217304669320583;-0.010995574295520782;0.0036651913542300463
01:00:0A:00:00:00:00;1724198880;21/08/24;00:08:00;1.015;-0.009;0.067;0.013439035043120384;-0.009773843921720982;0.0012217304902151227
01:00:0A:00:00:00:00;1724198881;21/08/24;00:08:01;1.014;-0.01;0.067;0.012217304669320583;-0.012217304669320583;0.006108652334660292
01:00:0A:00:00:00:00;1724198882;21/08/24;00:08:02;1.015;-0.01;0.066;0.012217304669320583;-0.012217304669320583;0.0036651913542300463
01:00:0A:00:00:00:00;1724198883;21/08/24;00:08:03;1.014;-0.01;0.067;0.013439035043120384;-0.009773843921720982;0.0024434609804302454
01:00:0A:00:00:00:00;1724198884;21/08/24;00:08:04;1.015;-0.01;0.067;0.012217304669320583;-0.012217304669320583;0.006108652334660292
01:00:0A:00:00:00:00;1724198885;21/08/24;00:08:05;1.016;-0.011;0.066;0.012217304669320583;-0.010995574295520782;0.0036651913542300463
01:00:0A:00:00:00:00;1724198886;21/08/24;00:08:06;1.014;-0.01;0.068;0.012217304669320583;-0.009773843921720982;0.0024434609804302454
01:00:0A:00:00:00:00;1724198887;21/08/24;00:08:07;1.015;-0.01;0.067;0.012217304669320583;-0.013439035043120384;0.004886921960860491
01:00:0A:00:00:00:00;1724198888;21/08/24;00:08:08;1.016;-0.01;0.065;0.012217304669320583;-0.010995574295520782;0.0024434609804302454
01:00:0A:00:00:00:00;1724198889;21/08/24;00:08:09;1.015;-0.01;0.066;0.012217304669320583;-0.010995574295520782;0.0036651913542300463
01:00:0A:00:00:00:00;1724198890;21/08/24;00:08:10;1.015;-0.011;0.067;0.012217304669320583;-0.012217304669320583;0.004886921960860491
01:00:0A:00:00:00:00;1724198891;21/08/24;00:08:11;1.015;-0.011;0.066;0.012217304669320583;-0.012217304669320583;0.0036651913542300463
01:00:0A:00:00:00:00;1724198892;21/08/24;00:08:12;1.015;-0.01;0.067;0.012217304669320583;-0.009773843921720982;0.0024434609804302454
01:00:0A:00:00:00:00;1724198893;21/08/24;00:08:13;1.015;-0.01;0.067;0.012217304669320583;-0.013439035043120384;0.004886921960860491
01:00:0A:00:00:00:00;1724198894;21/08/24;00:08:14;1.015;-0.011;0.067;0.012217304669320583;-0.010995574295520782;0.0024434609804302454
01:00:0A:00:00:00:00;1724198895;21/08/24;00:08:15;1.014;-0.01;0.068;0.012217304669320583;-0.012217304669320583;0.004886921960860491
01:00:0A:00:00:00:00;1724198896;21/08/24;00:08:16;1.016;-0.01;0.066;0.012217304669320583;-0.010995574295520782;0.0036651913542300463
01:00:0A:00:00:00:00;1724198897;21/08/24;00:08:17;1.016;-0.012;0.066;0.012217304669320583;-0.012217304669320583;0.0036651913542300463
01:00:0A:00:00:00:00;1724198898;21/08/24;00:08:18;1.016;-0.011;0.066;0.012217304669320583;-0.010995574295520782;0.0036651913542300463
01:00:0A:00:00:00:00;1724198899;21/08/24;00:08:19;1.014;-0.011;0.066;0.012217304669320583;-0.012217304669320583;0.004886921960860491
01:00:0A:00:00:00:00;1724198900;21/08/24;00:08:20;1.015;-0.011;0.067;0.012217304669320583;-0.010995574295520782;0.0024434609804302454
01:00:0A:00:00:00:00;1724198901;21/08/24;00:08:21;1.015;-0.01;0.067;0.012217304669320583;-0.012217304669320583;0.0036651913542300463
01:00:0A:00:00:00:00;1724198902;21/08/24;00:08:22;1.015;-0.011;0.067;0.012217304669320583;-0.010995574295520782;0.0036651913542300463
01:00:0A:00:00:00:00;1724198903;21/08/24;00:08:23;1.016;-0.01;0.067;0.012217304669320583;-0.012217304669320583;0.0036651913542300463
01:00:0A:00:00:00:00;1724198904;21/08/24;00:08:24;1.015;-0.01;0.067;0.012217304669320583;-0.010995574295520782;0.0036651913542300463
01:00:0A:00:00:00:00;1724198905;21/08/24;00:08:25;1.016;-0.01;0.067;0.012217304669320583;-0.012217304669320583;0.004886921960860491
01:00:0A:00:00:00:00;1724198906;21/08/24;00:08:26;1.016;-0.011;0.067;0.012217304669320583;-0.010995574295520782;0.0024434609804302454
01:00:0A:00:00:00:00;1724198907;21/08/24;00:08:27;1.015;-0.009;0.068;0.012217304669320583;-0.010995574295520782;0.0036651913542300463
01:00:0A:00:00:00:00;1724198908;21/08/24;00:08:28;1.016;-0.011;0.068;0.012217304669320583;-0.012217304669320583;0.0036651913542300463
01:00:0A:00:00:00:00;1724198909;21/08/24;00:08:29;1.014;-0.01;0.067;0.013439035043120384;-0.010995574295520782;0.0036651913542300463
01:00:0A:00:00:00:00;1724198910;21/08/24;00:08:30;1.015;-0.01;0.067;0.012217304669320583;-0.010995574295520782;0.0036651913542300463
01:00:0A:00:00:00:00;1724198911;21/08/24;00:08:31;1.015;-0.01;0.066;0.013439035043120384;-0.012217304669320583;0.0036651913542300463
01:00:0A:00:00:00:00;1724198912;21/08/24;00:08:32;1.015;-0.01;0.067;0.013439035043120384;-0.012217304669320583;0.0036651913542300463
01:00:0A:00:00:00:00;1724198913;21/08/24;00:08:33;1.014;-0.01;0.067;0.012217304669320583;-0.010995574295520782;0.0036651913542300463
01:00:0A:00:00:00:00;1724198914;21/08/24;00:08:34;1.015;-0.011;0.067;0.012217304669320583;-0.010995574295520782;0.0036651913542300463
01:00:0A:00:00:00:00;1724198915;21/08/24;00:08:35;1.015;-0.01;0.067;0.012217304669320583;-0.010995574295520782;0.0036651913542300463
01:00:0A:00:00:00:00;1724198916;21/08/24;00:08:36;1.016;-0.018;0.054;0.013439035043120384;-0.036651913076639175;0.01710422709584236
01:00:0A:00:00:00:00;1724198917;21/08/24;00:08:37;1.016;-0.021;0.035;0.02687807008624077;-0.015882495790719986;0.0036651913542300463
01:00:0A:00:00:00:00;1724198918;21/08/24;00:08:38;1.015;-0.018;0.045;0.039095375686883926;0.0073303827084600925;-0.0012217304902151227
01:00:0A:00:00:00:00;1724198919;21/08/24;00:08:39;1.015;-0.008;0.067;0.040317103266716;0.00855211354792118;-0.006108652334660292
01:00:0A:00:00:00:00;1724198920;21/08/24;00:08:40;1.015;-0.007;0.075;0.03176499158143997;-0.019547687843441963;0.013439035043120384
01:00:0A:00:00:00:00;1724198921;21/08/24;00:08:41;1.016;-0.016;0.059;0.03298672288656235;-0.02076941914856434;0.0073303827084600925
01:00:0A:00:00:00:00;1724198922;21/08/24;00:08:42;1.016;-0.008;0.068;0.036651913076639175;0.0036651913542300463;-0.004886921960860491
01:00:0A:00:00:00:00;1724198923;21/08/24;00:08:43;1.015;-0.007;0.073;0.030543262138962746;-0.019547687843441963;0.012217304669320583
01:00:0A:00:00:00:00;1724198924;21/08/24;00:08:44;1.015;-0.015;0.06;0.03298672288656235;-0.015882495790719986;0.004886921960860491
01:00:0A:00:00:00:00;1724198925;21/08/24;00:08:45;1.016;-0.008;0.067;0.0354301817715168;0.0;-0.0036651913542300463
01:00:0A:00:00:00:00;1724198926;21/08/24;00:08:46;1.016;-0.008;0.071;0.030543262138962746;-0.019547687843441963;0.012217304669320583
01:00:0A:00:00:00:00;1724198927;21/08/24;00:08:47;1.015;-0.015;0.061;0.03298672288656235;-0.014660765416920185;0.006108652334660292
01:00:0A:00:00:00:00;1724198928;21/08/24;00:08:48;1.015;-0.008;0.069;0.0354301817715168;-0.0012217304902151227;-0.0036651913542300463
01:00:0A:00:00:00:00;1724198929;21/08/24;00:08:49;1.014;-0.008;0.07;0.030543262138962746;-0.018325956538319588;0.012217304669320583
01:00:0A:00:00:00:00;1724198930;21/08/24;00:08:50;1.015;-0.015;0.063;0.03298672288656235;-0.013439035043120384;0.0036651913542300463
01:00:0A:00:00:00:00;1724198931;21/08/24;00:08:51;1.015;-0.008;0.069;0.03420845419168472;-0.004886921960860491;0.0
01:00:0A:00:00:00:00;1724198932;21/08/24;00:08:52;1.014;-0.009;0.069;0.030543262138962746;-0.015882495790719986;0.010995574295520782
01:00:0A:00:00:00:00;1724198933;21/08/24;00:08:53;1.016;-0.015;0.064;0.03298672288656235;-0.012217304669320583;0.0036651913542300463
01:00:0A:00:00:00:00;1724198934;21/08/24;00:08:54;1.015;-0.008;0.068;0.03420845419168472;-0.004886921960860491;-0.0012217304902151227
01:00:0A:00:00:00:00;1724198935;21/08/24;00:08:55;1.016;-0.01;0.067;0.030543262138962746;-0.015882495790719986;0.012217304669320583
01:00:0A:00:00:00:00;1724198936;21/08/24;00:08:56;1.016;-0.012;0.065;0.03298672288656235;-0.010995574295520782;0.0024434609804302454
01:00:0A:00:00:00:00;1724198937;21/08/24;00:08:57;1.015;-0.008;0.069;0.03298672288656235;-0.0073303827084600925;0.0012217304902151227
01:00:0A:00:00:00:00;1724198938;21/08/24;00:08:58;1.014;-0.011;0.068;0.030543262138962746;-0.015882495790719986;0.009773843921720982
01:00:0A:00:00:00:00;1724198939;21/08/24;00:08:59;1.014;-0.013;0.063;0.03176499158143997;-0.010995574295520782;0.004886921960860491
01:00:0A:00:00:00:00;1724198940;21/08/24;00:09:00;1.016;-0.009;0.067;0.03176499158143997;-0.00855211354792118;0.0012217304902151227
01:00:0A:00:00:00:00;1724198941;21/08/24;00:09:01;1.015;-0.01;0.067;0.02932153083384037;-0.014660765416920185;0.009773843921720982
01:00:0A:00:00:00:00;1724198942;21/08/24;00:09:02;1.015;-0.013;0.066;0.03176499158143997;-0.010995574295520782;0.0024434609804302454
01:00:0A:00:00:00:00;1724198943;21/08/24;00:09:03;1.015;-0.009;0.069;0.03176499158143997;-0.00855211354792118;0.0024434609804302454
01:00:0A:00:00:00:00;1724198944;21/08/24;00:09:04;1.015;-0.011;0.068;0.02932153083384037;-0.013439035043120384;0.009773843921720982
01:00:0A:00:00:00:00;1724198945;21/08/24;00:09:05;1.015;-0.012;0.066;0.030543262138962746;-0.010995574295520782;0.0024434609804302454
01:00:0A:00:00:00:00;1724198946;21/08/24;00:09:06;1.015;-0.009;0.068;0.030543262138962746;-0.00855211354792118;0.0024434609804302454
01:00:0A:00:00:00:00;1724198947;21/08/24;00:09:07;1.015;-0.01;0.066;0.02932153083384037;-0.013439035043120384;0.00855211354792118
01:00:0A:00:00:00:00;1724198948;21/08/24;00:09:08;1.014;-0.015;0.064;0.030543262138962746;-0.014660765416920185;0.013439035043120384
01:00:0A:00:00:00:00;1724198949;21/08/24;00:09:09;1.016;-0.025;0.058;0.036651913076639175;-0.015882495790719986;0.00855211354792118
01:00:0A:00:00:00:00;1724198950;21/08/24;00:09:10;1.015;-0.023;0.059;0.04642575979232788;-0.006108652334660292;0.0
01:00:0A:00:00:00:00;1724198951;21/08/24;00:09:11;1.015;-0.015;0.065;0.05009094998240471;-0.00855211354792118;-0.0036651913542300463
01:00:0A:00:00:00:00;1724198952;21/08/24;00:09:12;1.015;-0.01;0.067;0.04886921867728233;-0.00855211354792118;0.0024434609804302454
01:00:0A:00:00:00:00;1724198953;21/08/24;00:09:13;1.016;-0.011;0.068;0.04642575979232788;-0.012217304669320583;0.009773843921720982
01:00:0A:00:00:00:00;1724198954;21/08/24;00:09:14;1.015;-0.012;0.065;0.04642575979232788;-0.012217304669320583;0.004886921960860491
01:00:0A:00:00:00:00;1724198955;21/08/24;00:09:15;1.015;-0.009;0.067;0.04642575979232788;-0.009773843921720982;0.0024434609804302454
01:00:0A:00:00:00:00;1724198956;21/08/24;00:09:16;1.014;-0.01;0.068;0.04398229718208313;-0.012217304669320583;0.00855211354792118
01:00:0A:00:00:00:00;1724198957;21/08/24;00:09:17;1.016;-0.012;0.067;0.04398229718208313;-0.012217304669320583;0.004886921960860491
01:00:0A:00:00:00:00;1724198958;21/08/24;00:09:18;1.016;-0.01;0.067;0.045204028487205505;-0.009773843921720982;0.0024434609804302454
01:00:0A:00:00:00:00;1724198959;21/08/24;00:09:19;1.015;-0.01;0.068;0.042760565876960754;-0.012217304669320583;0.00855211354792118
01:00:0A:00:00:00:00;1724198960;21/08/24;00:09:20;1.016;-0.011;0.066;0.04398229718208313;-0.012217304669320583;0.0036651913542300463
01:00:0A:00:00:00:00;1724198961;21/08/24;00:09:21;1.015;-0.01;0.068;0.04398229718208313;-0.009773843921720982;0.0036651913542300463
01:00:0A:00:00:00:00;1724198962;21/08/24;00:09:22;1.016;-0.01;0.067;0.042760565876960754;-0.010995574295520782;0.012217304669320583
01:00:0A:00:00:00:00;1724198963;21/08/24;00:09:23;1.015;-0.017;0.066;0.045204028487205505;-0.010995574295520782;0.00855211354792118
01:00:0A:00:00:00:00;1724198964;21/08/24;00:09:24;1.014;-0.018;0.067;0.04886921867728233;-0.013439035043120384;0.009773843921720982
01:00:0A:00:00:00:00;1724198965;21/08/24;00:09:25;1.015;-0.018;0.065;0.05375614017248154;-0.009773843921720982;0.0
01:00:0A:00:00:00:00;1724198966;21/08/24;00:09:26;1.015;-0.011;0.068;0.05497787147760391;-0.009773843921720982;0.0024434609804302454
01:00:0A:00:00:00:00;1724198967;21/08/24;00:09:27;1.015;-0.01;0.067;0.05375614017248154;-0.014660765416920185;0.0036651913542300463
01:00:0A:00:00:00:00;1724198968;21/08/24;00:09:28;1.016;-0.009;0.065;0.05497787147760391;-0.009773843921720982;0.004886921960860491
01:00:0A:00:00:00:00;1724198969;21/08/24;00:09:29;1.015;-0.011;0.067;0.05375614017248154;-0.00855211354792118;0.0073303827084600925
01:00:0A:00:00:00:00;1724198970;21/08/24;00:09:30;1.016;-0.011;0.068;0.05253440886735916;-0.014660765416920185;0.0036651913542300463
01:00:0A:00:00:00:00;1724198971;21/08/24;00:09:31;1.015;-0.01;0.065;0.05253440886735916;-0.009773843921720982;0.006108652334660292
01:00:0A:00:00:00:00;1724198972;21/08/24;00:09:32;1.016;-0.011;0.068;0.051312677562236786;-0.009773843921720982;0.0073303827084600925
01:00:0A:00:00:00:00;1724198973;21/08/24;00:09:33;1.015;-0.015;0.069;0.051312677562236786;-0.012217304669320583;0.004886921960860491
01:00:0A:00:00:00:00;1724198974;21/08/24;00:09:34;1.014;-0.014;0.068;0.051312677562236786;-0.009773843921720982;0.0073303827084600925
01:00:0A:00:00:00:00;1724198975;21/08/24;00:09:35;1.016;-0.014;0.068;0.05253440886735916;-0.010995574295520782;0.0036651913542300463
01:00:0A:00:00:00:00;1724198976;21/08/24;00:09:36;1.016;-0.013;0.067;0.05253440886735916;-0.010995574295520782;0.006108652334660292
01:00:0A:00:00:00:00;1724198977;21/08/24;00:09:37;1.016;-0.012;0.068;0.051312677562236786;-0.013439035043120384;0.0012217304902151227
01:00:0A:00:00:00:00;1724198978;21/08/24;00:09:38;1.016;-0.009;0.066;0.05009094998240471;-0.009773843921720982;0.0073303827084600925
01:00:0A:00:00:00:00;1724198979;21/08/24;00:09:39;1.015;-0.012;0.068;0.05009094998240471;-0.009773843921720982;0.0073303827084600925
01:00:0A:00:00:00:00;1724198980;21/08/24;00:09:40;1.016;-0.009;0.067;0.04886921867728233;-0.013439035043120384;0.0024434609804302454
01:00:0A:00:00:00:00;1724198981;21/08/24;00:09:41;1.016;-0.012;0.069;0.04764748737215996;-0.00855211354792118;0.00855211354792118
01:00:0A:00:00:00:00;1724198982;21/08/24;00:09:42;1.016;-0.012;0.068;0.04764748737215996;-0.013439035043120384;0.0024434609804302454
01:00:0A:00:00:00:00;1724198983;21/08/24;00:09:43;1.015;-0.011;0.068;0.04642575979232788;-0.00855211354792118;0.006108652334660292
01:00:0A:00:00:00:00;1724198984;21/08/24;00:09:44;1.015;-0.012;0.07;0.045204028487205505;-0.012217304669320583;0.004886921960860491
01:00:0A:00:00:00:00;1724198985;21/08/24;00:09:45;1.014;-0.013;0.07;0.045204028487205505;-0.010995574295520782;0.004886921960860491
01:00:0A:00:00:00:00;1724198986;21/08/24;00:09:46;1.015;-0.011;0.069;0.04398229718208313;-0.012217304669320583;0.0024434609804302454
01:00:0A:00:00:00:00;1724198987;21/08/24;00:09:47;1.016;-0.01;0.067;0.042760565876960754;-0.012217304669320583;0.004886921960860491
01:00:0A:00:00:00:00;1724198988;21/08/24;00:09:48;1.015;-0.011;0.067;0.042760565876960754;-0.009773843921720982;0.006108652334660292
01:00:0A:00:00:00:00;1724198989;21/08/24;00:09:49;1.016;-0.01;0.068;0.04153883829712868;-0.010995574295520782;0.0036651913542300463
01:00:0A:00:00:00:00;1724198990;21/08/24;00:09:50;1.015;-0.011;0.071;0.040317103266716;-0.004886921960860491;0.00855211354792118
01:00:0A:00:00:00:00;1724198991;21/08/24;00:09:51;1.015;-0.01;0.068;0.040317103266716;-0.013439035043120384;0.0012217304902151227
01:00:0A:00:00:00:00;1724198992;21/08/24;00:09:52;1.016;-0.009;0.069;0.039095375686883926;-0.009773843921720982;0.006108652334660292
01:00:0A:00:00:00:00;1724198993;21/08/24;00:09:53;1.015;-0.012;0.066;0.03787364438176155;-0.014660765416920185;0.004886921960860491
01:00:0A:00:00:00:00;1724198994;21/08/24;00:09:54;1.015;-0.011;0.068;0.03787364438176155;-0.009773843921720982;0.0024434609804302454
01:00:0A:00:00:00:00;1724198995;21/08/24;00:09:55;1.016;-0.009;0.068;0.036651913076639175;-0.013439035043120384;0.004886921960860491
01:00:0A:00:00:00:00;1724198996;21/08/24;00:09:56;1.016;-0.011;0.067;0.036651913076639175;-0.00855211354792118;0.0073303827084600925
01:00:0A:00:00:00:00;1724198997;21/08/24;00:09:57;1.016;-0.011;0.069;0.036651913076639175;-0.013439035043120384;0.0012217304902151227
01:00:0A:00:00:00:00;1724198998;21/08/24;00:09:58;1.015;-0.01;0.07;0.03420845419168472;-0.0073303827084600925;0.0073303827084600925
01:00:0A:00:00:00:00;1724198999;21/08/24;00:09:59;1.015;-0.013;0.072;0.03298672288656235;-0.014660765416920185;0.006108652334660292
01:00:0A:00:00:00:00;1724199000;21/08/24;00:10:00;1.015;-0.009;0.069;0.03298672288656235;-0.012217304669320583;0.0024434609804302454
01:00:0A:00:00:00:00;1724199001;21/08/24;00:10:01;1.016;-0.01;0.068;0.03176499158143997;-0.014660765416920185;0.004886921960860491
01:00:0A:00:00:00:00;1724199002;21/08/24;00:10:02;1.015;-0.011;0.065;0.03176499158143997;-0.009773843921720982;0.006108652334660292
01:00:0A:00:00:00:00;1724199003;21/08/24;00:10:03;1.014;-0.01;0.071;0.03176499158143997;-0.010995574295520782;0.0024434609804302454
01:00:0A:00:00:00:00;1724199004;21/08/24;00:10:04;1.015;-0.009;0.064;0.030543262138962746;-0.01710422709584236;0.004886921960860491
01:00:0A:00:00:00:00;1724199005;21/08/24;00:10:05;1.015;-0.012;0.068;0.030543262138962746;-0.006108652334660292;0.006108652334660292
01:00:0A:00:00:00:00;1724199006;21/08/24;00:10:06;1.017;-0.009;0.066;0.030543262138962746;-0.012217304669320583;0.0036651913542300463
01:00:0A:00:00:00:00;1724199007;21/08/24;00:10:07;1.015;-0.011;0.073;0.02687807008624077;-0.02321287989616394;0.0024434609804302454
01:00:0A:00:00:00:00;1724199008;21/08/24;00:10:08;1.014;-0.009;0.065;0.02687807008624077;-0.0024434609804302454;0.004886921960860491
01:00:0A:00:00:00:00;1724199009;21/08/24;00:10:09;1.014;-0.009;0.07;0.025656338781118393;-0.013439035043120384;0.006108652334660292
01:00:0A:00:00:00:00;1724199010;21/08/24;00:10:10;1.014;-0.01;0.064;0.025656338781118393;-0.018325956538319588;0.0024434609804302454
01:00:0A:00:00:00:00;1724199011;21/08/24;00:10:11;1.015;-0.009;0.065;0.02687807008624077;-0.0036651913542300463;0.0036651913542300463
01:00:0A:00:00:00:00;1724199012;21/08/24;00:10:12;1.015;-0.011;0.071;0.025656338781118393;-0.013439035043120384;0.006108652334660292
01:00:0A:00:00:00:00;1724199013;21/08/24;00:10:13;1.015;-0.01;0.063;0.025656338781118393;-0.01710422709584236;0.0036651913542300463
01:00:0A:00:00:00:00;1724199014;21/08/24;00:10:14;1.016;-0.009;0.067;0.02687807008624077;-0.004886921960860491;0.004886921960860491
01:00:0A:00:00:00:00;1724199015;21/08/24;00:10:15;1.015;-0.01;0.07;0.025656338781118393;-0.013439035043120384;0.004886921960860491
01:00:0A:00:00:00:00;1724199016;21/08/24;00:10:16;1.016;-0.009;0.068;0.024434609338641167;-0.009773843921720982;0.0024434609804302454
01:00:0A:00:00:00:00;1724199017;21/08/24;00:10:17;1.015;-0.009;0.07;0.021991148591041565;-0.012217304669320583;0.004886921960860491
01:00:0A:00:00:00:00;1724199018;21/08/24;00:10:18;1.014;-0.01;0.071;0.019547687843441963;-0.010995574295520782;0.004886921960860491
01:00:0A:00:00:00:00;1724199019;21/08/24;00:10:19;1.015;-0.009;0.07;0.018325956538319588;-0.009773843921720982;0.0036651913542300463
01:00:0A:00:00:00:00;1724199020;21/08/24;00:10:20;1.015;-0.01;0.065;0.01710422709584236;-0.019547687843441963;0.0036651913542300463
01:00:0A:00:00:00:00;1724199021;21/08/24;00:10:21;1.015;-0.011;0.066;0.018325956538319588;-0.0036651913542300463;0.004886921960860491
01:00:0A:00:00:00:00;1724199022;21/08/24;00:10:22;1.015;-0.011;0.07;0.01710422709584236;-0.014660765416920185;0.0036651913542300463
01:00:0A:00:00:00:00;1724199023;21/08/24;00:10:23;1.015;-0.009;0.064;0.01710422709584236;-0.014660765416920185;0.004886921960860491
01:00:0A:00:00:00:00;1724199024;21/08/24;00:10:24;1.016;-0.008;0.067;0.018325956538319588;-0.004886921960860491;0.004886921960860491
01:00:0A:00:00:00:00;1724199025;21/08/24;00:10:25;1.015;-0.009;0.07;0.01710422709584236;-0.014660765416920185;0.0036651913542300463
01:00:0A:00:00:00:00;1724199026;21/08/24;00:10:26;1.015;-0.01;0.065;0.01710422709584236;-0.014660765416920185;0.0036651913542300463
01:00:0A:00:00:00:00;1724199027;21/08/24;00:10:27;1.014;-0.009;0.066;0.018325956538319588;-0.006108652334660292;0.004886921960860491
01:00:0A:00:00:00:00;1724199028;21/08/24;00:10:28;1.014;-0.01;0.069;0.01710422709584236;-0.013439035043120384;0.0036651913542300463
01:00:0A:00:00:00:00;1724199029;21/08/24;00:10:29;1.016;-0.008;0.064;0.01710422709584236;-0.013439035043120384;0.0036651913542300463
01:00:0A:00:00:00:00;1724199030;21/08/24;00:10:30;1.015;-0.011;0.067;0.01710422709584236;-0.006108652334660292;0.004886921960860491
01:00:0A:00:00:00:00;1724199031;21/08/24;00:10:31;1.015;-0.01;0.068;0.015882495790719986;-0.014660765416920185;0.0024434609804302454
01:00:0A:00:00:00:00;1724199032;21/08/24;00:10:32;1.016;-0.008;0.067;0.014660765416920185;-0.009773843921720982;0.0024434609804302454
01:00:0A:00:00:00:00;1724199033;21/08/24;00:10:33;1.014;-0.009;0.069;0.012217304669320583;-0.015882495790719986;0.0073303827084600925
01:00:0A:00:00:00:00;1724199034;21/08/24;00:10:34;1.016;-0.011;0.065;0.013439035043120384;-0.00855211354792118;0.0012217304902151227
01:00:0A:00:00:00:00;1724199035;21/08/24;00:10:35;1.016;-0.009;0.073;0.010995574295520782;-0.009773843921720982;0.0024434609804302454
01:00:0A:00:00:00:00;1724199036;21/08/24;00:10:36;1.015;-0.01;0.063;0.009773843921720982;-0.021991148591041565;0.006108652334660292
01:00:0A:00:00:00:00;1724199037;21/08/24;00:10:37;1.015;-0.011;0.063;0.013439035043120384;-0.0012217304902151227;0.0024434609804302454
01:00:0A:00:00:00:00;1724199038;21/08/24;00:10:38;1.015;-0.007;0.071;0.012217304669320583;-0.009773843921720982;0.0024434609804302454
01:00:0A:00:00:00:00;1724199039;21/08/24;00:10:39;1.015;-0.01;0.063;0.009773843921720982;-0.02076941914856434;0.004886921960860491
01:00:0A:00:00:00:00;1724199040;21/08/24;00:10:40;1.016;-0.011;0.064;0.012217304669320583;-0.0036651913542300463;0.0024434609804302454
01:00:0A:00:00:00:00;1724199041;21/08/24;00:10:41;1.015;-0.009;0.072;0.010995574295520782;-0.012217304669320583;0.0024434609804302454
01:00:0A:00:00:00:00;1724199042;21/08/24;00:10:42;1.016;-0.01;0.065;0.009773843921720982;-0.018325956538319588;0.004886921960860491
01:00:0A:00:00:00:00;1724199043;21/08/24;00:10:43;1.015;-0.011;0.066;0.012217304669320583;-0.0036651913542300463;0.0024434609804302454
01:00:0A:00:00:00:00;1724199044;21/08/24;00:10:44;1.016;-0.008;0.07;0.010995574295520782;-0.012217304669320583;0.0036651913542300463
01:00:0A:00:00:00:00;1724199045;21/08/24;00:10:45;1.015;-0.011;0.064;0.009773843921720982;-0.01710422709584236;0.004886921960860491
01:00:0A:00:00:00:00;1724199046;21/08/24;00:10:46;1.015;-0.011;0.066;0.012217304669320583;-0.004886921960860491;0.0024434609804302454
01:00:0A:00:00:00:00;1724199047;21/08/24;00:10:47;1.015;-0.01;0.07;0.010995574295520782;-0.012217304669320583;0.0036651913542300463
01:00:0A:00:00:00:00;1724199048;21/08/24;00:10:48;1.015;-0.011;0.064;0.009773843921720982;-0.015882495790719986;0.004886921960860491
01:00:0A:00:00:00:00;1724199049;21/08/24;00:10:49;1.016;-0.01;0.066;0.012217304669320583;-0.006108652334660292;0.0036651913542300463
01:00:0A:00:00:00:00;1724199050;21/08/24;00:10:50;1.015;-0.009;0.069;0.010995574295520782;-0.013439035043120384;0.0036651913542300463
01:00:0A:00:00:00:00;1724199051;21/08/24;00:10:51;1.016;-0.011;0.064;0.009773843921720982;-0.014660765416920185;0.004886921960860491
01:00:0A:00:00:00:00;1724199052;21/08/24;00:10:52;1.014;-0.01;0.066;0.010995574295520782;-0.006108652334660292;0.0024434609804302454
01:00:0A:00:00:00:00;1724199053;21/08/24;00:10:53;1.016;-0.01;0.069;0.010995574295520782;-0.013439035043120384;0.0036651913542300463
01:00:0A:00:00:00:00;1724199054;21/08/24;00:10:54;1.015;-0.01;0.065;0.010995574295520782;-0.013439035043120384;0.0036651913542300463
01:00:0A:00:00:00:00;1724199055;21/08/24;00:10:55;1.016;-0.009;0.066;0.010995574295520782;-0.0073303827084600925;0.0036651913542300463
01:00:0A:00:00:00:00;1724199056;21/08/24;00:10:56;1.015;-0.01;0.069;0.010995574295520782;-0.013439035043120384;0.0036651913542300463
01:00:0A:00:00:00:00;1724199057;21/08/24;00:10:57;1.016;-0.01;0.066;0.009773843921720982;-0.013439035043120384;0.004886921960860491
01:00:0A:00:00:00:00;1724199058;21/08/24;00:10:58;1.016;-0.01;0.067;0.010995574295520782;-0.00855211354792118;0.0036651913542300463
01:00:0A:00:00:00:00;1724199059;21/08/24;00:10:59;1.014;-0.009;0.068;0.009773843921720982;-0.013439035043120384;0.004886921960860491
01:00:0A:00:00:00:00;1724199060;21/08/24;00:11:00;1.015;-0.011;0.065;0.009773843921720982;-0.012217304669320583;0.0036651913542300463
01:00:0A:00:00:00:00;1724199061;21/08/24;00:11:01;1.015;-0.011;0.067;0.010995574295520782;-0.00855211354792118;0.0036651913542300463
01:00:0A:00:00:00:00;1724199062;21/08/24;00:11:02;1.016;-0.011;0.068;0.009773843921720982;-0.013439035043120384;0.0036651913542300463
01:00:0A:00:00:00:00;1724199063;21/08/24;00:11:03;1.015;-0.011;0.065;0.009773843921720982;-0.012217304669320583;0.0036651913542300463
01:00:0A:00:00:00:00;1724199064;21/08/24;00:11:04;1.015;-0.008;0.067;0.010995574295520782;-0.00855211354792118;0.0036651913542300463
01:00:0A:00:00:00:00;1724199065;21/08/24;00:11:05;1.015;-0.01;0.068;0.010995574295520782;-0.013439035043120384;0.0036651913542300463
01:00:0A:00:00:00:00;1724199066;21/08/24;00:11:06;1.016;-0.01;0.066;0.009773843921720982;-0.012217304669320583;0.0036651913542300463
01:00:0A:00:00:00:00;1724199067;21/08/24;00:11:07;1.015;-0.01;0.066;0.010995574295520782;-0.009773843921720982;0.0036651913542300463
01:00:0A:00:00:00:00;1724199068;21/08/24;00:11:08;1.014;-0.01;0.067;0.010995574295520782;-0.013439035043120384;0.0036651913542300463
01:00:0A:00:00:00:00;1724199069;21/08/24;00:11:09;1.014;-0.009;0.066;0.010995574295520782;-0.010995574295520782;0.0036651913542300463
01:00:0A:00:00:00:00;1724199070;21/08/24;00:11:10;1.016;-0.011;0.067;0.010995574295520782;-0.009773843921720982;0.0036651913542300463
01:00:0A:00:00:00:00;1724199071;21/08/24;00:11:11;1.015;-0.01;0.067;0.010995574295520782;-0.012217304669320583;0.0036651913542300463
01:00:0A:00:00:00:00;1724199072;21/08/24;00:11:12;1.014;-0.011;0.066;0.010995574295520782;-0.012217304669320583;0.0036651913542300463
01:00:0A:00:00:00:00;1724199073;21/08/24;00:11:13;1.016;-0.011;0.067;0.010995574295520782;-0.009773843921720982;0.0036651913542300463
01:00:0A:00:00:00:00;1724199074;21/08/24;00:11:14;1.015;-0.01;0.067;0.010995574295520782;-0.012217304669320583;0.0036651913542300463
01:00:0A:00:00:00:00;1724199075;21/08/24;00:11:15;1.015;-0.01;0.066;0.010995574295520782;-0.010995574295520782;0.0036651913542300463
01:00:0A:00:00:00:00;1724199076;21/08/24;00:11:16;1.016;-0.009;0.066;0.010995574295520782;-0.010995574295520782;0.0036651913542300463
01:00:0A:00:00:00:00;1724199077;21/08/24;00:11:17;1.016;-0.01;0.066;0.010995574295520782;-0.012217304669320583;0.0036651913542300463
01:00:0A:00:00:00:00;1724199078;21/08/24;00:11:18;1.015;-0.01;0.066;0.010995574295520782;-0.010995574295520782;0.0036651913542300463
01:00:0A:00:00:00:00;1724199079;21/08/24;00:11:19;1.015;-0.01;0.067;0.010995574295520782;-0.010995574295520782;0.0036651913542300463
01:00:0A:00:00:00:00;1724199080;21/08/24;00:11:20;1.015;-0.01;0.067;0.010995574295520782;-0.012217304669320583;0.0036651913542300463
01:00:0A:00:00:00:00;1724199081;21/08/24;00:11:21;1.015;-0.01;0.066;0.010995574295520782;-0.010995574295520782;0.0036651913542300463
01:00:0A:00:00:00:00;1724199082;21/08/24;00:11:22;1.015;-0.01;0.067;0.010995574295520782;-0.010995574295520782;0.0036651913542300463
01:00:0A:00:00:00:00;1724199083;21/08/24;00:11:23;1.015;-0.01;0.066;0.010995574295520782;-0.012217304669320583;0.0036651913542300463
01:00:0A:00:00:00:00;1724199084;21/08/24;00:11:24;1.015;-0.01;0.066;0.010995574295520782;-0.010995574295520782;0.0036651913542300463
01:00:0A:00:00:00:00;1724199085;21/08/24;00:11:25;1.016;-0.01;0.067;0.009773843921720982;-0.010995574295520782;0.0036651913542300463
01:00:0A:00:00:00:00;1724199086;21/08/24;00:11:26;1.016;-0.011;0.066;0.009773843921720982;-0.012217304669320583;0.0036651913542300463
01:00:0A:00:00:00:00;1724199087;21/08/24;00:11:27;1.015;-0.01;0.067;0.009773843921720982;-0.010995574295520782;0.0036651913542300463
01:00:0A:00:00:00:00;1724199088;21/08/24;00:11:28;1.016;-0.011;0.067;0.009773843921720982;-0.010995574295520782;0.0036651913542300463
01:00:0A:00:00:00:00;1724199089;21/08/24;00:11:29;1.015;-0.011;0.067;0.009773843921720982;-0.012217304669320583;0.0036651913542300463
01:00:0A:00:00:00:00;1724199090;21/08/24;00:11:30;1.014;-0.01;0.067;0.009773843921720982;-0.010995574295520782;0.0036651913542300463
01:00:0A:00:00:00:00;1724199091;21/08/24;00:11:31;1.014;-0.01;0.066;0.009773843921720982;-0.010995574295520782;0.0036651913542300463
01:00:0A:00:00:00:00;1724199092;21/08/24;00:11:32;1.014;-0.01;0.067;0.009773843921720982;-0.012217304669320583;0.0036651913542300463
01:00:0A:00:00:00:00;1724199093;21/08/24;00:11:33;1.015;-0.01;0.066;0.009773843921720982;-0.010995574295520782;0.0036651913542300463
01:00:0A:00:00:00:00;1724199094;21/08/24;00:11:34;1.015;-0.01;0.066;0.009773843921720982;-0.010995574295520782;0.0036651913542300463
01:00:0A:00:00:00:00;1724199095;21/08/24;00:11:35;1.015;-0.011;0.066;0.009773843921720982;-0.012217304669320583;0.0036651913542300463
01:00:0A:00:00:00:00;1724199096;21/08/24;00:11:36;1.015;-0.01;0.067;0.009773843921720982;-0.010995574295520782;0.0036651913542300463
01:00:0A:00:00:00:00;1724199097;21/08/24;00:11:37;1.014;-0.01;0.066;0.009773843921720982;-0.010995574295520782;0.0036651913542300463
01:00:0A:00:00:00:00;1724199098;21/08/24;00:11:38;1.015;-0.011;0.067;0.009773843921720982;-0.012217304669320583;0.0036651913542300463
01:00:0A:00:00:00:00;1724199099;21/08/24;00:11:39;1.014;-0.01;0.066;0.009773843921720982;-0.010995574295520782;0.0036651913542300463
01:00:0A:00:00:00:00;1724199100;21/08/24;00:11:40;1.015;-0.011;0.067;0.00855211354792118;-0.010995574295520782;0.0036651913542300463
01:00:0A:00:00:00:00;1724199101;21/08/24;00:11:41;1.015;-0.01;0.067;0.00855211354792118;-0.010995574295520782;0.0036651913542300463
01:00:0A:00:00:00:00;1724199102;21/08/24;00:11:42;1.015;-0.011;0.067;0.009773843921720982;-0.010995574295520782;0.0036651913542300463
01:00:0A:00:00:00:00;1724199103;21/08/24;00:11:43;1.015;-0.011;0.067;0.00855211354792118;-0.012217304669320583;0.0036651913542300463
01:00:0A:00:00:00:00;1724199104;21/08/24;00:11:44;1.015;-0.01;0.066;0.00855211354792118;-0.010995574295520782;0.0036651913542300463
01:00:0A:00:00:00:00;1724199105;21/08/24;00:11:45;1.015;-0.01;0.067;0.00855211354792118;-0.010995574295520782;0.0036651913542300463
01:00:0A:00:00:00:00;1724199106;21/08/24;00:11:46;1.015;-0.01;0.067;0.00855211354792118;-0.010995574295520782;0.0036651913542300463
01:00:0A:00:00:00:00;1724199107;21/08/24;00:11:47;1.014;-0.01;0.065;0.00855211354792118;-0.010995574295520782;0.0036651913542300463
01:00:0A:00:00:00:00;1724199108;21/08/24;00:11:48;1.015;-0.01;0.066;0.00855211354792118;-0.010995574295520782;0.0036651913542300463
01:00:0A:00:00:00:00;1724199109;21/08/24;00:11:49;1.015;-0.01;0.066;0.00855211354792118;-0.010995574295520782;0.0036651913542300463
01:00:0A:00:00:00:00;1724199110;21/08/24;00:11:50;1.016;-0.01;0.066;0.00855211354792118;-0.010995574295520782;0.0036651913542300463
01:00:0A:00:00:00:00;1724199111;21/08/24;00:11:51;1.015;-0.01;0.066;0.00855211354792118;-0.010995574295520782;0.0036651913542300463
01:00:0A:00:00:00:00;1724199112;21/08/24;00:11:52;1.015;-0.01;0.067;0.00855211354792118;-0.012217304669320583;0.0036651913542300463
01:00:0A:00:00:00:00;1724199113;21/08/24;00:11:53;1.015;-0.011;0.066;0.00855211354792118;-0.010995574295520782;0.0036651913542300463
01:00:0A:00:00:00:00;1724199114;21/08/24;00:11:54;1.016;-0.01;0.068;0.00855211354792118;-0.010995574295520782;0.0036651913542300463
01:00:0A:00:00:00:00;1724199115;21/08/24;00:11:55;1.015;-0.011;0.067;0.00855211354792118;-0.010995574295520782;0.0036651913542300463
01:00:0A:00:00:00:00;1724199116;21/08/24;00:11:56;1.015;-0.011;0.067;0.00855211354792118;-0.012217304669320583;0.0036651913542300463
01:00:0A:00:00:00:00;1724199117;21/08/24;00:11:57;1.013;-0.01;0.067;0.00855211354792118;-0.010995574295520782;0.0036651913542300463
01:00:0A:00:00:00:00;1724199118;21/08/24;00:11:58;1.015;-0.01;0.067;0.00855211354792118;-0.010995574295520782;0.0036651913542300463
01:00:0A:00:00:00:00;1724199119;21/08/24;00:11:59;1.015;-0.01;0.067;0.00855211354792118;-0.010995574295520782;0.0036651913542300463
01:00:0A:00:00:00:00;1724199120;21/08/24;00:12:00;1.014;-0.01;0.067;0.00855211354792118;-0.010995574295520782;0.0036651913542300463
01:00:0A:00:00:00:00;1724199121;21/08/24;00:12:01;1.016;-0.01;0.067;0.00855211354792118;-0.010995574295520782;0.0036651913542300463
01:00:0A:00:00:00:00;1724199122;21/08/24;00:12:02;1.016;-0.011;0.066;0.00855211354792118;-0.010995574295520782;0.0036651913542300463
01:00:0A:00:00:00:00;1724199123;21/08/24;00:12:03;1.016;-0.011;0.067;0.00855211354792118;-0.010995574295520782;0.0036651913542300463
01:00:0A:00:00:00:00;1724199124;21/08/24;00:12:04;1.015;-0.01;0.067;0.00855211354792118;-0.010995574295520782;0.0036651913542300463
01:00:0A:00:00:00:00;1724199125;21/08/24;00:12:05;1.015;-0.01;0.067;0.00855211354792118;-0.010995574295520782;0.0036651913542300463
01:00:0A:00:00:00:00;1724199126;21/08/24;00:12:06;1.015;-0.011;0.067;0.00855211354792118;-0.010995574295520782;0.0036651913542300463
01:00:0A:00:00:00:00;1724199127;21/08/24;00:12:07;1.015;-0.01;0.067;0.00855211354792118;-0.010995574295520782;0.0036651913542300463
01:00:0A:00:00:00:00;1724199128;21/08/24;00:12:08;1.014;-0.011;0.067;0.00855211354792118;-0.010995574295520782;0.0036651913542300463
01:00:0A:00:00:00:00;1724199129;21/08/24;00:12:09;1.015;-0.011;0.067;0.00855211354792118;-0.010995574295520782;0.0036651913542300463
01:00:0A:00:00:00:00;1724199130;21/08/24;00:12:10;1.015;-0.011;0.067;0.00855211354792118;-0.010995574295520782;0.0036651913542300463
01:00:0A:00:00:00:00;1724199131;21/08/24;00:12:11;1.015;-0.01;0.067;0.00855211354792118;-0.010995574295520782;0.0036651913542300463
01:00:0A:00:00:00:00;1724199132;21/08/24;00:12:12;1.016;-0.01;0.067;0.00855211354792118;-0.010995574295520782;0.0036651913542300463
01:00:0A:00:00:00:00;1724199133;21/08/24;00:12:13;1.015;-0.011;0.068;0.00855211354792118;-0.010995574295520782;0.0036651913542300463
01:00:0A:00:00:00:00;1724199134;21/08/24;00:12:14;1.015;-0.01;0.067;0.00855211354792118;-0.010995574295520782;0.0036651913542300463
01:00:0A:00:00:00:00;1724199135;21/08/24;00:12:15;1.014;-0.011;0.066;0.00855211354792118;-0.010995574295520782;0.0036651913542300463
01:00:0A:00:00:00:00;1724199136;21/08/24;00:12:16;1.015;-0.011;0.067;0.009773843921720982;-0.010995574295520782;0.0036651913542300463
01:00:0A:00:00:00:00;1724199137;21/08/24;00:12:17;1.016;-0.011;0.068;0.009773843921720982;-0.010995574295520782;0.0036651913542300463
01:00:0A:00:00:00:00;1724199138;21/08/24;00:12:18;1.016;-0.01;0.067;0.009773843921720982;-0.010995574295520782;0.0036651913542300463
01:00:0A:00:00:00:00;1724199139;21/08/24;00:12:19;1.015;-0.009;0.067;0.009773843921720982;-0.010995574295520782;0.0036651913542300463
01:00:0A:00:00:00:00;1724199140;21/08/24;00:12:20;1.016;-0.009;0.067;0.010995574295520782;-0.012217304669320583;0.0036651913542300463
01:00:0A:00:00:00:00;1724199141;21/08/24;00:12:21;1.016;-0.01;0.067;0.010995574295520782;-0.010995574295520782;0.0036651913542300463
01:00:0A:00:00:00:00;1724199142;21/08/24;00:12:22;1.015;-0.01;0.067;0.010995574295520782;-0.010995574295520782;0.0036651913542300463
01:00:0A:00:00:00:00;1724199143;21/08/24;00:12:23;1.015;-0.01;0.066;0.010995574295520782;-0.010995574295520782;0.0036651913542300463
01:00:0A:00:00:00:00;1724199144;21/08/24;00:12:24;1.015;-0.01;0.067;0.010995574295520782;-0.010995574295520782;0.0036651913542300463
01:00:0A:00:00:00:00;1724199145;21/08/24;00:12:25;1.016;-0.01;0.067;0.012217304669320583;-0.010995574295520782;0.0036651913542300463
01:00:0A:00:00:00:00;1724199146;21/08/24;00:12:26;1.015;-0.01;0.068;0.012217304669320583;-0.010995574295520782;0.0036651913542300463
01:00:0A:00:00:00:00;1724199147;21/08/24;00:12:27;1.015;-0.01;0.067;0.012217304669320583;-0.010995574295520782;0.0036651913542300463
01:00:0A:00:00:00:00;1724199148;21/08/24;00:12:28;1.015;-0.01;0.066;0.010995574295520782;-0.010995574295520782;0.0036651913542300463
01:00:0A:00:00:00:00;1724199149;21/08/24;00:12:29;1.015;-0.009;0.067;0.010995574295520782;-0.010995574295520782;0.0036651913542300463
01:00:0A:00:00:00:00;1724199150;21/08/24;00:12:30;1.015;-0.01;0.068;0.010995574295520782;-0.010995574295520782;0.0036651913542300463
01:00:0A:00:00:00:00;1724199151;21/08/24;00:12:31;1.016;-0.01;0.067;0.010995574295520782;-0.010995574295520782;0.0036651913542300463
01:00:0A:00:00:00:00;1724199152;21/08/24;00:12:32;1.015;-0.01;0.067;0.010995574295520782;-0.010995574295520782;0.0036651913542300463
01:00:0A:00:00:00:00;1724199153;21/08/24;00:12:33;1.015;-0.01;0.066;0.009773843921720982;-0.010995574295520782;0.0036651913542300463
01:00:0A:00:00:00:00;1724199154;21/08/24;00:12:34;1.015;-0.01;0.067;0.009773843921720982;-0.012217304669320583;0.0036651913542300463
01:00:0A:00:00:00:00;1724199155;21/08/24;00:12:35;1.015;-0.01;0.068;0.009773843921720982;-0.010995574295520782;0.0036651913542300463
01:00:0A:00:00:00:00;1724199156;21/08/24;00:12:36;1.015;-0.01;0.067;0.00855211354792118;-0.010995574295520782;0.0036651913542300463
01:00:0A:00:00:00:00;1724199157;21/08/24;00:12:37;1.015;-0.011;0.067;0.00855211354792118;-0.010995574295520782;0.0036651913542300463
01:00:0A:00:00:00:00;1724199158;21/08/24;00:12:38;1.014;-0.008;0.066;0.00855211354792118;-0.010995574295520782;0.0036651913542300463
01:00:0A:00:00:00:00;1724199159;21/08/24;00:12:39;1.016;-0.01;0.066;0.0073303827084600925;-0.010995574295520782;0.0036651913542300463
01:00:0A:00:00:00:00;1724199160;21/08/24;00:12:40;1.015;-0.009;0.068;0.0073303827084600925;-0.010995574295520782;0.0036651913542300463
01:00:0A:00:00:00:00;1724199161;21/08/24;00:12:41;1.015;-0.01;0.066;0.006108652334660292;-0.012217304669320583;0.0036651913542300463
01:00:0A:00:00:00:00;1724199162;21/08/24;00:12:42;1.015;-0.01;0.067;0.006108652334660292;-0.010995574295520782;0.0036651913542300463
01:00:0A:00:00:00:00;1724199163;21/08/24;00:12:43;1.016;-0.01;0.067;0.006108652334660292;-0.010995574295520782;0.0036651913542300463
01:00:0A:00:00:00:00;1724199164;21/08/24;00:12:44;1.015;-0.01;0.067;0.006108652334660292;-0.010995574295520782;0.0036651913542300463
01:00:0A:00:00:00:00;1724199165;21/08/24;00:12:45;1.015;-0.01;0.067;0.004886921960860491;-0.010995574295520782;0.0036651913542300463
01:00:0A:00:00:00:00;1724199166;21/08/24;00:12:46;1.015;-0.009;0.066;0.004886921960860491;-0.012217304669320583;0.0036651913542300463
01:00:0A:00:00:00:00;1724199167;21/08/24;00:12:47;1.014;-0.01;0.065;0.004886921960860491;-0.010995574295520782;0.0036651913542300463
01:00:0A:00:00:00:00;1724199168;21/08/24;00:12:48;1.015;-0.01;0.067;0.004886921960860491;-0.010995574295520782;0.0036651913542300463
01:00:0A:00:00:00:00;1724199169;21/08/24;00:12:49;1.015;-0.01;0.066;0.0036651913542300463;-0.010995574295520782;0.0036651913542300463
01:00:0A:00:00:00:00;1724199170;21/08/24;00:12:50;1.014;-0.01;0.068;0.0036651913542300463;-0.010995574295520782;0.0036651913542300463
01:00:0A:00:00:00:00;1724199171;21/08/24;00:12:51;1.014;-0.01;0.066;0.0036651913542300463;-0.010995574295520782;0.0036651913542300463
01:00:0A:00:00:00:00;1724199172;21/08/24;00:12:52;1.015;-0.009;0.068;0.0036651913542300463;-0.010995574295520782;0.0036651913542300463
01:00:0A:00:00:00:00;1724199173;21/08/24;00:12:53;1.014;-0.009;0.067;0.0036651913542300463;-0.010995574295520782;0.0036651913542300463
01:00:0A:00:00:00:00;1724199174;21/08/24;00:12:54;1.015;-0.01;0.067;0.0036651913542300463;-0.010995574295520782;0.0036651913542300463
01:00:0A:00:00:00:00;1724199175;21/08/24;00:12:55;1.014;-0.011;0.067;0.0036651913542300463;-0.012217304669320583;0.0036651913542300463
01:00:0A:00:00:00:00;1724199176;21/08/24;00:12:56;1.016;-0.01;0.066;0.0024434609804302454;-0.010995574295520782;0.0036651913542300463
01:00:0A:00:00:00:00;1724199177;21/08/24;00:12:57;1.015;-0.01;0.066;0.0024434609804302454;-0.010995574295520782;0.0036651913542300463
01:00:0A:00:00:00:00;1724199178;21/08/24;00:12:58;1.016;-0.01;0.067;0.0024434609804302454;-0.010995574295520782;0.0036651913542300463
01:00:0A:00:00:00:00;1724199179;21/08/24;00:12:59;1.015;-0.01;0.066;0.0024434609804302454;-0.010995574295520782;0.0036651913542300463
01:00:0A:00:00:00:00;1724199180;21/08/24;00:13:00;1.016;-0.01;0.067;0.0024434609804302454;-0.010995574295520782;0.0036651913542300463
01:00:0A:00:00:00:00;1724199181;21/08/24;00:13:01;1.015;-0.01;0.067;0.0024434609804302454;-0.010995574295520782;0.0036651913542300463
01:00:0A:00:00:00:00;1724199182;21/08/24;00:13:02;1.015;-0.009;0.066;0.0024434609804302454;-0.010995574295520782;0.0036651913542300463
01:00:0A:00:00:00:00;1724199183;21/08/24;00:13:03;1.014;-0.011;0.066;0.0024434609804302454;-0.010995574295520782;0.0036651913542300463
01:00:0A:00:00:00:00;1724199184;21/08/24;00:13:04;1.015;-0.01;0.067;0.0024434609804302454;-0.010995574295520782;0.0036651913542300463
01:00:0A:00:00:00:00;1724199185;21/08/24;00:13:05;1.016;-0.01;0.066;0.0024434609804302454;-0.010995574295520782;0.0036651913542300463
01:00:0A:00:00:00:00;1724199186;21/08/24;00:13:06;1.015;-0.011;0.067;0.0024434609804302454;-0.010995574295520782;0.0036651913542300463
01:00:0A:00:00:00:00;1724199187;21/08/24;00:13:07;1.015;-0.01;0.066;0.0024434609804302454;-0.010995574295520782;0.0036651913542300463
01:00:0A:00:00:00:00;1724199188;21/08/24;00:13:08;1.016;-0.011;0.067;0.0024434609804302454;-0.010995574295520782;0.0036651913542300463
01:00:0A:00:00:00:00;1724199189;21/08/24;00:13:09;1.015;-0.01;0.068;0.0036651913542300463;-0.010995574295520782;0.0036651913542300463
01:00:0A:00:00:00:00;1724199190;21/08/24;00:13:10;1.015;-0.011;0.067;0.0036651913542300463;-0.010995574295520782;0.0036651913542300463
01:00:0A:00:00:00:00;1724199191;21/08/24;00:13:11;1.015;-0.01;0.067;0.0036651913542300463;-0.010995574295520782;0.0036651913542300463
01:00:0A:00:00:00:00;1724199192;21/08/24;00:13:12;1.015;-0.011;0.066;0.0024434609804302454;-0.010995574295520782;0.0036651913542300463
01:00:0A:00:00:00:00;1724199193;21/08/24;00:13:13;1.015;-0.011;0.067;0.0036651913542300463;-0.010995574295520782;0.0036651913542300463
01:00:0A:00:00:00:00;1724199194;21/08/24;00:13:14;1.014;-0.011;0.067;0.0036651913542300463;-0.010995574295520782;0.0036651913542300463
01:00:0A:00:00:00:00;1724199195;21/08/24;00:13:15;1.016;-0.01;0.066;0.0036651913542300463;-0.010995574295520782;0.0036651913542300463
01:00:0A:00:00:00:00;1724199196;21/08/24;00:13:16;1.015;-0.011;0.066;0.0036651913542300463;-0.010995574295520782;0.0036651913542300463
01:00:0A:00:00:00:00;1724199197;21/08/24;00:13:17;1.016;-0.011;0.067;0.0036651913542300463;-0.010995574295520782;0.0036651913542300463
01:00:0A:00:00:00:00;1724199198;21/08/24;00:13:18;1.015;-0.01;0.066;0.004886921960860491;-0.010995574295520782;0.0036651913542300463
01:00:0A:00:00:00:00;1724199199;21/08/24;00:13:19;1.015;-0.01;0.067;0.0036651913542300463;-0.010995574295520782;0.0024434609804302454
01:00:0A:00:00:00:00;1724199200;21/08/24;00:13:20;1.014;-0.01;0.067;0.004886921960860491;-0.010995574295520782;0.0036651913542300463
01:00:0A:00:00:00:00;1724199201;21/08/24;00:13:21;1.014;-0.011;0.067;0.004886921960860491;-0.012217304669320583;0.0036651913542300463
01:00:0A:00:00:00:00;1724199202;21/08/24;00:13:22;1.014;-0.01;0.066;0.0036651913542300463;-0.010995574295520782;0.0036651913542300463
01:00:0A:00:00:00:00;1724199203;21/08/24;00:13:23;1.015;-0.011;0.067;0.004886921960860491;-0.010995574295520782;0.0036651913542300463
01:00:0A:00:00:00:00;1724199204;21/08/24;00:13:24;1.015;-0.009;0.066;0.004886921960860491;-0.010995574295520782;0.0036651913542300463
01:00:0A:00:00:00:00;1724199205;21/08/24;00:13:25;1.015;-0.011;0.067;0.0036651913542300463;-0.010995574295520782;0.0036651913542300463
01:00:0A:00:00:00:00;1724199206;21/08/24;00:13:26;1.015;-0.01;0.066;0.004886921960860491;-0.010995574295520782;0.0036651913542300463
01:00:0A:00:00:00:00;1724199207;21/08/24;00:13:27;1.014;-0.011;0.067;0.004886921960860491;-0.010995574295520782;0.0036651913542300463
01:00:0A:00:00:00:00;1724199208;21/08/24;00:13:28;1.014;-0.011;0.067;0.004886921960860491;-0.010995574295520782;0.0036651913542300463
01:00:0A:00:00:00:00;1724199209;21/08/24;00:13:29;1.014;-0.01;0.066;0.004886921960860491;-0.010995574295520782;0.0036651913542300463
01:00:0A:00:00:00:00;1724199210;21/08/24;00:13:30;1.016;-0.011;0.066;0.004886921960860491;-0.010995574295520782;0.0036651913542300463
01:00:0A:00:00:00:00;1724199211;21/08/24;00:13:31;1.015;-0.011;0.066;0.0036651913542300463;-0.010995574295520782;0.0036651913542300463
01:00:0A:00:00:00:00;1724199212;21/08/24;00:13:32;1.014;-0.009;0.066;0.004886921960860491;-0.012217304669320583;0.0036651913542300463
01:00:0A:00:00:00:00;1724199213;21/08/24;00:13:33;1.016;-0.01;0.067;0.0036651913542300463;-0.010995574295520782;0.0036651913542300463
01:00:0A:00:00:00:00;1724199214;21/08/24;00:13:34;1.015;-0.01;0.066;0.004886921960860491;-0.010995574295520782;0.0036651913542300463
01:00:0A:00:00:00:00;1724199215;21/08/24;00:13:35;1.015;-0.011;0.066;0.004886921960860491;-0.012217304669320583;0.0036651913542300463
01:00:0A:00:00:00:00;1724199216;21/08/24;00:13:36;1.015;-0.01;0.066;0.0036651913542300463;-0.010995574295520782;0.0036651913542300463
01:00:0A:00:00:00:00;1724199217;21/08/24;00:13:37;1.015;-0.01;0.067;0.0036651913542300463;-0.010995574295520782;0.0036651913542300463
01:00:0A:00:00:00:00;1724199218;21/08/24;00:13:38;1.016;-0.01;0.067;0.0036651913542300463;-0.010995574295520782;0.0036651913542300463
01:00:0A:00:00:00:00;1724199219;21/08/24;00:13:39;1.016;-0.01;0.067;0.0036651913542300463;-0.010995574295520782;0.0036651913542300463
01:00:0A:00:00:00:00;1724199220;21/08/24;00:13:40;1.015;-0.01;0.068;0.0036651913542300463;-0.010995574295520782;0.0036651913542300463
01:00:0A:00:00:00:00;1724199221;21/08/24;00:13:41;1.015;-0.01;0.067;0.0036651913542300463;-0.010995574295520782;0.0036651913542300463
01:00:0A:00:00:00:00;1724199222;21/08/24;00:13:42;1.015;-0.01;0.066;0.0036651913542300463;-0.010995574295520782;0.0036651913542300463
01:00:0A:00:00:00:00;1724199223;21/08/24;00:13:43;1.015;-0.01;0.067;0.0036651913542300463;-0.010995574295520782;0.0036651913542300463
01:00:0A:00:00:00:00;1724199224;21/08/24;00:13:44;1.015;-0.011;0.067;0.0036651913542300463;-0.010995574295520782;0.0036651913542300463
01:00:0A:00:00:00:00;1724199225;21/08/24;00:13:45;1.015;-0.011;0.066;0.0036651913542300463;-0.010995574295520782;0.0036651913542300463
01:00:0A:00:00:00:00;1724199226;21/08/24;00:13:46;1.015;-0.011;0.066;0.0036651913542300463;-0.010995574295520782;0.0036651913542300463
01:00:0A:00:00:00:00;1724199227;21/08/24;00:13:47;1.015;-0.01;0.066;0.004886921960860491;-0.010995574295520782;0.0036651913542300463
01:00:0A:00:00:00:00;1724199228;21/08/24;00:13:48;1.015;-0.011;0.067;0.0036651913542300463;-0.010995574295520782;0.0036651913542300463
01:00:0A:00:00:00:00;1724199229;21/08/24;00:13:49;1.014;-0.01;0.067;0.004886921960860491;-0.010995574295520782;0.0036651913542300463
01:00:0A:00:00:00:00;1724199230;21/08/24;00:13:50;1.015;-0.011;0.067;0.0036651913542300463;-0.012217304669320583;0.0036651913542300463
01:00:0A:00:00:00:00;1724199231;21/08/24;00:13:51;1.015;-0.009;0.067;0.004886921960860491;-0.010995574295520782;0.0036651913542300463
01:00:0A:00:00:00:00;1724199232;21/08/24;00:13:52;1.015;-0.01;0.067;0.004886921960860491;-0.010995574295520782;0.0036651913542300463
01:00:0A:00:00:00:00;1724199233;21/08/24;00:13:53;1.015;-0.01;0.066;0.004886921960860491;-0.010995574295520782;0.0036651913542300463
01:00:0A:00:00:00:00;1724199234;21/08/24;00:13:54;1.015;-0.01;0.066;0.004886921960860491;-0.010995574295520782;0.0036651913542300463
01:00:0A:00:00:00:00;1724199235;21/08/24;00:13:55;1.015;-0.011;0.067;0.004886921960860491;-0.010995574295520782;0.0036651913542300463
01:00:0A:00:00:00:00;1724199236;21/08/24;00:13:56;1.014;-0.01;0.066;0.004886921960860491;-0.010995574295520782;0.0036651913542300463
01:00:0A:00:00:00:00;1724199237;21/08/24;00:13:57;1.015;-0.011;0.067;0.004886921960860491;-0.012217304669320583;0.0036651913542300463
01:00:0A:00:00:00:00;1724199238;21/08/24;00:13:58;1.015;-0.01;0.067;0.004886921960860491;-0.010995574295520782;0.0036651913542300463
01:00:0A:00:00:00:00;1724199239;21/08/24;00:13:59;1.015;-0.01;0.065;0.004886921960860491;-0.010995574295520782;0.0036651913542300463
01:00:0A:00:00:00:00;1724199240;21/08/24;00:14:00;1.015;-0.011;0.065;0.004886921960860491;-0.010995574295520782;0.0024434609804302454
01:00:0A:00:00:00:00;1724199241;21/08/24;00:14:01;1.015;-0.01;0.067;0.004886921960860491;-0.010995574295520782;0.0036651913542300463
01:00:0A:00:00:00:00;1724199242;21/08/24;00:14:02;1.015;-0.01;0.067;0.004886921960860491;-0.010995574295520782;0.0036651913542300463
01:00:0A:00:00:00:00;1724199243;21/08/24;00:14:03;1.016;-0.011;0.067;0.004886921960860491;-0.010995574295520782;0.0036651913542300463
01:00:0A:00:00:00:00;1724199244;21/08/24;00:14:04;1.015;-0.009;0.067;0.004886921960860491;-0.010995574295520782;0.0036651913542300463
01:00:0A:00:00:00:00;1724199245;21/08/24;00:14:05;1.015;-0.01;0.066;0.004886921960860491;-0.010995574295520782;0.0036651913542300463
01:00:0A:00:00:00:00;1724199246;21/08/24;00:14:06;1.016;-0.011;0.067;0.004886921960860491;-0.010995574295520782;0.0036651913542300463
01:00:0A:00:00:00:00;1724199247;21/08/24;00:14:07;1.014;-0.01;0.067;0.004886921960860491;-0.010995574295520782;0.0036651913542300463
01:00:0A:00:00:00:00;1724199248;21/08/24;00:14:08;1.016;-0.011;0.067;0.006108652334660292;-0.010995574295520782;0.0036651913542300463
01:00:0A:00:00:00:00;1724199249;21/08/24;00:14:09;1.015;-0.011;0.066;0.006108652334660292;-0.010995574295520782;0.0036651913542300463
01:00:0A:00:00:00:00;1724199250;21/08/24;00:14:10;1.016;-0.011;0.068;0.004886921960860491;-0.010995574295520782;0.0036651913542300463
01:00:0A:00:00:00:00;1724199251;21/08/24;00:14:11;1.015;-0.01;0.067;0.004886921960860491;-0.010995574295520782;0.0036651913542300463
01:00:0A:00:00:00:00;1724199252;21/08/24;00:14:12;1.016;-0.01;0.067;0.004886921960860491;-0.010995574295520782;0.0036651913542300463
01:00:0A:00:00:00:00;1724199253;21/08/24;00:14:13;1.015;-0.01;0.066;0.004886921960860491;-0.010995574295520782;0.0036651913542300463
01:00:0A:00:00:00:00;1724199254;21/08/24;00:14:14;1.015;-0.011;0.067;0.006108652334660292;-0.010995574295520782;0.0036651913542300463
01:00:0A:00:00:00:00;1724199255;21/08/24;00:14:15;1.016;-0.01;0.067;0.006108652334660292;-0.010995574295520782;0.0036651913542300463
01:00:0A:00:00:00:00;1724199256;21/08/24;00:14:16;1.016;-0.009;0.067;0.006108652334660292;-0.010995574295520782;0.0036651913542300463
01:00:0A:00:00:00:00;1724199257;21/08/24;00:14:17;1.014;-0.011;0.067;0.006108652334660292;-0.012217304669320583;0.0036651913542300463
01:00:0A:00:00:00:00;1724199258;21/08/24;00:14:18;1.015;-0.011;0.067;0.006108652334660292;-0.010995574295520782;0.0036651913542300463
01:00:0A:00:00:00:00;1724199259;21/08/24;00:14:19;1.015;-0.011;0.067;0.006108652334660292;-0.010995574295520782;0.0036651913542300463
01:00:0A:00:00:00:00;1724199260;21/08/24;00:14:20;1.015;-0.011;0.067;0.006108652334660292;-0.010995574295520782;0.0036651913542300463
01:00:0A:00:00:00:00;1724199261;21/08/24;00:14:21;1.015;-0.01;0.067;0.006108652334660292;-0.012217304669320583;0.0036651913542300463
01:00:0A:00:00:00:00;1724199262;21/08/24;00:14:22;1.014;-0.01;0.067;0.006108652334660292;-0.010995574295520782;0.0036651913542300463
01:00:0A:00:00:00:00;1724199263;21/08/24;00:14:23;1.014;-0.01;0.067;0.006108652334660292;-0.010995574295520782;0.0036651913542300463
01:00:0A:00:00:00:00;1724199264;21/08/24;00:14:24;1.016;-0.01;0.067;0.006108652334660292;-0.010995574295520782;0.0036651913542300463
01:00:0A:00:00:00:00;1724199265;21/08/24;00:14:25;1.015;-0.011;0.067;0.006108652334660292;-0.010995574295520782;0.0036651913542300463
01:00:0A:00:00:00:00;1724199266;21/08/24;00:14:26;1.015;-0.011;0.066;0.006108652334660292;-0.010995574295520782;0.0036651913542300463
01:00:0A:00:00:00:00;1724199267;21/08/24;00:14:27;1.016;-0.01;0.066;0.006108652334660292;-0.010995574295520782;0.0036651913542300463
01:00:0A:00:00:00:00;1724199268;21/08/24;00:14:28;1.014;-0.009;0.066;0.006108652334660292;-0.010995574295520782;0.0036651913542300463
01:00:0A:00:00:00:00;1724199269;21/08/24;00:14:29;1.015;-0.011;0.066;0.006108652334660292;-0.012217304669320583;0.0036651913542300463
01:00:0A:00:00:00:00;1724199270;21/08/24;00:14:30;1.014;-0.01;0.066;0.006108652334660292;-0.010995574295520782;0.0036651913542300463
01:00:0A:00:00:00:00;1724199271;21/08/24;00:14:31;1.016;-0.01;0.067;0.006108652334660292;-0.010995574295520782;0.0036651913542300463
01:00:0A:00:00:00:00;1724199272;21/08/24;00:14:32;1.016;-0.011;0.066;0.006108652334660292;-0.010995574295520782;0.0036651913542300463
01:00:0A:00:00:00:00;1724199273;21/08/24;00:14:33;1.016;-0.011;0.067;0.006108652334660292;-0.010995574295520782;0.0036651913542300463
01:00:0A:00:00:00:00;1724199274;21/08/24;00:14:34;1.015;-0.01;0.067;0.006108652334660292;-0.010995574295520782;0.0036651913542300463
01:00:0A:00:00:00:00;1724199275;21/08/24;00:14:35;1.015;-0.011;0.067;0.006108652334660292;-0.010995574295520782;0.0036651913542300463
01:00:0A:00:00:00:00;1724199276;21/08/24;00:14:36;1.015;-0.01;0.067;0.006108652334660292;-0.010995574295520782;0.0036651913542300463
01:00:0A:00:00:00:00;1724199277;21/08/24;00:14:37;1.015;-0.01;0.067;0.006108652334660292;-0.010995574295520782;0.0036651913542300463
01:00:0A:00:00:00:00;1724199278;21/08/24;00:14:38;1.015;-0.01;0.067;0.006108652334660292;-0.009773843921720982;0.0024434609804302454
01:00:0A:00:00:00:00;1724199279;21/08/24;00:14:39;1.02;-0.015;0.064;0.010995574295520782;0.02932153083384037;-0.030543262138962746
01:00:0A:00:00:00:00;1724199280;21/08/24;00:14:40;1.007;-0.04;0.033;0.0073303827084600925;-0.051312677562236786;0.03298672288656235
01:00:0A:00:00:00:00;1724199281;21/08/24;00:14:41;0.961;0.019;0.09;0.0012217304902151227;0.05864306166768074;0.09162978082895279
01:00:0A:00:00:00:00;1724199282;21/08/24;00:14:42;0.957;0.0;0.049;-0.0073303827084600925;-0.20891590416431427;0.0024434609804302454
01:00:0A:00:00:00:00;1724199283;21/08/24;00:14:43;1.024;0.011;0.089;0.036651913076639175;0.25534167885780334;-0.18325956165790558
01:00:0A:00:00:00:00;1724199284;21/08/24;00:14:44;1.039;0.029;0.181;-0.0354301817715168;-0.31154125928878784;0.11972958594560623
01:00:0A:00:00:00:00;1724199285;21/08/24;00:14:45;1.033;0.086;-0.247;0.03787364438176155;0.1258382350206375;-0.0659734457731247
01:00:0A:00:00:00:00;1724199286;21/08/24;00:14:46;0.899;0.034;0.391;-0.042760565876960754;0.2431243658065796;0.5497786998748779
01:00:0A:00:00:00:00;1724199287;21/08/24;00:14:47;0.974;0.186;-0.148;-0.09407324343919754;0.05009094998240471;-0.02687807008624077
01:00:0A:00:00:00:00;1724199288;21/08/24;00:14:48;1.033;-0.021;0.089;-0.20402899384498596;1.0005972385406494;0.9737191796302795
01:00:0A:00:00:00:00;1724199289;21/08/24;00:14:49;0.922;-0.522;0.334;-0.09285151958465576;0.16982054710388184;0.4398229718208313
01:00:0A:00:00:00:00;1724199290;21/08/24;00:14:50;0.965;0.25;-0.161;-0.1417207270860672;-0.3530800938606262;0.3066543638706207
01:00:0A:00:00:00:00;1724199291;21/08/24;00:14:51;0.997;-0.339;-0.065;0.0757472887635231;0.7147123217582703;-0.11850785464048386
01:00:0A:00:00:00:00;1724199292;21/08/24;00:14:52;1.006;0.117;0.04;-0.06841690838336945;-1.1178834438323975;-0.10018189996480942
01:00:0A:00:00:00:00;1724199293;21/08/24;00:14:53;0.88;-0.049;-0.451;0.06230825558304787;0.5009095072746277;0.37140607833862305
01:00:0A:00:00:00:00;1724199294;21/08/24;00:14:54;0.983;0.051;0.295;0.024434609338641167;-0.2834414541721344;-0.3946189284324646
01:00:0A:00:00:00:00;1724199295;21/08/24;00:14:55;1.015;-0.013;0.015;-0.35552355647087097;0.26145032048225403;0.9871581792831421
01:00:0A:00:00:00:00;1724199296;21/08/24;00:14:56;0.885;-0.438;0.319;-0.16371189057826996;0.6218608021736145;-1.1398744583129883
01:00:0A:00:00:00:00;1724199297;21/08/24;00:14:57;0.833;0.339;0.444;-0.7086036801338196;-0.9334021210670471;-0.47769662737846375
01:00:0A:00:00:00:00;1724199298;21/08/24;00:14:58;0.855;0.462;0.293;-1.7763961553573608;-1.1435396671295166;-0.5864306092262268
01:00:0A:00:00:00:00;1724199299;21/08/24;00:14:59;0.942;0.202;0.206;-1.7018704414367676;-1.4660764932632446;0.12339477241039276
01:00:0A:00:00:00:00;1724199300;21/08/24;00:15:00;0.914;0.319;-0.013;-1.7311919927597046;-0.5204571485519409;-0.11728612333536148
01:00:0A:00:00:00:00;1724199301;21/08/24;00:15:01;0.982;-0.079;0.026;-1.8008307218551636;-0.8698720932006836;0.44715335965156555
01:00:0A:00:00:00:00;1724199302;21/08/24;00:15:02;0.966;0.266;0.141;-1.5894713401794434;0.0708603635430336;-0.012217304669320583
01:00:0A:00:00:00:00;1724199303;21/08/24;00:15:03;0.959;-0.121;-0.101;-1.5259413719177246;-1.1911872625350952;1.0335839986801147
01:00:0A:00:00:00:00;1724199304;21/08/24;00:15:04;0.938;0.104;-0.19;-1.1105530261993408;0.6108652353286743;0.5497786998748779
