Source;Epoch timestamp (UTC);Date;Time (UTC);Accel X (G);Accel Y (G);Accel Z (G);Gyro X (rad/s);Gyro Y (rad/s);Gyro Z (rad/s)
01:00:0A:00:00:00:00;1727827189;01/10/24;23:59:49;1.014;0.005;0.105;0.006108652334660292;-0.010995574295520782;0.0024434609804302454
01:00:0A:00:00:00:00;1727827190;01/10/24;23:59:50;1.012;0.005;0.103;0.006108652334660292;-0.010995574295520782;0.0024434609804302454
01:00:0A:00:00:00:00;1727827191;01/10/24;23:59:51;1.014;0.004;0.105;0.006108652334660292;-0.010995574295520782;0.0024434609804302454
01:00:0A:00:00:00:00;1727827192;01/10/24;23:59:52;1.014;0.005;0.104;0.006108652334660292;-0.010995574295520782;0.0024434609804302454
01:00:0A:00:00:00:00;1727827193;01/10/24;23:59:53;1.015;0.004;0.103;0.006108652334660292;-0.010995574295520782;0.0024434609804302454
01:00:0A:00:00:00:00;1727827194;01/10/24;23:59:54;1.013;0.005;0.104;0.006108652334660292;-0.010995574295520782;0.0024434609804302454
01:00:0A:00:00:00:00;1727827195;01/10/24;23:59:55;1.014;0.005;0.103;0.006108652334660292;-0.010995574295520782;0.0024434609804302454
01:00:0A:00:00:00:00;1727827196;01/10/24;23:59:56;1.014;0.005;0.104;0.006108652334660292;-0.010995574295520782;0.0024434609804302454
01:00:0A:00:00:00:00;1727827197;01/10/24;23:59:57;1.015;0.005;0.105;0.006108652334660292;-0.010995574295520782;0.0024434609804302454
01:00:0A:00:00:00:00;1727827198;01/10/24;23:59:58;1.012;0.004;0.103;0.006108652334660292;-0.010995574295520782;0.0024434609804302454
01:00:0A:00:00:00:00;1727827199;01/10/24;23:59:59;1.013;0.005;0.103;0.006108652334660292;-0.010995574295520782;0.0024434609804302454
01:00:0A:00:00:00:00;1727827200;02/10/24;00:00:00;1.014;0.005;0.104;0.006108652334660292;-0.010995574295520782;0.0024434609804302454
01:00:0A:00:00:00:00;1727827201;02/10/24;00:00:01;1.014;0.004;0.104;0.006108652334660292;-0.010995574295520782;0.0024434609804302454
01:00:0A:00:00:00:00;1727827202;02/10/24;00:00:02;1.014;0.005;0.105;0.006108652334660292;-0.010995574295520782;0.0024434609804302454
01:00:0A:00:00:00:00;1727827203;02/10/24;00:00:03;1.014;0.004;0.104;0.006108652334660292;-0.010995574295520782;0.0024434609804302454
01:00:0A:00:00:00:00;1727827204;02/10/24;00:00:04;1.013;0.004;0.103;0.006108652334660292;-0.010995574295520782;0.0024434609804302454
01:00:0A:00:00:00:00;1727827205;02/10/24;00:00:05;1.015;0.005;0.104;0.006108652334660292;-0.010995574295520782;0.0024434609804302454
01:00:0A:00:00:00:00;1727827206;02/10/24;00:00:06;1.014;0.005;0.104;0.006108652334660292;-0.010995574295520782;0.0024434609804302454
01:00:0A:00:00:00:00;1727827207;02/10/24;00:00:07;1.014;0.005;0.103;0.006108652334660292;-0.010995574295520782;0.0024434609804302454
01:00:0A:00:00:00:00;1727827208;02/10/24;00:00:08;1.014;0.005;0.104;0.004886921960860491;-0.010995574295520782;0.0024434609804302454
01:00:0A:00:00:00:00;1727827209;02/10/24;00:00:09;1.013;0.004;0.103;0.006108652334660292;-0.010995574295520782;0.0024434609804302454
01:00:0A:00:00:00:00;1727827210;02/10/24;00:00:10;1.014;0.005;0.104;0.006108652334660292;-0.010995574295520782;0.0024434609804302454
01:00:0A:00:00:00:00;1727827211;02/10/24;00:00:11;1.015;0.004;0.103;0.006108652334660292;-0.010995574295520782;0.0024434609804302454
01:00:0A:00:00:00:00;1727827212;02/10/24;00:00:12;1.015;0.004;0.104;0.006108652334660292;-0.010995574295520782;0.0024434609804302454
01:00:0A:00:00:00:00;1727827213;02/10/24;00:00:13;1.014;0.006;0.104;0.006108652334660292;-0.010995574295520782;0.0024434609804302454
01:00:0A:00:00:00:00;1727827214;02/10/24;00:00:14;1.014;0.005;0.104;0.006108652334660292;-0.010995574295520782;0.0024434609804302454
01:00:0A:00:00:00:00;1727827215;02/10/24;00:00:15;1.014;0.004;0.104;0.006108652334660292;-0.010995574295520782;0.0024434609804302454
01:00:0A:00:00:00:00;1727827216;02/10/24;00:00:16;1.014;0.004;0.104;0.006108652334660292;-0.010995574295520782;0.0024434609804302454
01:00:0A:00:00:00:00;1727827217;02/10/24;00:00:17;1.014;0.004;0.104;0.006108652334660292;-0.010995574295520782;0.0024434609804302454
01:00:0A:00:00:00:00;1727827218;02/10/24;00:00:18;1.014;0.005;0.104;0.006108652334660292;-0.010995574295520782;0.0024434609804302454
01:00:0A:00:00:00:00;1727827219;02/10/24;00:00:19;1.013;0.005;0.104;0.006108652334660292;-0.010995574295520782;0.0024434609804302454
01:00:0A:00:00:00:00;1727827220;02/10/24;00:00:20;1.014;0.005;0.103;0.006108652334660292;-0.010995574295520782;0.0024434609804302454
01:00:0A:00:00:00:00;1727827221;02/10/24;00:00:21;1.014;0.006;0.104;0.004886921960860491;-0.010995574295520782;0.0024434609804302454
01:00:0A:00:00:00:00;1727827222;02/10/24;00:00:22;1.014;0.006;0.104;0.006108652334660292;-0.010995574295520782;0.0024434609804302454
01:00:0A:00:00:00:00;1727827223;02/10/24;00:00:23;1.014;0.004;0.104;0.006108652334660292;-0.010995574295520782;0.0024434609804302454
01:00:0A:00:00:00:00;1727827224;02/10/24;00:00:24;1.013;0.005;0.104;0.006108652334660292;-0.010995574295520782;0.0024434609804302454
01:00:0A:00:00:00:00;1727827225;02/10/24;00:00:25;1.013;0.005;0.104;0.006108652334660292;-0.010995574295520782;0.0024434609804302454
01:00:0A:00:00:00:00;1727827226;02/10/24;00:00:26;1.014;0.004;0.104;0.006108652334660292;-0.010995574295520782;0.0024434609804302454
01:00:0A:00:00:00:00;1727827227;02/10/24;00:00:27;1.015;0.005;0.104;0.004886921960860491;-0.010995574295520782;0.0024434609804302454
01:00:0A:00:00:00:00;1727827228;02/10/24;00:00:28;1.014;0.005;0.104;0.006108652334660292;-0.010995574295520782;0.0024434609804302454
01:00:0A:00:00:00:00;1727827229;02/10/24;00:00:29;1.013;0.004;0.104;0.006108652334660292;-0.010995574295520782;0.0024434609804302454
01:00:0A:00:00:00:00;1727827230;02/10/24;00:00:30;1.014;0.005;0.104;0.006108652334660292;-0.010995574295520782;0.0024434609804302454
01:00:0A:00:00:00:00;1727827231;02/10/24;00:00:31;1.015;0.005;0.104;0.006108652334660292;-0.010995574295520782;0.0024434609804302454
01:00:0A:00:00:00:00;1727827232;02/10/24;00:00:32;1.013;0.004;0.103;0.006108652334660292;-0.010995574295520782;0.0024434609804302454
01:00:0A:00:00:00:00;1727827233;02/10/24;00:00:33;1.014;0.005;0.103;0.006108652334660292;-0.010995574295520782;0.0024434609804302454
01:00:0A:00:00:00:00;1727827234;02/10/24;00:00:34;1.014;0.005;0.104;0.006108652334660292;-0.010995574295520782;0.0024434609804302454
01:00:0A:00:00:00:00;1727827235;02/10/24;00:00:35;1.013;0.005;0.103;0.006108652334660292;-0.010995574295520782;0.0024434609804302454
01:00:0A:00:00:00:00;1727827236;02/10/24;00:00:36;1.014;0.004;0.104;0.006108652334660292;-0.010995574295520782;0.0024434609804302454
01:00:0A:00:00:00:00;1727827237;02/10/24;00:00:37;1.015;0.006;0.105;0.006108652334660292;-0.010995574295520782;0.0024434609804302454
01:00:0A:00:00:00:00;1727827238;02/10/24;00:00:38;1.014;0.005;0.103;0.006108652334660292;-0.010995574295520782;0.0024434609804302454
01:00:0A:00:00:00:00;1727827239;02/10/24;00:00:39;1.013;0.005;0.103;0.006108652334660292;-0.010995574295520782;0.0024434609804302454
01:00:0A:00:00:00:00;1727827240;02/10/24;00:00:40;1.014;0.004;0.104;0.006108652334660292;-0.010995574295520782;0.0024434609804302454
01:00:0A:00:00:00:00;1727827241;02/10/24;00:00:41;1.014;0.006;0.104;0.006108652334660292;-0.010995574295520782;0.0024434609804302454
01:00:0A:00:00:00:00;1727827242;02/10/24;00:00:42;1.014;0.006;0.103;0.006108652334660292;-0.010995574295520782;0.0024434609804302454
01:00:0A:00:00:00:00;1727827243;02/10/24;00:00:43;0.98;0.0;0.117;0.05619959905743599;0.07208210229873657;-0.004886921960860491
01:00:0A:00:00:00:00;1727827244;02/10/24;00:00:44;0.931;-0.069;-0.258;-0.07452555745840073;-0.24434609711170197;0.42271876335144043
01:00:0A:00:00:00:00;1727827245;02/10/24;00:00:45;0.87;-0.453;-0.373;-0.3347541391849518;0.1771509200334549;0.7941248416900635
01:00:0A:00:00:00:00;1727827246;02/10/24;00:00:46;0.967;0.016;0.281;-0.19792033731937408;0.4043927788734436;-0.7183775305747986
01:00:0A:00:00:00:00;1727827247;02/10/24;00:00:47;0.978;-0.259;0.168;0.50335294008255;-0.5937609672546387;-1.6297883987426758
01:00:0A:00:00:00:00;1727827248;02/10/24;00:00:48;0.853;0.397;-0.215;-0.08918632566928864;0.3543018400669098;0.436157763004303
01:00:0A:00:00:00:00;1727827249;02/10/24;00:00:49;0.891;0.409;0.258;-0.720820963382721;-0.4948008358478546;1.5943583250045776
01:00:0A:00:00:00:00;1727827250;02/10/24;00:00:50;0.822;-0.627;0.044;0.03176499158143997;-0.07941248267889023;-0.37629297375679016
01:00:0A:00:00:00:00;1727827251;02/10/24;00:00:51;0.859;0.488;-0.127;-0.11728612333536148;-0.2932153046131134;-0.24434609711170197
01:00:0A:00:00:00:00;1727827252;02/10/24;00:00:52;1.0;0.101;-0.04;-0.959058403968811;-0.5949827432632446;0.6096435189247131
01:00:0A:00:00:00:00;1727827253;02/10/24;00:00:53;0.907;-0.473;-0.18;-0.2919935882091522;1.3243558406829834;-0.38117989897727966
01:00:0A:00:00:00:00;1727827254;02/10/24;00:00:54;0.937;0.244;0.309;-0.5375614166259766;-0.6291911602020264;0.051312677562236786
01:00:0A:00:00:00:00;1727827255;02/10/24;00:00:55;1.026;0.067;-0.255;-0.8429940342903137;-0.03298672288656235;0.38728854060173035
01:00:0A:00:00:00:00;1727827256;02/10/24;00:00:56;1.092;-0.37;0.131;-0.9639453291893005;0.20647244155406952;-0.9615018963813782
01:00:0A:00:00:00:00;1727827257;02/10/24;00:00:57;0.967;0.032;0.17;-1.204626202583313;-0.6291911602020264;0.7281513810157776
01:00:0A:00:00:00:00;1727827258;02/10/24;00:00:58;0.999;0.043;-0.035;-0.8600982427597046;0.09773843735456467;-0.3347541391849518
01:00:0A:00:00:00:00;1727827259;02/10/24;00:00:59;0.987;-0.012;0.199;-0.7220427393913269;-0.34574973583221436;0.313984751701355
01:00:0A:00:00:00:00;1727827260;02/10/24;00:01:00;0.936;0.129;-0.214;-0.6035348773002625;-0.3579670488834381;-0.3738495111465454
01:00:0A:00:00:00:00;1727827261;02/10/24;00:01:01;0.897;-0.214;0.301;-0.6988298296928406;0.44226640462875366;-0.05619959905743599
01:00:0A:00:00:00:00;1727827262;02/10/24;00:01:02;1.022;-0.043;0.064;-0.9896016716957092;-1.164309024810791;0.3897320330142975
01:00:0A:00:00:00:00;1727827263;02/10/24;00:01:03;0.962;0.33;-0.054;-0.921184778213501;0.3176499307155609;-0.004886921960860491
01:00:0A:00:00:00:00;1727827264;02/10/24;00:01:04;0.972;-0.368;-0.014;-0.626747727394104;-0.38606682419776917;-0.22479839622974396
01:00:0A:00:00:00:00;1727827265;02/10/24;00:01:05;1.042;0.021;-0.028;-0.4789183437824249;0.4508185386657715;-0.22968533635139465
01:00:0A:00:00:00:00;1727827266;02/10/24;00:01:06;0.92;-0.195;0.375;-0.2076941877603531;0.6817255616188049;1.6676621437072754
01:00:0A:00:00:00:00;1727827267;02/10/24;00:01:07;0.986;-0.25;0.072;0.2871066629886627;-0.8381071090698242;-0.533896267414093
01:00:0A:00:00:00:00;1727827268;02/10/24;00:01:08;0.933;0.138;-0.454;0.2223549485206604;-0.07941248267889023;-0.38117989897727966
01:00:0A:00:00:00:00;1727827269;02/10/24;00:01:09;1.005;0.055;0.268;-0.010995574295520782;0.8332201242446899;0.18081611394882202
01:00:0A:00:00:00:00;1727827270;02/10/24;00:01:10;0.786;0.386;-0.646;-0.3017674386501312;-0.8234463334083557;0.02076941914856434
01:00:0A:00:00:00:00;1727827271;02/10/24;00:01:11;0.998;-0.014;0.152;-0.5583308339118958;-0.0354301817715168;0.8148941993713379
01:00:0A:00:00:00:00;1727827272;02/10/24;00:01:12;0.914;0.124;-0.207;-0.10506881773471832;-0.09773843735456467;-0.7513642311096191
01:00:0A:00:00:00:00;1727827273;02/10/24;00:01:13;0.889;-0.371;0.314;-0.08552113175392151;0.7709119319915771;0.6658430695533752
01:00:0A:00:00:00:00;1727827274;02/10/24;00:01:14;0.837;0.049;0.451;0.4300491213798523;-0.5766568183898926;-1.0543533563613892
01:00:0A:00:00:00:00;1727827275;02/10/24;00:01:15;0.805;0.034;-0.337;0.19425514340400696;-1.898569107055664;1.6701055765151978
01:00:0A:00:00:00:00;1727827276;02/10/24;00:01:16;0.95;0.309;-0.04;-0.22602014243602753;0.7611380815505981;-0.8100073337554932
01:00:0A:00:00:00:00;1727827277;02/10/24;00:01:17;1.019;-0.019;0.188;-0.3433062732219696;-0.13927726447582245;0.5009095072746277
01:00:0A:00:00:00:00;1727827278;02/10/24;00:01:18;0.979;-0.034;-0.163;-0.16004669666290283;0.018325956538319588;-0.08796459436416626
01:00:0A:00:00:00:00;1727827279;02/10/24;00:01:19;1.016;0.0;0.197;-0.15027284622192383;0.6866125464439392;0.06475171446800232
01:00:0A:00:00:00:00;1727827280;02/10/24;00:01:20;1.009;0.117;0.04;-0.3738495111465454;-0.8319984674453735;-0.616973876953125
01:00:0A:00:00:00:00;1727827281;02/10/24;00:01:21;0.826;0.439;0.287;-0.7489207983016968;0.39706242084503174;-0.05497787147760391
01:00:0A:00:00:00:00;1727827282;02/10/24;00:01:22;1.012;-0.164;0.201;-0.5937609672546387;-0.7831292152404785;0.4813618063926697
01:00:0A:00:00:00:00;1727827283;02/10/24;00:01:23;0.839;-0.261;-0.138;-0.26511549949645996;0.33108896017074585;-0.2577851116657257
01:00:0A:00:00:00:00;1727827284;02/10/24;00:01:24;0.916;-0.24;-0.202;0.02687807008624077;-0.40072759985923767;0.14782939851284027
01:00:0A:00:00:00:00;1727827285;02/10/24;00:01:25;0.714;-0.146;-0.754;0.045204028487205505;-0.5510004162788391;-0.5436700582504272
01:00:0A:00:00:00:00;1727827286;02/10/24;00:01:26;1.037;-0.034;0.031;0.18814648687839508;0.4447098970413208;-0.6927211880683899
01:00:0A:00:00:00:00;1727827287;02/10/24;00:01:27;0.926;-0.176;0.295;-1.53693687915802;0.445931613445282;0.02687807008624077
01:00:0A:00:00:00:00;1727827288;02/10/24;00:01:28;0.833;-0.022;0.459;-1.3292428255081177;1.813048005104065;-0.4483751058578491
01:00:0A:00:00:00:00;1727827289;02/10/24;00:01:29;0.971;0.372;0.037;-1.4025466442108154;-1.0128145217895508;-0.9028588533401489
01:00:0A:00:00:00:00;1727827290;02/10/24;00:01:30;0.904;0.393;0.011;-1.5173892974853516;-0.7709119319915771;0.7305948734283447
01:00:0A:00:00:00:00;1727827291;02/10/24;00:01:31;0.969;-0.122;-0.296;-1.5222761631011963;0.11484266817569733;0.5412266254425049
01:00:0A:00:00:00:00;1727827292;02/10/24;00:01:32;0.83;-0.195;0.813;-1.3426817655563354;1.0812314748764038;-0.5668829083442688
01:00:0A:00:00:00:00;1727827293;02/10/24;00:01:33;0.955;-0.364;0.563;-0.8515461683273315;0.10384709388017654;-1.0372490882873535
01:00:0A:00:00:00:00;1727827294;02/10/24;00:01:34;0.63;0.69;0.119;-2.464230537414551;-1.604132056236267;-0.7550294399261475
01:00:0A:00:00:00:00;1727827295;02/10/24;00:01:35;0.972;0.447;-0.129;-2.891835927963257;-1.3781119585037231;-0.34574973583221436
01:00:0A:00:00:00:00;1727827296;02/10/24;00:01:36;0.938;-0.393;0.188;-0.93095862865448;-0.04764748737215996;0.6609562039375305
01:00:0A:00:00:00:00;1727827297;02/10/24;00:01:37;0.794;0.169;0.649;-1.1325441598892212;-0.6157521605491638;-1.7800612449645996
01:00:0A:00:00:00:00;1727827298;02/10/24;00:01:38;0.974;0.315;-0.154;-1.9315558671951294;-0.6438519358634949;1.3548990488052368
01:00:0A:00:00:00:00;1727827299;02/10/24;00:01:39;0.872;-0.561;-0.203;-1.8655823469161987;1.4428637027740479;0.3543018400669098
01:00:0A:00:00:00:00;1727827300;02/10/24;00:01:40;0.914;-0.141;-0.337;-3.1093039512634277;-0.7110471129417419;0.21013763546943665
01:00:0A:00:00:00:00;1727827301;02/10/24;00:01:41;0.917;0.186;0.371;-2.6584856510162354;-0.7599163055419922;0.7073819637298584
01:00:0A:00:00:00:00;1727827302;02/10/24;00:01:42;0.82;0.232;0.361;-1.9718729257583618;0.7379252314567566;0.16371189057826996
01:00:0A:00:00:00:00;1727827303;02/10/24;00:01:43;0.982;-0.206;0.083;-1.0005972385406494;-0.6731734871864319;-0.7696901559829712
01:00:0A:00:00:00:00;1727827304;02/10/24;00:01:44;0.815;0.35;0.268;-1.0629055500030518;0.6927211880683899;-0.3286454975605011
01:00:0A:00:00:00:00;1727827305;02/10/24;00:01:45;0.885;0.16;-0.273;-1.0580185651779175;-1.595579981803894;-0.05375614017248154
01:00:0A:00:00:00:00;1727827306;02/10/24;00:01:46;0.989;-0.28;0.248;-0.9639453291893005;-0.009773843921720982;0.0757472887635231
01:00:0A:00:00:00:00;1727827307;02/10/24;00:01:47;1.003;0.119;0.15;-0.5974262356758118;0.04398229718208313;-0.46181410551071167
01:00:0A:00:00:00:00;1727827308;02/10/24;00:01:48;0.942;-0.184;0.058;-0.6731734871864319;0.05619959905743599;0.6976081132888794
01:00:0A:00:00:00:00;1727827309;02/10/24;00:01:49;0.829;0.327;0.177;-0.49846604466438293;0.10751228034496307;-0.4202752709388733
01:00:0A:00:00:00:00;1727827310;02/10/24;00:01:50;0.948;-0.012;0.104;-0.616973876953125;-1.2034045457839966;0.8222246170043945
01:00:0A:00:00:00:00;1727827311;02/10/24;00:01:51;0.873;-0.212;-0.402;-0.3481931686401367;0.16859880089759827;0.08796459436416626
01:00:0A:00:00:00:00;1727827312;02/10/24;00:01:52;0.963;-0.316;-0.157;-2.239431858062744;-2.059837579727173;0.5864306092262268
01:00:0A:00:00:00:00;1727827313;02/10/24;00:01:53;0.925;0.299;0.211;-1.6749924421310425;-0.7183775305747986;1.0225883722305298
01:00:0A:00:00:00:00;1727827314;02/10/24;00:01:54;0.904;-0.301;-0.202;-1.1728612184524536;0.5571090579032898;0.17959438264369965
01:00:0A:00:00:00:00;1727827315;02/10/24;00:01:55;0.684;-0.307;0.708;-0.5754350423812866;0.8747590184211731;0.09407324343919754
01:00:0A:00:00:00:00;1727827316;02/10/24;00:01:56;0.966;-0.001;0.321;-0.05009094998240471;-0.7147123217582703;-0.5803219676017761
01:00:0A:00:00:00:00;1727827317;02/10/24;00:01:57;0.893;-0.239;-0.337;-0.08552113175392151;-0.8967502117156982;0.5729915499687195
01:00:0A:00:00:00:00;1727827318;02/10/24;00:01:58;0.936;-0.488;-0.021;0.4862487316131592;0.36529743671417236;-0.46670106053352356
01:00:0A:00:00:00:00;1727827319;02/10/24;00:01:59;0.781;0.532;-0.147;0.17959438264369965;-0.3347541391849518;-0.7073819637298584
01:00:0A:00:00:00:00;1727827320;02/10/24;00:02:00;1.023;-0.04;0.196;-0.6499606370925903;0.006108652334660292;1.1362093687057495
01:00:0A:00:00:00:00;1727827321;02/10/24;00:02:01;0.986;-0.065;-0.221;-2.3432791233062744;0.5436700582504272;0.739146888256073
01:00:0A:00:00:00:00;1727827322;02/10/24;00:02:02;0.963;0.013;-0.182;-3.202155590057373;0.3066543638706207;0.4508185386657715
01:00:0A:00:00:00:00;1727827323;02/10/24;00:02:03;0.93;-0.222;-0.199;-2.618168354034424;0.10262535512447357;0.9920451641082764
01:00:0A:00:00:00:00;1727827324;02/10/24;00:02:04;0.915;-0.501;0.161;-1.8362609148025513;1.389107584953308;1.2486084699630737
01:00:0A:00:00:00:00;1727827325;02/10/24;00:02:05;0.441;-0.943;0.133;-0.2382374405860901;2.1502456665039062;0.6866125464439392
01:00:0A:00:00:00:00;1727827326;02/10/24;00:02:06;1.009;-0.279;0.262;0.19547687470912933;-0.09896016865968704;-0.30054569244384766
01:00:0A:00:00:00:00;1727827327;02/10/24;00:02:07;0.923;-0.276;0.55;-0.4764748811721802;0.7024949789047241;-0.9517280459403992
01:00:0A:00:00:00:00;1727827328;02/10/24;00:02:08;0.873;0.341;0.516;-1.6884315013885498;-0.24068090319633484;-0.9150761365890503
01:00:0A:00:00:00:00;1727827329;02/10/24;00:02:09;0.756;-0.431;0.71;-1.3756684064865112;2.2602014541625977;1.1496483087539673
01:00:0A:00:00:00:00;1727827330;02/10/24;00:02:10;0.823;0.614;-0.284;-1.2498303651809692;-1.0152579545974731;-0.9505062699317932
01:00:0A:00:00:00:00;1727827331;02/10/24;00:02:11;0.591;0.618;0.458;-1.5015066862106323;-1.0189231634140015;-0.12950342893600464
01:00:0A:00:00:00:00;1727827332;02/10/24;00:02:12;0.996;0.172;-0.273;-1.9425513744354248;-1.0897835493087769;0.26633724570274353
01:00:0A:00:00:00:00;1727827333;02/10/24;00:02:13;0.994;-0.137;-0.27;-3.026226282119751;-0.2028072476387024;0.8234463334083557
01:00:0A:00:00:00:00;1727827334;02/10/24;00:02:14;0.941;0.286;0.088;-3.0164525508880615;-0.49724429845809937;0.6255260109901428
01:00:0A:00:00:00:00;1727827335;02/10/24;00:02:15;0.967;-0.144;-0.003;-0.7293730974197388;0.22968533635139465;-0.02687807008624077
01:00:0A:00:00:00:00;1727827336;02/10/24;00:02:16;0.971;0.105;-0.098;-0.6902776956558228;-1.3145819902420044;-0.12461651116609573
01:00:0A:00:00:00:00;1727827337;02/10/24;00:02:17;0.978;-0.211;-0.066;-1.1484266519546509;1.1826351881027222;0.49846604466438293
01:00:0A:00:00:00:00;1727827338;02/10/24;00:02:18;1.007;0.117;0.186;-0.9541715383529663;-1.2461650371551514;-0.1160643920302391
01:00:0A:00:00:00:00;1727827339;02/10/24;00:02:19;0.986;0.205;-0.058;-1.0396926403045654;0.5778785347938538;-0.16371189057826996
01:00:0A:00:00:00:00;1727827340;02/10/24;00:02:20;0.801;-0.112;0.436;-1.478293776512146;-1.0958921909332275;-0.6756169199943542
01:00:0A:00:00:00:00;1727827341;02/10/24;00:02:21;0.894;0.073;-0.1;-1.0873401165008545;-0.1111774742603302;-0.1111774742603302
01:00:0A:00:00:00:00;1727827342;02/10/24;00:02:22;0.944;-0.079;0.068;-0.9896016716957092;-0.5729915499687195;0.6352998614311218
01:00:0A:00:00:00:00;1727827343;02/10/24;00:02:23;1.044;-0.227;0.003;-0.5448917746543884;1.7617353200912476;0.2895500957965851
01:00:0A:00:00:00:00;1727827344;02/10/24;00:02:24;0.937;-0.199;0.411;-0.20891590416431427;0.05742133408784866;0.03787364438176155
01:00:0A:00:00:00:00;1727827345;02/10/24;00:02:25;1.113;0.045;-0.177;0.10018189996480942;-0.4202752709388733;-0.34086278080940247
01:00:0A:00:00:00:00;1727827346;02/10/24;00:02:26;1.033;0.005;-0.063;-0.685390830039978;1.0543533563613892;1.3878858089447021
01:00:0A:00:00:00:00;1727827347;02/10/24;00:02:27;0.674;-0.775;0.295;-0.10018189996480942;0.3995058536529541;-0.21991148591041565
01:00:0A:00:00:00:00;1727827348;02/10/24;00:02:28;0.813;-0.168;0.509;-1.6456708908081055;-0.10506881773471832;-0.5852089524269104
01:00:0A:00:00:00:00;1727827349;02/10/24;00:02:29;0.952;0.347;-0.052;-1.3365731239318848;-0.46181410551071167;-0.3799581527709961
01:00:0A:00:00:00:00;1727827350;02/10/24;00:02:30;0.878;-0.197;-0.62;-1.1948524713516235;-1.166752576828003;1.0299187898635864
01:00:0A:00:00:00:00;1727827351;02/10/24;00:02:31;0.998;-0.055;0.239;-1.0665706396102905;0.656069278717041;0.23945917189121246
01:00:0A:00:00:00:00;1727827352;02/10/24;00:02:32;0.893;-0.198;0.394;-0.6511822938919067;0.5192354917526245;-0.3933972120285034
01:00:0A:00:00:00:00;1727827353;02/10/24;00:02:33;0.844;0.406;-0.336;-0.685390830039978;-0.7819074988365173;-0.2431243658065796
01:00:0A:00:00:00:00;1727827354;02/10/24;00:02:34;1.02;-0.082;-0.126;-1.1117748022079468;0.3274237811565399;1.1129964590072632
01:00:0A:00:00:00:00;1727827355;02/10/24;00:02:35;0.779;-0.631;-0.261;-0.4764748811721802;0.6597344279289246;0.1869247555732727
01:00:0A:00:00:00:00;1727827356;02/10/24;00:02:36;0.879;0.047;0.508;-0.11850785464048386;0.2015855312347412;-1.1337658166885376
01:00:0A:00:00:00:00;1727827357;02/10/24;00:02:37;0.894;0.486;0.394;1.7079792022705078;0.12339477241039276;0.39828410744667053
01:00:0A:00:00:00:00;1727827358;02/10/24;00:02:38;0.798;0.759;-0.039;-0.656069278717041;-0.6633996367454529;0.846659243106842
01:00:0A:00:00:00:00;1727827359;02/10/24;00:02:39;0.944;0.38;0.308;-1.938886284828186;0.04764748737215996;-0.46792274713516235
01:00:0A:00:00:00:00;1727827360;02/10/24;00:02:40;0.871;0.425;0.418;0.030543262138962746;-0.5473352670669556;-1.3536773920059204
01:00:0A:00:00:00:00;1727827361;02/10/24;00:02:41;1.019;0.162;-0.202;-0.7733554244041443;0.4202752709388733;0.7232644557952881
01:00:0A:00:00:00:00;1727827362;02/10/24;00:02:42;0.818;-0.328;0.541;-0.40683624148368835;0.42149701714515686;-0.28099802136421204
01:00:0A:00:00:00:00;1727827363;02/10/24;00:02:43;1.001;0.032;-0.04;-0.0354301817715168;-1.2192870378494263;-0.3042108714580536
01:00:0A:00:00:00:00;1727827364;02/10/24;00:02:44;0.922;0.269;0.008;-0.5571090579032898;0.41661006212234497;-0.13072516024112701
01:00:0A:00:00:00:00;1727827365;02/10/24;00:02:45;0.898;0.298;0.078;0.4948008358478546;-0.12217304855585098;0.39217546582221985
01:00:0A:00:00:00:00;1727827366;02/10/24;00:02:46;1.032;-0.08;0.043;0.26633724570274353;-0.04764748737215996;0.045204028487205505
01:00:0A:00:00:00:00;1727827367;02/10/24;00:02:47;1.058;0.159;0.074;0.16493360698223114;-0.17959438264369965;-0.17104226350784302
01:00:0A:00:00:00:00;1727827368;02/10/24;00:02:48;1.027;0.299;-0.048;-0.2736676335334778;-0.030543262138962746;-0.004886921960860491
01:00:0A:00:00:00:00;1727827369;02/10/24;00:02:49;1.059;0.0;0.069;-0.48747044801712036;-0.08796459436416626;-0.02076941914856434
01:00:0A:00:00:00:00;1727827370;02/10/24;00:02:50;1.026;0.148;-0.105;-0.5766568183898926;0.08918632566928864;-0.0354301817715168
01:00:0A:00:00:00:00;1727827371;02/10/24;00:02:51;0.996;-0.059;0.235;-0.5827654600143433;0.14905111491680145;0.2724458873271942
01:00:0A:00:00:00:00;1727827372;02/10/24;00:02:52;0.994;0.047;0.008;-0.20891590416431427;-0.21624629199504852;-0.3787364363670349
01:00:0A:00:00:00:00;1727827373;02/10/24;00:02:53;0.943;-0.006;0.045;-0.3933972120285034;0.22113320231437683;0.2028072476387024
01:00:0A:00:00:00:00;1727827374;02/10/24;00:02:54;0.954;-0.091;0.073;-0.2076941877603531;-0.2541199326515198;-0.10262535512447357
01:00:0A:00:00:00:00;1727827375;02/10/24;00:02:55;1.044;-0.01;0.036;-0.17959438264369965;0.12339477241039276;-0.09529497474431992
01:00:0A:00:00:00:00;1727827376;02/10/24;00:02:56;1.049;0.074;0.212;-0.22357667982578278;-0.07696902006864548;0.036651913076639175
01:00:0A:00:00:00:00;1727827377;02/10/24;00:02:57;1.038;-0.07;-0.072;-0.18448130786418915;-0.2272418737411499;0.09407324343919754
01:00:0A:00:00:00:00;1727827378;02/10/24;00:02:58;0.986;-0.01;0.188;-0.10751228034496307;0.31031954288482666;-0.19425514340400696
01:00:0A:00:00:00:00;1727827379;02/10/24;00:02:59;0.984;0.042;0.137;-0.09529497474431992;-0.26145032048225403;0.036651913076639175
01:00:0A:00:00:00:00;1727827380;02/10/24;00:03:00;1.0;0.001;-0.063;-0.1576032191514969;0.02932153083384037;0.018325956538319588
01:00:0A:00:00:00:00;1727827381;02/10/24;00:03:01;0.994;0.004;0.074;-0.16859880089759827;0.18936821818351746;-0.07819075137376785
01:00:0A:00:00:00:00;1727827382;02/10/24;00:03:02;0.934;-0.256;0.184;0.10506881773471832;-0.02076941914856434;0.2883284091949463
01:00:0A:00:00:00:00;1727827383;02/10/24;00:03:03;0.977;-0.072;0.172;0.8051203489303589;-0.4948008358478546;-0.322536826133728
01:00:0A:00:00:00:00;1727827384;02/10/24;00:03:04;0.989;-0.012;0.333;0.21013763546943665;-0.18448130786418915;0.051312677562236786
01:00:0A:00:00:00:00;1727827385;02/10/24;00:03:05;0.968;-0.168;0.35;0.41783180832862854;0.012217304669320583;0.1368338167667389
01:00:0A:00:00:00:00;1727827386;02/10/24;00:03:06;1.026;0.026;0.155;0.5473352670669556;-0.33597588539123535;0.02321287989616394
01:00:0A:00:00:00:00;1727827387;02/10/24;00:03:07;0.987;-0.076;-0.147;0.44715335965156555;-0.07819075137376785;0.05497787147760391
01:00:0A:00:00:00:00;1727827388;02/10/24;00:03:08;0.99;0.054;0.148;0.4752531349658966;0.2577851116657257;-0.3176499307155609
01:00:0A:00:00:00:00;1727827389;02/10/24;00:03:09;1.001;0.11;0.143;0.12461651116609573;-0.14049901068210602;0.2822197377681732
01:00:0A:00:00:00:00;1727827390;02/10/24;00:03:10;0.99;-0.14;0.011;0.19547687470912933;-0.08918632566928864;0.15515977144241333
01:00:0A:00:00:00:00;1727827391;02/10/24;00:03:11;0.965;0.061;0.073;0.34086278080940247;0.018325956538319588;-0.4153883755207062
01:00:0A:00:00:00:00;1727827392;02/10/24;00:03:12;0.956;0.08;0.066;-0.07452555745840073;-0.045204028487205505;0.5094615817070007
01:00:0A:00:00:00:00;1727827393;02/10/24;00:03:13;1.015;-0.11;0.097;0.11850785464048386;-0.08307767659425735;-0.2981022298336029
01:00:0A:00:00:00:00;1727827394;02/10/24;00:03:14;1.02;0.036;0.095;0.06352998316287994;0.1576032191514969;0.07696902006864548
01:00:0A:00:00:00:00;1727827395;02/10/24;00:03:15;1.012;-0.051;0.11;0.13316862285137177;-0.02321287989616394;0.013439035043120384
01:00:0A:00:00:00:00;1727827396;02/10/24;00:03:16;1.012;-0.037;-0.024;0.1014036238193512;-0.03420845419168472;0.05375614017248154
01:00:0A:00:00:00:00;1727827397;02/10/24;00:03:17;1.018;-0.036;0.044;0.07452555745840073;0.11362093687057495;-0.009773843921720982
01:00:0A:00:00:00:00;1727827398;02/10/24;00:03:18;1.008;-0.017;0.182;0.09896016865968704;0.0708603635430336;0.09407324343919754
01:00:0A:00:00:00:00;1727827399;02/10/24;00:03:19;1.009;-0.08;0.19;0.20891590416431427;0.04398229718208313;0.1576032191514969
01:00:0A:00:00:00:00;1727827400;02/10/24;00:03:20;1.005;-0.025;0.155;0.3274237811565399;0.00855211354792118;0.05009094998240471
01:00:0A:00:00:00:00;1727827401;02/10/24;00:03:21;1.003;0.01;0.137;0.34208452701568604;-0.09285151958465576;0.0
01:00:0A:00:00:00:00;1727827402;02/10/24;00:03:22;1.012;0.048;0.152;0.2675589621067047;-0.05009094998240471;0.013439035043120384
01:00:0A:00:00:00:00;1727827403;02/10/24;00:03:23;1.007;0.035;0.177;0.16982054710388184;-0.014660765416920185;-0.02687807008624077
01:00:0A:00:00:00:00;1727827404;02/10/24;00:03:24;1.012;0.068;0.165;0.03420845419168472;-0.05864306166768074;-0.00855211354792118
01:00:0A:00:00:00:00;1727827405;02/10/24;00:03:25;1.003;0.081;0.132;-0.1258382350206375;-0.10995574295520782;0.019547687843441963
01:00:0A:00:00:00:00;1727827406;02/10/24;00:03:26;1.003;0.03;0.147;-0.22846359014511108;-0.059864792972803116;0.02687807008624077
01:00:0A:00:00:00:00;1727827407;02/10/24;00:03:27;1.003;0.025;0.148;-0.23579397797584534;0.051312677562236786;-0.013439035043120384
01:00:0A:00:00:00:00;1727827408;02/10/24;00:03:28;0.998;-0.009;0.162;-0.21013763546943665;0.06841690838336945;0.024434609338641167
01:00:0A:00:00:00:00;1727827409;02/10/24;00:03:29;0.994;-0.01;0.143;-0.12828169763088226;-0.019547687843441963;0.021991148591041565
01:00:0A:00:00:00:00;1727827410;02/10/24;00:03:30;1.001;-0.01;0.141;-0.021991148591041565;-0.11484266817569733;-0.03787364438176155
01:00:0A:00:00:00:00;1727827411;02/10/24;00:03:31;1.01;0.004;0.103;0.00855211354792118;-0.05253440886735916;-0.02932153083384037
01:00:0A:00:00:00:00;1727827412;02/10/24;00:03:32;1.014;0.004;0.103;0.018325956538319588;-0.03176499158143997;-0.025656338781118393
01:00:0A:00:00:00:00;1727827413;02/10/24;00:03:33;1.016;-0.004;0.114;0.02321287989616394;-0.018325956538319588;-0.02076941914856434
01:00:0A:00:00:00:00;1727827414;02/10/24;00:03:34;1.016;0.016;0.071;0.010995574295520782;-0.03787364438176155;-0.021991148591041565
01:00:0A:00:00:00:00;1727827415;02/10/24;00:03:35;1.016;-0.001;0.076;-0.040317103266716;0.0073303827084600925;0.0012217304902151227
01:00:0A:00:00:00:00;1727827416;02/10/24;00:03:36;1.017;-0.011;0.085;-0.04398229718208313;-0.0073303827084600925;-0.009773843921720982
01:00:0A:00:00:00:00;1727827417;02/10/24;00:03:37;1.018;0.0;0.1;-0.051312677562236786;-0.021991148591041565;-0.009773843921720982
01:00:0A:00:00:00:00;1727827418;02/10/24;00:03:38;1.013;-0.009;0.113;-0.0708603635430336;0.05497787147760391;0.09162978082895279
01:00:0A:00:00:00:00;1727827419;02/10/24;00:03:39;1.011;-0.01;0.122;-0.02932153083384037;0.05009094998240471;0.08796459436416626
01:00:0A:00:00:00:00;1727827420;02/10/24;00:03:40;1.013;-0.005;0.112;0.02321287989616394;0.0073303827084600925;-0.013439035043120384
01:00:0A:00:00:00:00;1727827421;02/10/24;00:03:41;1.01;-0.007;0.112;0.05864306166768074;-0.009773843921720982;-0.004886921960860491
01:00:0A:00:00:00:00;1727827422;02/10/24;00:03:42;1.008;-0.017;0.107;0.09651670604944229;-0.04153883829712868;-0.021991148591041565
01:00:0A:00:00:00:00;1727827423;02/10/24;00:03:43;1.011;-0.014;0.125;0.11972958594560623;0.006108652334660292;-0.004886921960860491
01:00:0A:00:00:00:00;1727827424;02/10/24;00:03:44;1.007;-0.016;0.132;0.1258382350206375;-0.018325956538319588;0.0073303827084600925
01:00:0A:00:00:00:00;1727827425;02/10/24;00:03:45;1.009;-0.034;0.177;0.15271630883216858;-0.012217304669320583;0.02076941914856434
01:00:0A:00:00:00:00;1727827426;02/10/24;00:03:46;1.005;0.002;0.154;0.17104226350784302;-0.10751228034496307;-0.00855211354792118
01:00:0A:00:00:00:00;1727827427;02/10/24;00:03:47;1.012;0.018;0.017;0.10751228034496307;-0.12828169763088226;0.036651913076639175
01:00:0A:00:00:00:00;1727827428;02/10/24;00:03:48;1.024;0.006;0.073;0.05497787147760391;0.16004669666290283;-0.02321287989616394
01:00:0A:00:00:00:00;1727827429;02/10/24;00:03:49;1.03;0.037;0.174;0.04886921867728233;-0.00855211354792118;-0.0073303827084600925
01:00:0A:00:00:00:00;1727827430;02/10/24;00:03:50;1.023;-0.015;0.007;0.045204028487205505;-0.13072516024112701;0.045204028487205505
01:00:0A:00:00:00:00;1727827431;02/10/24;00:03:51;0.995;0.013;0.08;0.0354301817715168;0.13439035415649414;-0.05253440886735916
01:00:0A:00:00:00:00;1727827432;02/10/24;00:03:52;0.98;0.021;0.116;0.010995574295520782;-0.10873401165008545;0.036651913076639175
01:00:0A:00:00:00:00;1727827433;02/10/24;00:03:53;1.008;-0.011;0.049;0.014660765416920185;-0.05009094998240471;0.0
01:00:0A:00:00:00:00;1727827434;02/10/24;00:03:54;1.028;0.005;0.09;0.012217304669320583;0.03298672288656235;-0.02932153083384037
01:00:0A:00:00:00:00;1727827435;02/10/24;00:03:55;1.014;0.015;0.131;-0.018325956538319588;-0.012217304669320583;0.009773843921720982
01:00:0A:00:00:00:00;1727827436;02/10/24;00:03:56;1.008;-0.008;0.07;-0.02321287989616394;-0.03787364438176155;0.05009094998240471
01:00:0A:00:00:00:00;1727827437;02/10/24;00:03:57;1.018;-0.001;0.082;-0.0024434609804302454;0.01710422709584236;0.0036651913542300463
01:00:0A:00:00:00:00;1727827438;02/10/24;00:03:58;1.041;0.04;0.12;-0.019547687843441963;-0.015882495790719986;0.021991148591041565
01:00:0A:00:00:00:00;1727827439;02/10/24;00:03:59;1.035;-0.002;0.073;-0.019547687843441963;-0.00855211354792118;0.012217304669320583
01:00:0A:00:00:00:00;1727827440;02/10/24;00:04:00;1.004;0.006;0.069;0.0;0.05009094998240471;-0.0659734457731247
01:00:0A:00:00:00:00;1727827441;02/10/24;00:04:01;0.984;0.0;0.075;-0.015882495790719986;-0.05009094998240471;0.025656338781118393
01:00:0A:00:00:00:00;1727827442;02/10/24;00:04:02;1.005;-0.019;0.075;0.0;-0.06719517707824707;-0.004886921960860491
01:00:0A:00:00:00:00;1727827443;02/10/24;00:04:03;1.029;0.006;0.092;0.0;-0.004886921960860491;-0.006108652334660292
01:00:0A:00:00:00:00;1727827444;02/10/24;00:04:04;1.021;0.011;0.101;-0.009773843921720982;0.00855211354792118;-0.014660765416920185
01:00:0A:00:00:00:00;1727827445;02/10/24;00:04:05;1.001;-0.011;0.071;-0.009773843921720982;-0.00855211354792118;0.006108652334660292
01:00:0A:00:00:00:00;1727827446;02/10/24;00:04:06;1.002;-0.007;0.077;-0.0012217304902151227;-0.013439035043120384;-0.0012217304902151227
01:00:0A:00:00:00:00;1727827447;02/10/24;00:04:07;1.028;0.012;0.097;-0.014660765416920185;-0.02932153083384037;0.03176499158143997
01:00:0A:00:00:00:00;1727827448;02/10/24;00:04:08;1.035;0.011;0.072;-0.013439035043120384;0.0073303827084600925;0.00855211354792118
01:00:0A:00:00:00:00;1727827449;02/10/24;00:04:09;1.014;0.005;0.078;-0.006108652334660292;0.03176499158143997;-0.036651913076639175
01:00:0A:00:00:00:00;1727827450;02/10/24;00:04:10;0.991;0.004;0.058;-0.01710422709584236;-0.02932153083384037;-0.004886921960860491
01:00:0A:00:00:00:00;1727827451;02/10/24;00:04:11;1.005;0.0;0.064;-0.02687807008624077;-0.05375614017248154;0.010995574295520782
01:00:0A:00:00:00:00;1727827452;02/10/24;00:04:12;1.033;0.0;0.087;-0.021991148591041565;-0.03420845419168472;-0.006108652334660292
01:00:0A:00:00:00:00;1727827453;02/10/24;00:04:13;1.032;0.014;0.094;-0.0354301817715168;0.0036651913542300463;0.0
01:00:0A:00:00:00:00;1727827454;02/10/24;00:04:14;1.01;-0.01;0.074;-0.039095375686883926;0.015882495790719986;0.012217304669320583
01:00:0A:00:00:00:00;1727827455;02/10/24;00:04:15;1.002;0.0;0.067;-0.03298672288656235;-0.02076941914856434;0.0
01:00:0A:00:00:00:00;1727827456;02/10/24;00:04:16;1.017;0.003;0.081;-0.04398229718208313;-0.04153883829712868;0.03298672288656235
01:00:0A:00:00:00:00;1727827457;02/10/24;00:04:17;1.028;0.002;0.083;-0.04153883829712868;-0.004886921960860491;0.010995574295520782
01:00:0A:00:00:00:00;1727827458;02/10/24;00:04:18;1.018;0.007;0.078;-0.03298672288656235;0.015882495790719986;-0.021991148591041565
01:00:0A:00:00:00:00;1727827459;02/10/24;00:04:19;1.007;0.0;0.063;-0.03787364438176155;-0.015882495790719986;-0.010995574295520782
01:00:0A:00:00:00:00;1727827460;02/10/24;00:04:20;1.012;0.0;0.064;-0.045204028487205505;-0.04398229718208313;-0.0024434609804302454
01:00:0A:00:00:00:00;1727827461;02/10/24;00:04:21;1.024;-0.002;0.085;-0.04642575979232788;-0.024434609338641167;-0.006108652334660292
01:00:0A:00:00:00:00;1727827462;02/10/24;00:04:22;1.02;0.007;0.081;-0.05619959905743599;0.0;-0.010995574295520782
01:00:0A:00:00:00:00;1727827463;02/10/24;00:04:23;1.004;-0.002;0.069;-0.06352998316287994;0.004886921960860491;0.0
01:00:0A:00:00:00:00;1727827464;02/10/24;00:04:24;0.998;-0.004;0.06;-0.059864792972803116;-0.00855211354792118;-0.009773843921720982
01:00:0A:00:00:00:00;1727827465;02/10/24;00:04:25;1.006;0.005;0.076;-0.07208210229873657;-0.03787364438176155;0.019547687843441963
01:00:0A:00:00:00:00;1727827466;02/10/24;00:04:26;1.02;0.002;0.082;-0.07452555745840073;-0.021991148591041565;0.006108652334660292
01:00:0A:00:00:00:00;1727827467;02/10/24;00:04:27;1.019;0.013;0.075;-0.07696902006864548;0.0024434609804302454;-0.00855211354792118
01:00:0A:00:00:00:00;1727827468;02/10/24;00:04:28;1.016;0.009;0.07;-0.08307767659425735;-0.0073303827084600925;-0.00855211354792118
01:00:0A:00:00:00:00;1727827469;02/10/24;00:04:29;1.02;0.007;0.073;-0.08674286305904388;-0.03298672288656235;-0.009773843921720982
01:00:0A:00:00:00:00;1727827470;02/10/24;00:04:30;1.03;0.004;0.081;-0.09773843735456467;-0.019547687843441963;-0.0012217304902151227
01:00:0A:00:00:00:00;1727827471;02/10/24;00:04:31;1.032;0.001;0.084;-0.1014036238193512;0.006108652334660292;-0.0073303827084600925
01:00:0A:00:00:00:00;1727827472;02/10/24;00:04:32;1.009;0.006;0.08;-0.1062905490398407;0.010995574295520782;-0.0024434609804302454
01:00:0A:00:00:00:00;1727827473;02/10/24;00:04:33;1.016;0.032;0.069;-0.059864792972803116;-0.025656338781118393;-0.1673770695924759
01:00:0A:00:00:00:00;1727827474;02/10/24;00:04:34;1.007;0.12;0.076;-0.23090705275535583;-0.02076941914856434;-0.06963863223791122
01:00:0A:00:00:00:00;1727827475;02/10/24;00:04:35;1.015;0.086;0.117;-0.46547931432724;-0.05009094998240471;0.1160643920302391
01:00:0A:00:00:00:00;1727827476;02/10/24;00:04:36;1.009;0.005;0.14;-0.48258352279663086;-0.05253440886735916;0.04153883829712868
01:00:0A:00:00:00:00;1727827477;02/10/24;00:04:37;1.011;-0.058;0.136;-0.3579670488834381;-0.010995574295520782;-0.025656338781118393
01:00:0A:00:00:00:00;1727827478;02/10/24;00:04:38;1.01;-0.024;0.127;-0.2773328125476837;0.05009094998240471;-0.04764748737215996
01:00:0A:00:00:00:00;1727827479;02/10/24;00:04:39;1.011;0.018;0.14;-0.24923302233219147;0.018325956538319588;-0.03420845419168472
01:00:0A:00:00:00:00;1727827480;02/10/24;00:04:40;1.019;0.0;0.121;-0.21135938167572021;-0.04398229718208313;0.010995574295520782
01:00:0A:00:00:00:00;1727827481;02/10/24;00:04:41;1.016;-0.005;0.085;-0.1576032191514969;-0.03787364438176155;-0.021991148591041565
01:00:0A:00:00:00:00;1727827482;02/10/24;00:04:42;1.016;0.007;0.087;-0.13805554807186127;-0.004886921960860491;-0.01710422709584236
01:00:0A:00:00:00:00;1727827483;02/10/24;00:04:43;1.011;0.009;0.085;-0.13561207056045532;0.006108652334660292;0.019547687843441963
01:00:0A:00:00:00:00;1727827484;02/10/24;00:04:44;1.01;-0.03;0.103;-0.07330382615327835;-0.02687807008624077;-0.004886921960860491
01:00:0A:00:00:00:00;1727827485;02/10/24;00:04:45;1.011;-0.017;0.115;0.0354301817715168;-0.02687807008624077;-0.024434609338641167
01:00:0A:00:00:00:00;1727827486;02/10/24;00:04:46;1.014;-0.008;0.102;0.08185594528913498;-0.03787364438176155;0.0073303827084600925
01:00:0A:00:00:00:00;1727827487;02/10/24;00:04:47;1.016;0.001;0.078;0.07819075137376785;-0.013439035043120384;0.0024434609804302454
01:00:0A:00:00:00:00;1727827488;02/10/24;00:04:48;1.016;0.003;0.086;0.07452555745840073;0.004886921960860491;0.02321287989616394
01:00:0A:00:00:00:00;1727827489;02/10/24;00:04:49;1.015;-0.015;0.098;0.09407324343919754;0.013439035043120384;0.02321287989616394
01:00:0A:00:00:00:00;1727827490;02/10/24;00:04:50;1.014;-0.003;0.109;0.13805554807186127;-0.012217304669320583;-0.006108652334660292
01:00:0A:00:00:00:00;1727827491;02/10/24;00:04:51;1.016;0.0;0.106;0.15515977144241333;-0.015882495790719986;0.00855211354792118
01:00:0A:00:00:00:00;1727827492;02/10/24;00:04:52;1.014;0.004;0.093;0.15882496535778046;-0.0036651913542300463;0.006108652334660292
01:00:0A:00:00:00:00;1727827493;02/10/24;00:04:53;1.01;0.002;0.095;0.14782939851284027;-0.01710422709584236;0.0024434609804302454
01:00:0A:00:00:00:00;1727827494;02/10/24;00:04:54;1.01;0.005;0.102;0.14782939851284027;-0.028099799528717995;-0.0012217304902151227
01:00:0A:00:00:00:00;1727827495;02/10/24;00:04:55;1.012;0.008;0.102;0.13072516024112701;-0.03176499158143997;0.009773843921720982
01:00:0A:00:00:00:00;1727827496;02/10/24;00:04:56;1.016;0.01;0.128;0.11362093687057495;0.0;0.009773843921720982
01:00:0A:00:00:00:00;1727827497;02/10/24;00:04:57;1.01;0.02;0.107;0.09529497474431992;0.040317103266716;-0.012217304669320583
01:00:0A:00:00:00:00;1727827498;02/10/24;00:04:58;1.018;0.011;0.103;0.06719517707824707;0.0073303827084600925;0.010995574295520782
01:00:0A:00:00:00:00;1727827499;02/10/24;00:04:59;1.013;0.012;0.097;0.059864792972803116;-0.042760565876960754;0.0036651913542300463
01:00:0A:00:00:00:00;1727827500;02/10/24;00:05:00;1.015;0.017;0.084;0.04398229718208313;-0.03420845419168472;0.0073303827084600925
01:00:0A:00:00:00:00;1727827501;02/10/24;00:05:01;1.016;0.007;0.088;0.021991148591041565;0.02321287989616394;-0.006108652334660292
01:00:0A:00:00:00:00;1727827502;02/10/24;00:05:02;1.008;0.013;0.089;0.014660765416920185;-0.024434609338641167;0.009773843921720982
01:00:0A:00:00:00:00;1727827503;02/10/24;00:05:03;1.011;0.003;0.086;0.0073303827084600925;-0.02932153083384037;0.0073303827084600925
01:00:0A:00:00:00:00;1727827504;02/10/24;00:05:04;1.016;0.01;0.076;-0.0012217304902151227;-0.02687807008624077;0.0
01:00:0A:00:00:00:00;1727827505;02/10/24;00:05:05;1.015;0.007;0.081;-0.00855211354792118;0.006108652334660292;-0.0012217304902151227
01:00:0A:00:00:00:00;1727827506;02/10/24;00:05:06;1.016;0.007;0.094;-0.019547687843441963;0.018325956538319588;-0.0036651913542300463
01:00:0A:00:00:00:00;1727827507;02/10/24;00:05:07;1.013;0.006;0.088;-0.025656338781118393;0.00855211354792118;-0.00855211354792118
01:00:0A:00:00:00:00;1727827508;02/10/24;00:05:08;1.016;0.006;0.091;-0.0354301817715168;-0.018325956538319588;0.0073303827084600925
01:00:0A:00:00:00:00;1727827509;02/10/24;00:05:09;1.016;0.006;0.074;-0.030543262138962746;-0.028099799528717995;-0.0073303827084600925
01:00:0A:00:00:00:00;1727827510;02/10/24;00:05:10;1.016;0.004;0.082;-0.04398229718208313;-0.010995574295520782;0.014660765416920185
01:00:0A:00:00:00:00;1727827511;02/10/24;00:05:11;1.009;0.0;0.09;-0.03787364438176155;0.014660765416920185;-0.013439035043120384
01:00:0A:00:00:00:00;1727827512;02/10/24;00:05:12;1.02;0.004;0.083;-0.0354301817715168;-0.042760565876960754;-0.0036651913542300463
01:00:0A:00:00:00:00;1727827513;02/10/24;00:05:13;1.013;0.013;0.104;-0.03176499158143997;-0.009773843921720982;-0.019547687843441963
01:00:0A:00:00:00:00;1727827514;02/10/24;00:05:14;1.014;0.036;0.109;-0.04398229718208313;-0.010995574295520782;-0.013439035043120384
01:00:0A:00:00:00:00;1727827515;02/10/24;00:05:15;1.012;0.017;0.108;-0.0757472887635231;0.009773843921720982;0.010995574295520782
01:00:0A:00:00:00:00;1727827516;02/10/24;00:05:16;1.013;0.016;0.113;-0.06230825558304787;-0.012217304669320583;0.012217304669320583
01:00:0A:00:00:00:00;1727827517;02/10/24;00:05:17;1.015;0.019;0.108;-0.04764748737215996;-0.014660765416920185;-0.0024434609804302454
01:00:0A:00:00:00:00;1727827518;02/10/24;00:05:18;1.014;0.017;0.102;-0.02076941914856434;-0.025656338781118393;-0.014660765416920185
01:00:0A:00:00:00:00;1727827519;02/10/24;00:05:19;1.014;0.02;0.083;-0.01710422709584236;-0.021991148591041565;0.0012217304902151227
01:00:0A:00:00:00:00;1727827520;02/10/24;00:05:20;1.014;0.002;0.101;-0.01710422709584236;-0.00855211354792118;0.013439035043120384
01:00:0A:00:00:00:00;1727827521;02/10/24;00:05:21;1.014;0.008;0.101;0.0036651913542300463;-0.004886921960860491;-0.0073303827084600925
01:00:0A:00:00:00:00;1727827522;02/10/24;00:05:22;1.013;0.014;0.111;0.0;-0.015882495790719986;-0.0036651913542300463
01:00:0A:00:00:00:00;1727827523;02/10/24;00:05:23;1.013;0.017;0.108;0.0036651913542300463;-0.018325956538319588;-0.009773843921720982
01:00:0A:00:00:00:00;1727827524;02/10/24;00:05:24;1.014;0.014;0.1;0.00855211354792118;-0.01710422709584236;0.010995574295520782
01:00:0A:00:00:00:00;1727827525;02/10/24;00:05:25;1.015;-0.007;0.105;0.02321287989616394;-0.0036651913542300463;0.025656338781118393
01:00:0A:00:00:00:00;1727827526;02/10/24;00:05:26;1.014;0.003;0.103;0.018325956538319588;0.004886921960860491;0.006108652334660292
01:00:0A:00:00:00:00;1727827527;02/10/24;00:05:27;1.014;0.011;0.105;-0.0036651913542300463;0.009773843921720982;-0.004886921960860491
01:00:0A:00:00:00:00;1727827528;02/10/24;00:05:28;1.013;0.022;0.104;-0.0024434609804302454;-0.012217304669320583;0.0
01:00:0A:00:00:00:00;1727827529;02/10/24;00:05:29;1.013;0.01;0.106;0.0024434609804302454;-0.0073303827084600925;0.01710422709584236
01:00:0A:00:00:00:00;1727827530;02/10/24;00:05:30;1.013;-0.01;0.112;0.03298672288656235;-0.012217304669320583;0.010995574295520782
01:00:0A:00:00:00:00;1727827531;02/10/24;00:05:31;1.014;0.0;0.11;0.02932153083384037;-0.014660765416920185;-0.0073303827084600925
01:00:0A:00:00:00:00;1727827532;02/10/24;00:05:32;1.013;0.007;0.117;0.00855211354792118;-0.014660765416920185;-0.010995574295520782
01:00:0A:00:00:00:00;1727827533;02/10/24;00:05:33;1.014;0.021;0.106;0.0024434609804302454;-0.012217304669320583;-0.004886921960860491
01:00:0A:00:00:00:00;1727827534;02/10/24;00:05:34;1.012;0.012;0.107;0.006108652334660292;-0.013439035043120384;0.02076941914856434
01:00:0A:00:00:00:00;1727827535;02/10/24;00:05:35;1.014;0.007;0.102;0.004886921960860491;-0.006108652334660292;0.0012217304902151227
01:00:0A:00:00:00:00;1727827536;02/10/24;00:05:36;1.014;0.017;0.091;-0.0036651913542300463;-0.018325956538319588;-0.0036651913542300463
01:00:0A:00:00:00:00;1727827537;02/10/24;00:05:37;1.014;0.016;0.095;0.006108652334660292;-0.009773843921720982;0.0012217304902151227
01:00:0A:00:00:00:00;1727827538;02/10/24;00:05:38;1.014;0.014;0.091;0.012217304669320583;-0.015882495790719986;0.006108652334660292
01:00:0A:00:00:00:00;1727827539;02/10/24;00:05:39;1.014;0.0;0.1;0.02687807008624077;-0.004886921960860491;0.006108652334660292
01:00:0A:00:00:00:00;1727827540;02/10/24;00:05:40;1.013;0.006;0.104;0.02076941914856434;-0.019547687843441963;-0.006108652334660292
01:00:0A:00:00:00:00;1727827541;02/10/24;00:05:41;1.014;0.021;0.099;-0.004886921960860491;-0.010995574295520782;-0.010995574295520782
01:00:0A:00:00:00:00;1727827542;02/10/24;00:05:42;1.014;0.014;0.099;-0.0073303827084600925;-0.02076941914856434;0.0036651913542300463
01:00:0A:00:00:00:00;1727827543;02/10/24;00:05:43;1.014;0.005;0.095;-0.0024434609804302454;-0.010995574295520782;0.014660765416920185
01:00:0A:00:00:00:00;1727827544;02/10/24;00:05:44;1.014;-0.005;0.105;0.015882495790719986;-0.0012217304902151227;0.014660765416920185
01:00:0A:00:00:00:00;1727827545;02/10/24;00:05:45;1.014;0.008;0.098;0.02321287989616394;-0.0012217304902151227;-0.00855211354792118
01:00:0A:00:00:00:00;1727827546;02/10/24;00:05:46;1.014;0.022;0.103;-0.006108652334660292;-0.00855211354792118;0.004886921960860491
01:00:0A:00:00:00:00;1727827547;02/10/24;00:05:47;1.014;0.011;0.102;-0.0012217304902151227;-0.00855211354792118;0.006108652334660292
01:00:0A:00:00:00:00;1727827548;02/10/24;00:05:48;1.014;0.004;0.102;0.013439035043120384;-0.02076941914856434;0.009773843921720982
01:00:0A:00:00:00:00;1727827549;02/10/24;00:05:49;1.014;-0.002;0.109;0.040317103266716;-0.009773843921720982;0.0
01:00:0A:00:00:00:00;1727827550;02/10/24;00:05:50;1.013;0.015;0.105;0.018325956538319588;-0.014660765416920185;-0.00855211354792118
01:00:0A:00:00:00:00;1727827551;02/10/24;00:05:51;1.014;0.016;0.104;0.0012217304902151227;-0.009773843921720982;0.006108652334660292
01:00:0A:00:00:00:00;1727827552;02/10/24;00:05:52;1.014;0.014;0.106;0.0024434609804302454;-0.01710422709584236;0.00855211354792118
01:00:0A:00:00:00:00;1727827553;02/10/24;00:05:53;1.014;0.007;0.104;0.014660765416920185;-0.0073303827084600925;0.0036651913542300463
01:00:0A:00:00:00:00;1727827554;02/10/24;00:05:54;1.014;0.006;0.106;0.0073303827084600925;-0.00855211354792118;0.0012217304902151227
01:00:0A:00:00:00:00;1727827555;02/10/24;00:05:55;1.014;0.022;0.097;-0.0073303827084600925;-0.009773843921720982;0.0
01:00:0A:00:00:00:00;1727827556;02/10/24;00:05:56;1.013;0.012;0.101;-0.006108652334660292;-0.00855211354792118;0.012217304669320583
01:00:0A:00:00:00:00;1727827557;02/10/24;00:05:57;1.014;0.007;0.099;0.0073303827084600925;-0.01710422709584236;0.0024434609804302454
01:00:0A:00:00:00:00;1727827558;02/10/24;00:05:58;1.014;0.008;0.105;0.018325956538319588;-0.014660765416920185;-0.0024434609804302454
01:00:0A:00:00:00:00;1727827559;02/10/24;00:05:59;1.014;0.015;0.103;-0.006108652334660292;-0.014660765416920185;-0.014660765416920185
01:00:0A:00:00:00:00;1727827560;02/10/24;00:06:00;1.014;0.023;0.095;-0.012217304669320583;-0.02076941914856434;0.0012217304902151227
01:00:0A:00:00:00:00;1727827561;02/10/24;00:06:01;1.014;0.008;0.101;-0.010995574295520782;-0.0073303827084600925;0.015882495790719986
01:00:0A:00:00:00:00;1727827562;02/10/24;00:06:02;1.014;0.003;0.101;0.004886921960860491;-0.0073303827084600925;0.0012217304902151227
01:00:0A:00:00:00:00;1727827563;02/10/24;00:06:03;1.014;0.006;0.104;0.019547687843441963;-0.0036651913542300463;-0.0036651913542300463
01:00:0A:00:00:00:00;1727827564;02/10/24;00:06:04;1.014;0.022;0.1;0.009773843921720982;-0.013439035043120384;-0.0036651913542300463
01:00:0A:00:00:00:00;1727827565;02/10/24;00:06:05;1.014;0.025;0.093;-0.0073303827084600925;-0.012217304669320583;0.006108652334660292
01:00:0A:00:00:00:00;1727827566;02/10/24;00:06:06;1.015;0.007;0.099;0.0024434609804302454;-0.014660765416920185;0.012217304669320583
01:00:0A:00:00:00:00;1727827567;02/10/24;00:06:07;1.014;0.005;0.099;0.018325956538319588;-0.00855211354792118;-0.006108652334660292
01:00:0A:00:00:00:00;1727827568;02/10/24;00:06:08;1.014;0.007;0.104;-0.0024434609804302454;-0.0073303827084600925;-0.00855211354792118
01:00:0A:00:00:00:00;1727827569;02/10/24;00:06:09;1.014;0.021;0.099;-0.0073303827084600925;-0.014660765416920185;-0.0036651913542300463
01:00:0A:00:00:00:00;1727827570;02/10/24;00:06:10;1.015;0.02;0.098;-0.004886921960860491;-0.012217304669320583;0.014660765416920185
01:00:0A:00:00:00:00;1727827571;02/10/24;00:06:11;1.013;0.002;0.1;0.0073303827084600925;-0.006108652334660292;0.009773843921720982
01:00:0A:00:00:00:00;1727827572;02/10/24;00:06:12;1.014;0.003;0.099;0.019547687843441963;-0.010995574295520782;0.0
01:00:0A:00:00:00:00;1727827573;02/10/24;00:06:13;1.013;0.009;0.104;0.0024434609804302454;0.0;-0.006108652334660292
01:00:0A:00:00:00:00;1727827574;02/10/24;00:06:14;1.014;0.023;0.097;-0.014660765416920185;-0.010995574295520782;0.0036651913542300463
01:00:0A:00:00:00:00;1727827575;02/10/24;00:06:15;1.013;0.01;0.1;-0.009773843921720982;-0.006108652334660292;0.01710422709584236
01:00:0A:00:00:00:00;1727827576;02/10/24;00:06:16;1.014;0.003;0.102;0.0073303827084600925;-0.01710422709584236;0.0
01:00:0A:00:00:00:00;1727827577;02/10/24;00:06:17;1.014;0.007;0.099;0.00855211354792118;-0.012217304669320583;-0.012217304669320583
01:00:0A:00:00:00:00;1727827578;02/10/24;00:06:18;1.014;0.012;0.102;-0.0012217304902151227;-0.02076941914856434;0.0
01:00:0A:00:00:00:00;1727827579;02/10/24;00:06:19;1.014;0.017;0.097;0.0036651913542300463;-0.010995574295520782;0.0036651913542300463
01:00:0A:00:00:00:00;1727827580;02/10/24;00:06:20;1.014;0.003;0.103;0.014660765416920185;-0.009773843921720982;0.014660765416920185
01:00:0A:00:00:00:00;1727827581;02/10/24;00:06:21;1.014;0.004;0.1;0.0073303827084600925;-0.009773843921720982;-0.006108652334660292
01:00:0A:00:00:00:00;1727827582;02/10/24;00:06:22;1.013;0.013;0.101;-0.006108652334660292;-0.012217304669320583;-0.0036651913542300463
01:00:0A:00:00:00:00;1727827583;02/10/24;00:06:23;1.013;0.014;0.098;0.004886921960860491;-0.010995574295520782;0.0036651913542300463
01:00:0A:00:00:00:00;1727827584;02/10/24;00:06:24;1.014;0.015;0.095;0.0024434609804302454;-0.015882495790719986;0.013439035043120384
01:00:0A:00:00:00:00;1727827585;02/10/24;00:06:25;1.014;0.0;0.098;0.014660765416920185;-0.004886921960860491;0.004886921960860491
01:00:0A:00:00:00:00;1727827586;02/10/24;00:06:26;1.014;0.008;0.097;0.013439035043120384;-0.013439035043120384;-0.013439035043120384
01:00:0A:00:00:00:00;1727827587;02/10/24;00:06:27;1.015;0.014;0.097;0.0024434609804302454;-0.012217304669320583;0.0
01:00:0A:00:00:00:00;1727827588;02/10/24;00:06:28;1.014;0.015;0.099;0.0036651913542300463;-0.013439035043120384;0.00855211354792118
01:00:0A:00:00:00:00;1727827589;02/10/24;00:06:29;1.015;0.006;0.094;0.012217304669320583;-0.009773843921720982;0.012217304669320583
01:00:0A:00:00:00:00;1727827590;02/10/24;00:06:30;1.015;-0.001;0.103;0.013439035043120384;-0.00855211354792118;0.0024434609804302454
01:00:0A:00:00:00:00;1727827591;02/10/24;00:06:31;1.014;0.009;0.098;-0.012217304669320583;-0.0073303827084600925;-0.012217304669320583
01:00:0A:00:00:00:00;1727827592;02/10/24;00:06:32;1.014;0.014;0.101;-0.00855211354792118;-0.009773843921720982;0.006108652334660292
01:00:0A:00:00:00:00;1727827593;02/10/24;00:06:33;1.015;0.011;0.097;0.0036651913542300463;-0.010995574295520782;0.013439035043120384
01:00:0A:00:00:00:00;1727827594;02/10/24;00:06:34;1.016;0.002;0.098;0.013439035043120384;-0.0073303827084600925;0.009773843921720982
01:00:0A:00:00:00:00;1727827595;02/10/24;00:06:35;1.014;0.0;0.1;0.02321287989616394;-0.009773843921720982;-0.006108652334660292
01:00:0A:00:00:00:00;1727827596;02/10/24;00:06:36;1.014;0.012;0.1;0.0012217304902151227;-0.015882495790719986;-0.00855211354792118
01:00:0A:00:00:00:00;1727827597;02/10/24;00:06:37;1.014;0.009;0.105;-0.0036651913542300463;-0.00855211354792118;0.009773843921720982
01:00:0A:00:00:00:00;1727827598;02/10/24;00:06:38;1.013;0.004;0.102;0.010995574295520782;-0.014660765416920185;0.00855211354792118
01:00:0A:00:00:00:00;1727827599;02/10/24;00:06:39;1.013;0.001;0.104;0.009773843921720982;-0.006108652334660292;0.004886921960860491
01:00:0A:00:00:00:00;1727827600;02/10/24;00:06:40;1.013;0.004;0.104;-0.006108652334660292;-0.009773843921720982;-0.009773843921720982
01:00:0A:00:00:00:00;1727827601;02/10/24;00:06:41;1.015;0.015;0.099;-0.0024434609804302454;-0.012217304669320583;-0.0012217304902151227
01:00:0A:00:00:00:00;1727827602;02/10/24;00:06:42;1.014;0.007;0.103;0.00855211354792118;-0.012217304669320583;0.014660765416920185
01:00:0A:00:00:00:00;1727827603;02/10/24;00:06:43;1.014;0.004;0.101;0.006108652334660292;-0.0073303827084600925;0.0036651913542300463
01:00:0A:00:00:00:00;1727827604;02/10/24;00:06:44;1.013;0.001;0.102;0.0073303827084600925;-0.010995574295520782;-0.0012217304902151227
01:00:0A:00:00:00:00;1727827605;02/10/24;00:06:45;1.013;0.013;0.103;-0.004886921960860491;-0.014660765416920185;-0.012217304669320583
01:00:0A:00:00:00:00;1727827606;02/10/24;00:06:46;1.014;0.017;0.101;0.0;-0.01710422709584236;0.0036651913542300463
01:00:0A:00:00:00:00;1727827607;02/10/24;00:06:47;1.015;0.005;0.1;0.010995574295520782;-0.010995574295520782;0.010995574295520782
01:00:0A:00:00:00:00;1727827608;02/10/24;00:06:48;1.014;0.004;0.099;0.0073303827084600925;-0.010995574295520782;0.0036651913542300463
01:00:0A:00:00:00:00;1727827609;02/10/24;00:06:49;1.012;0.005;0.105;-0.0024434609804302454;-0.0036651913542300463;-0.006108652334660292
01:00:0A:00:00:00:00;1727827610;02/10/24;00:06:50;1.014;0.016;0.101;-0.009773843921720982;-0.01710422709584236;-0.0036651913542300463
01:00:0A:00:00:00:00;1727827611;02/10/24;00:06:51;1.014;0.013;0.101;-0.0012217304902151227;-0.00855211354792118;0.012217304669320583
01:00:0A:00:00:00:00;1727827612;02/10/24;00:06:52;1.013;0.001;0.101;0.012217304669320583;-0.010995574295520782;0.012217304669320583
01:00:0A:00:00:00:00;1727827613;02/10/24;00:06:53;1.014;0.003;0.099;0.0036651913542300463;-0.00855211354792118;-0.0012217304902151227
01:00:0A:00:00:00:00;1727827614;02/10/24;00:06:54;1.015;0.007;0.104;-0.0024434609804302454;-0.013439035043120384;-0.00855211354792118
01:00:0A:00:00:00:00;1727827615;02/10/24;00:06:55;1.012;0.017;0.1;0.0012217304902151227;-0.014660765416920185;-0.004886921960860491
01:00:0A:00:00:00:00;1727827616;02/10/24;00:06:56;1.014;0.008;0.102;0.004886921960860491;-0.013439035043120384;0.015882495790719986
01:00:0A:00:00:00:00;1727827617;02/10/24;00:06:57;1.014;0.0;0.101;0.013439035043120384;-0.00855211354792118;0.0073303827084600925
01:00:0A:00:00:00:00;1727827618;02/10/24;00:06:58;1.013;0.003;0.102;-0.0012217304902151227;-0.009773843921720982;-0.0024434609804302454
01:00:0A:00:00:00:00;1727827619;02/10/24;00:06:59;1.013;0.008;0.104;-0.0012217304902151227;-0.010995574295520782;-0.0036651913542300463
01:00:0A:00:00:00:00;1727827620;02/10/24;00:07:00;1.013;0.014;0.102;0.004886921960860491;-0.014660765416920185;0.006108652334660292
01:00:0A:00:00:00:00;1727827621;02/10/24;00:07:01;1.014;0.001;0.103;0.01710422709584236;-0.006108652334660292;0.013439035043120384
01:00:0A:00:00:00:00;1727827622;02/10/24;00:07:02;1.015;0.001;0.102;0.0073303827084600925;-0.013439035043120384;0.0
01:00:0A:00:00:00:00;1727827623;02/10/24;00:07:03;1.014;0.008;0.102;-0.0024434609804302454;-0.009773843921720982;-0.006108652334660292
01:00:0A:00:00:00:00;1727827624;02/10/24;00:07:04;1.013;0.011;0.104;0.0036651913542300463;-0.015882495790719986;-0.0024434609804302454
01:00:0A:00:00:00:00;1727827625;02/10/24;00:07:05;1.013;0.01;0.101;0.014660765416920185;-0.013439035043120384;0.00855211354792118
01:00:0A:00:00:00:00;1727827626;02/10/24;00:07:06;1.014;0.0;0.104;0.02321287989616394;-0.0073303827084600925;0.009773843921720982
01:00:0A:00:00:00:00;1727827627;02/10/24;00:07:07;1.014;0.004;0.103;0.010995574295520782;-0.00855211354792118;-0.006108652334660292
01:00:0A:00:00:00:00;1727827628;02/10/24;00:07:08;1.014;0.012;0.105;0.0024434609804302454;-0.012217304669320583;-0.0012217304902151227
01:00:0A:00:00:00:00;1727827629;02/10/24;00:07:09;1.014;0.013;0.102;0.0073303827084600925;-0.013439035043120384;0.0036651913542300463
01:00:0A:00:00:00:00;1727827630;02/10/24;00:07:10;1.014;0.007;0.099;0.018325956538319588;-0.010995574295520782;0.012217304669320583
01:00:0A:00:00:00:00;1727827631;02/10/24;00:07:11;1.013;0.0;0.102;0.012217304669320583;-0.0073303827084600925;0.004886921960860491
01:00:0A:00:00:00:00;1727827632;02/10/24;00:07:12;1.014;0.009;0.102;-0.004886921960860491;-0.010995574295520782;-0.00855211354792118
01:00:0A:00:00:00:00;1727827633;02/10/24;00:07:13;1.015;0.012;0.105;0.0024434609804302454;-0.009773843921720982;0.0
01:00:0A:00:00:00:00;1727827634;02/10/24;00:07:14;1.014;0.012;0.102;0.009773843921720982;-0.015882495790719986;0.0073303827084600925
01:00:0A:00:00:00:00;1727827635;02/10/24;00:07:15;1.014;0.003;0.102;0.01710422709584236;-0.0073303827084600925;0.009773843921720982
01:00:0A:00:00:00:00;1727827636;02/10/24;00:07:16;1.014;0.0;0.103;0.004886921960860491;-0.009773843921720982;-0.0012217304902151227
01:00:0A:00:00:00:00;1727827637;02/10/24;00:07:17;1.015;0.011;0.104;-0.0073303827084600925;-0.010995574295520782;-0.0073303827084600925
01:00:0A:00:00:00:00;1727827638;02/10/24;00:07:18;1.014;0.011;0.105;0.0024434609804302454;-0.009773843921720982;0.004886921960860491
01:00:0A:00:00:00:00;1727827639;02/10/24;00:07:19;1.015;0.008;0.101;0.013439035043120384;-0.010995574295520782;0.00855211354792118
01:00:0A:00:00:00:00;1727827640;02/10/24;00:07:20;1.014;0.0;0.103;0.015882495790719986;-0.00855211354792118;0.009773843921720982
01:00:0A:00:00:00:00;1727827641;02/10/24;00:07:21;1.013;0.003;0.104;0.0036651913542300463;-0.0073303827084600925;-0.006108652334660292
01:00:0A:00:00:00:00;1727827642;02/10/24;00:07:22;1.014;0.013;0.105;-0.0036651913542300463;-0.015882495790719986;-0.006108652334660292
01:00:0A:00:00:00:00;1727827643;02/10/24;00:07:23;1.015;0.012;0.106;0.0036651913542300463;-0.012217304669320583;0.004886921960860491
01:00:0A:00:00:00:00;1727827644;02/10/24;00:07:24;1.013;0.007;0.102;0.012217304669320583;-0.014660765416920185;0.0073303827084600925
01:00:0A:00:00:00:00;1727827645;02/10/24;00:07:25;1.015;0.0;0.104;0.010995574295520782;-0.0073303827084600925;0.0024434609804302454
01:00:0A:00:00:00:00;1727827646;02/10/24;00:07:26;1.013;0.009;0.104;-0.0036651913542300463;-0.013439035043120384;-0.0073303827084600925
01:00:0A:00:00:00:00;1727827647;02/10/24;00:07:27;1.013;0.013;0.104;-0.0012217304902151227;-0.00855211354792118;0.0
01:00:0A:00:00:00:00;1727827648;02/10/24;00:07:28;1.015;0.008;0.104;0.009773843921720982;-0.012217304669320583;0.010995574295520782
01:00:0A:00:00:00:00;1727827649;02/10/24;00:07:29;1.015;0.004;0.101;0.00855211354792118;-0.009773843921720982;0.0036651913542300463
01:00:0A:00:00:00:00;1727827650;02/10/24;00:07:30;1.014;0.003;0.106;0.0024434609804302454;-0.009773843921720982;-0.0012217304902151227
01:00:0A:00:00:00:00;1727827651;02/10/24;00:07:31;1.013;0.015;0.102;-0.0036651913542300463;-0.014660765416920185;-0.006108652334660292
01:00:0A:00:00:00:00;1727827652;02/10/24;00:07:32;1.013;0.015;0.104;0.0036651913542300463;-0.012217304669320583;0.00855211354792118
01:00:0A:00:00:00:00;1727827653;02/10/24;00:07:33;1.014;0.006;0.101;0.013439035043120384;-0.009773843921720982;0.0073303827084600925
01:00:0A:00:00:00:00;1727827654;02/10/24;00:07:34;1.014;0.003;0.103;0.006108652334660292;-0.010995574295520782;0.0024434609804302454
01:00:0A:00:00:00:00;1727827655;02/10/24;00:07:35;1.014;0.006;0.106;0.0012217304902151227;-0.00855211354792118;-0.0036651913542300463
01:00:0A:00:00:00:00;1727827656;02/10/24;00:07:36;1.014;0.015;0.104;-0.009773843921720982;-0.014660765416920185;-0.0024434609804302454
01:00:0A:00:00:00:00;1727827657;02/10/24;00:07:37;1.014;0.01;0.103;0.0012217304902151227;-0.009773843921720982;0.012217304669320583
01:00:0A:00:00:00:00;1727827658;02/10/24;00:07:38;1.014;0.005;0.102;0.013439035043120384;-0.012217304669320583;0.006108652334660292
01:00:0A:00:00:00:00;1727827659;02/10/24;00:07:39;1.014;0.003;0.101;0.0024434609804302454;-0.0073303827084600925;-0.0012217304902151227
01:00:0A:00:00:00:00;1727827660;02/10/24;00:07:40;1.014;0.009;0.105;-0.0036651913542300463;-0.012217304669320583;-0.0036651913542300463
01:00:0A:00:00:00:00;1727827661;02/10/24;00:07:41;1.014;0.015;0.102;0.004886921960860491;-0.012217304669320583;0.0024434609804302454
01:00:0A:00:00:00:00;1727827662;02/10/24;00:07:42;1.013;0.005;0.106;0.015882495790719986;-0.009773843921720982;0.012217304669320583
01:00:0A:00:00:00:00;1727827663;02/10/24;00:07:43;1.014;0.001;0.102;0.009773843921720982;-0.012217304669320583;0.0
01:00:0A:00:00:00:00;1727827664;02/10/24;00:07:44;1.014;0.004;0.105;0.0024434609804302454;-0.009773843921720982;-0.0036651913542300463
01:00:0A:00:00:00:00;1727827665;02/10/24;00:07:45;1.013;0.011;0.106;-0.0024434609804302454;-0.010995574295520782;-0.0024434609804302454
01:00:0A:00:00:00:00;1727827666;02/10/24;00:07:46;1.014;0.013;0.104;0.00855211354792118;-0.012217304669320583;0.00855211354792118
01:00:0A:00:00:00:00;1727827667;02/10/24;00:07:47;1.013;0.002;0.105;0.018325956538319588;-0.00855211354792118;0.009773843921720982
01:00:0A:00:00:00:00;1727827668;02/10/24;00:07:48;1.014;0.003;0.103;0.006108652334660292;-0.009773843921720982;-0.0036651913542300463
01:00:0A:00:00:00:00;1727827669;02/10/24;00:07:49;1.014;0.008;0.107;-0.0012217304902151227;-0.009773843921720982;-0.0024434609804302454
01:00:0A:00:00:00:00;1727827670;02/10/24;00:07:50;1.013;0.012;0.106;0.004886921960860491;-0.014660765416920185;0.0012217304902151227
01:00:0A:00:00:00:00;1727827671;02/10/24;00:07:51;1.014;0.01;0.104;0.014660765416920185;-0.009773843921720982;0.009773843921720982
01:00:0A:00:00:00:00;1727827672;02/10/24;00:07:52;1.014;0.002;0.104;0.015882495790719986;-0.010995574295520782;0.0036651913542300463
01:00:0A:00:00:00:00;1727827673;02/10/24;00:07:53;1.013;0.009;0.105;0.0012217304902151227;-0.009773843921720982;-0.006108652334660292
01:00:0A:00:00:00:00;1727827674;02/10/24;00:07:54;1.013;0.011;0.106;0.0036651913542300463;-0.009773843921720982;0.0012217304902151227
01:00:0A:00:00:00:00;1727827675;02/10/24;00:07:55;1.013;0.015;0.105;0.006108652334660292;-0.012217304669320583;0.004886921960860491
01:00:0A:00:00:00:00;1727827676;02/10/24;00:07:56;1.014;0.007;0.103;0.010995574295520782;-0.010995574295520782;0.012217304669320583
01:00:0A:00:00:00:00;1727827677;02/10/24;00:07:57;1.014;0.005;0.104;0.006108652334660292;-0.00855211354792118;-0.0024434609804302454
01:00:0A:00:00:00:00;1727827678;02/10/24;00:07:58;1.014;0.011;0.104;-0.0024434609804302454;-0.013439035043120384;-0.0036651913542300463
01:00:0A:00:00:00:00;1727827679;02/10/24;00:07:59;1.014;0.014;0.105;0.004886921960860491;-0.009773843921720982;0.0024434609804302454
01:00:0A:00:00:00:00;1727827680;02/10/24;00:08:00;1.014;0.011;0.101;0.010995574295520782;-0.013439035043120384;0.00855211354792118
01:00:0A:00:00:00:00;1727827681;02/10/24;00:08:01;1.014;0.004;0.103;0.013439035043120384;-0.00855211354792118;0.0073303827084600925
01:00:0A:00:00:00:00;1727827682;02/10/24;00:08:02;1.014;0.006;0.104;-0.0012217304902151227;-0.012217304669320583;-0.006108652334660292
01:00:0A:00:00:00:00;1727827683;02/10/24;00:08:03;1.013;0.013;0.105;-0.0024434609804302454;-0.010995574295520782;-0.0036651913542300463
01:00:0A:00:00:00:00;1727827684;02/10/24;00:08:04;1.013;0.013;0.105;0.004886921960860491;-0.013439035043120384;0.006108652334660292
01:00:0A:00:00:00:00;1727827685;02/10/24;00:08:05;1.015;0.009;0.1;0.013439035043120384;-0.010995574295520782;0.00855211354792118
01:00:0A:00:00:00:00;1727827686;02/10/24;00:08:06;1.015;0.003;0.102;0.009773843921720982;-0.009773843921720982;0.004886921960860491
01:00:0A:00:00:00:00;1727827687;02/10/24;00:08:07;1.015;0.009;0.103;-0.004886921960860491;-0.010995574295520782;-0.00855211354792118
01:00:0A:00:00:00:00;1727827688;02/10/24;00:08:08;1.013;0.015;0.105;-0.0012217304902151227;-0.010995574295520782;0.0012217304902151227
01:00:0A:00:00:00:00;1727827689;02/10/24;00:08:09;1.014;0.012;0.104;0.006108652334660292;-0.010995574295520782;0.006108652334660292
01:00:0A:00:00:00:00;1727827690;02/10/24;00:08:10;1.014;0.006;0.103;0.013439035043120384;-0.013439035043120384;0.009773843921720982
01:00:0A:00:00:00:00;1727827691;02/10/24;00:08:11;1.013;0.003;0.103;0.004886921960860491;-0.00855211354792118;0.0
01:00:0A:00:00:00:00;1727827692;02/10/24;00:08:12;1.014;0.011;0.104;-0.004886921960860491;-0.013439035043120384;-0.0073303827084600925
01:00:0A:00:00:00:00;1727827693;02/10/24;00:08:13;1.013;0.012;0.104;0.006108652334660292;-0.009773843921720982;0.004886921960860491
01:00:0A:00:00:00:00;1727827694;02/10/24;00:08:14;1.014;0.01;0.105;0.014660765416920185;-0.010995574295520782;0.00855211354792118
01:00:0A:00:00:00:00;1727827695;02/10/24;00:08:15;1.014;0.004;0.103;0.012217304669320583;-0.009773843921720982;0.006108652334660292
01:00:0A:00:00:00:00;1727827696;02/10/24;00:08:16;1.014;0.005;0.105;0.0012217304902151227;-0.009773843921720982;-0.0036651913542300463
01:00:0A:00:00:00:00;1727827697;02/10/24;00:08:17;1.014;0.014;0.103;-0.0024434609804302454;-0.012217304669320583;-0.004886921960860491
01:00:0A:00:00:00:00;1727827698;02/10/24;00:08:18;1.013;0.014;0.103;0.006108652334660292;-0.010995574295520782;0.0073303827084600925
01:00:0A:00:00:00:00;1727827699;02/10/24;00:08:19;1.014;0.008;0.103;0.014660765416920185;-0.012217304669320583;0.00855211354792118
01:00:0A:00:00:00:00;1727827700;02/10/24;00:08:20;1.013;0.004;0.103;0.0073303827084600925;-0.009773843921720982;0.0024434609804302454
01:00:0A:00:00:00:00;1727827701;02/10/24;00:08:21;1.015;0.008;0.105;-0.0024434609804302454;-0.010995574295520782;-0.006108652334660292
01:00:0A:00:00:00:00;1727827702;02/10/24;00:08:22;1.013;0.015;0.104;-0.0024434609804302454;-0.012217304669320583;0.0012217304902151227
01:00:0A:00:00:00:00;1727827703;02/10/24;00:08:23;1.014;0.01;0.104;0.0073303827084600925;-0.00855211354792118;0.009773843921720982
01:00:0A:00:00:00:00;1727827704;02/10/24;00:08:24;1.013;0.005;0.102;0.009773843921720982;-0.012217304669320583;0.006108652334660292
01:00:0A:00:00:00:00;1727827705;02/10/24;00:08:25;1.014;0.005;0.104;0.0036651913542300463;-0.00855211354792118;-0.0012217304902151227
01:00:0A:00:00:00:00;1727827706;02/10/24;00:08:26;1.012;0.012;0.104;0.0012217304902151227;-0.012217304669320583;-0.0036651913542300463
01:00:0A:00:00:00:00;1727827707;02/10/24;00:08:27;1.014;0.013;0.102;0.0073303827084600925;-0.010995574295520782;0.004886921960860491
01:00:0A:00:00:00:00;1727827708;02/10/24;00:08:28;1.014;0.006;0.104;0.01710422709584236;-0.010995574295520782;0.009773843921720982
01:00:0A:00:00:00:00;1727827709;02/10/24;00:08:29;1.014;0.006;0.103;0.0073303827084600925;-0.009773843921720982;0.0
01:00:0A:00:00:00:00;1727827710;02/10/24;00:08:30;1.014;0.008;0.106;0.0;-0.010995574295520782;-0.0024434609804302454
01:00:0A:00:00:00:00;1727827711;02/10/24;00:08:31;1.013;0.014;0.106;0.0012217304902151227;-0.013439035043120384;-0.0012217304902151227
01:00:0A:00:00:00:00;1727827712;02/10/24;00:08:32;1.014;0.01;0.103;0.00855211354792118;-0.010995574295520782;0.00855211354792118
01:00:0A:00:00:00:00;1727827713;02/10/24;00:08:33;1.015;0.004;0.103;0.013439035043120384;-0.009773843921720982;0.006108652334660292
01:00:0A:00:00:00:00;1727827714;02/10/24;00:08:34;1.014;0.007;0.104;0.0012217304902151227;-0.009773843921720982;-0.0024434609804302454
01:00:0A:00:00:00:00;1727827715;02/10/24;00:08:35;1.015;0.011;0.107;-0.0024434609804302454;-0.009773843921720982;-0.0012217304902151227
01:00:0A:00:00:00:00;1727827716;02/10/24;00:08:36;1.013;0.012;0.103;0.006108652334660292;-0.014660765416920185;0.0036651913542300463
01:00:0A:00:00:00:00;1727827717;02/10/24;00:08:37;1.014;0.007;0.103;0.013439035043120384;-0.009773843921720982;0.009773843921720982
01:00:0A:00:00:00:00;1727827718;02/10/24;00:08:38;1.014;0.005;0.104;0.006108652334660292;-0.012217304669320583;0.0012217304902151227
01:00:0A:00:00:00:00;1727827719;02/10/24;00:08:39;1.013;0.01;0.104;-0.0024434609804302454;-0.010995574295520782;-0.004886921960860491
01:00:0A:00:00:00:00;1727827720;02/10/24;00:08:40;1.013;0.012;0.104;0.006108652334660292;-0.012217304669320583;0.0012217304902151227
01:00:0A:00:00:00:00;1727827721;02/10/24;00:08:41;1.013;0.011;0.102;0.009773843921720982;-0.010995574295520782;0.004886921960860491
01:00:0A:00:00:00:00;1727827722;02/10/24;00:08:42;1.014;0.004;0.103;0.018325956538319588;-0.010995574295520782;0.00855211354792118
01:00:0A:00:00:00:00;1727827723;02/10/24;00:08:43;1.013;0.006;0.104;0.0024434609804302454;-0.009773843921720982;-0.0024434609804302454
01:00:0A:00:00:00:00;1727827724;02/10/24;00:08:44;1.013;0.011;0.104;-0.0012217304902151227;-0.010995574295520782;-0.0024434609804302454
01:00:0A:00:00:00:00;1727827725;02/10/24;00:08:45;1.014;0.012;0.104;0.006108652334660292;-0.012217304669320583;0.0024434609804302454
01:00:0A:00:00:00:00;1727827726;02/10/24;00:08:46;1.014;0.011;0.102;0.010995574295520782;-0.012217304669320583;0.0073303827084600925
01:00:0A:00:00:00:00;1727827727;02/10/24;00:08:47;1.013;0.004;0.103;0.010995574295520782;-0.00855211354792118;0.004886921960860491
01:00:0A:00:00:00:00;1727827728;02/10/24;00:08:48;1.014;0.008;0.104;-0.004886921960860491;-0.010995574295520782;-0.004886921960860491
01:00:0A:00:00:00:00;1727827729;02/10/24;00:08:49;1.015;0.011;0.105;0.0012217304902151227;-0.009773843921720982;0.0
01:00:0A:00:00:00:00;1727827730;02/10/24;00:08:50;1.014;0.012;0.104;0.0073303827084600925;-0.012217304669320583;0.004886921960860491
01:00:0A:00:00:00:00;1727827731;02/10/24;00:08:51;1.013;0.007;0.103;0.013439035043120384;-0.010995574295520782;0.0073303827084600925
01:00:0A:00:00:00:00;1727827732;02/10/24;00:08:52;1.014;0.004;0.105;0.004886921960860491;-0.00855211354792118;0.0012217304902151227
01:00:0A:00:00:00:00;1727827733;02/10/24;00:08:53;1.013;0.011;0.104;-0.004886921960860491;-0.010995574295520782;-0.004886921960860491
01:00:0A:00:00:00:00;1727827734;02/10/24;00:08:54;1.014;0.012;0.104;0.004886921960860491;-0.010995574295520782;0.0036651913542300463
01:00:0A:00:00:00:00;1727827735;02/10/24;00:08:55;1.013;0.01;0.104;0.009773843921720982;-0.012217304669320583;0.006108652334660292
01:00:0A:00:00:00:00;1727827736;02/10/24;00:08:56;1.014;0.003;0.103;0.012217304669320583;-0.010995574295520782;0.006108652334660292
01:00:0A:00:00:00:00;1727827737;02/10/24;00:08:57;1.014;0.005;0.106;0.0012217304902151227;-0.009773843921720982;-0.0024434609804302454
01:00:0A:00:00:00:00;1727827738;02/10/24;00:08:58;1.013;0.013;0.105;-0.004886921960860491;-0.012217304669320583;-0.0024434609804302454
01:00:0A:00:00:00:00;1727827739;02/10/24;00:08:59;1.013;0.012;0.104;0.004886921960860491;-0.010995574295520782;0.006108652334660292
01:00:0A:00:00:00:00;1727827740;02/10/24;00:09:00;1.015;0.008;0.101;0.014660765416920185;-0.012217304669320583;0.00855211354792118
01:00:0A:00:00:00:00;1727827741;02/10/24;00:09:01;1.013;0.005;0.104;0.00855211354792118;-0.00855211354792118;0.0036651913542300463
01:00:0A:00:00:00:00;1727827742;02/10/24;00:09:02;1.014;0.01;0.104;0.0;-0.010995574295520782;-0.0036651913542300463
01:00:0A:00:00:00:00;1727827743;02/10/24;00:09:03;1.014;0.015;0.104;-0.0012217304902151227;-0.010995574295520782;0.0
01:00:0A:00:00:00:00;1727827744;02/10/24;00:09:04;1.013;0.011;0.104;0.00855211354792118;-0.010995574295520782;0.0073303827084600925
01:00:0A:00:00:00:00;1727827745;02/10/24;00:09:05;1.014;0.006;0.103;0.00855211354792118;-0.012217304669320583;0.004886921960860491
01:00:0A:00:00:00:00;1727827746;02/10/24;00:09:06;1.014;0.006;0.104;0.0036651913542300463;-0.009773843921720982;0.0
01:00:0A:00:00:00:00;1727827747;02/10/24;00:09:07;1.014;0.013;0.104;-0.0024434609804302454;-0.010995574295520782;-0.0036651913542300463
01:00:0A:00:00:00:00;1727827748;02/10/24;00:09:08;1.015;0.014;0.103;0.006108652334660292;-0.012217304669320583;0.0036651913542300463
01:00:0A:00:00:00:00;1727827749;02/10/24;00:09:09;1.013;0.009;0.104;0.013439035043120384;-0.010995574295520782;0.00855211354792118
01:00:0A:00:00:00:00;1727827750;02/10/24;00:09:10;1.014;0.007;0.102;0.006108652334660292;-0.012217304669320583;0.0024434609804302454
01:00:0A:00:00:00:00;1727827751;02/10/24;00:09:11;1.013;0.008;0.104;0.0024434609804302454;-0.00855211354792118;-0.0024434609804302454
01:00:0A:00:00:00:00;1727827752;02/10/24;00:09:12;1.014;0.014;0.103;-0.004886921960860491;-0.013439035043120384;-0.0012217304902151227
01:00:0A:00:00:00:00;1727827753;02/10/24;00:09:13;1.014;0.012;0.101;0.0073303827084600925;-0.009773843921720982;0.006108652334660292
01:00:0A:00:00:00:00;1727827754;02/10/24;00:09:14;1.015;0.006;0.101;0.012217304669320583;-0.012217304669320583;0.0073303827084600925
01:00:0A:00:00:00:00;1727827755;02/10/24;00:09:15;1.014;0.006;0.102;0.0024434609804302454;-0.009773843921720982;-0.0012217304902151227
01:00:0A:00:00:00:00;1727827756;02/10/24;00:09:16;1.014;0.01;0.105;0.0036651913542300463;-0.010995574295520782;-0.0012217304902151227
01:00:0A:00:00:00:00;1727827757;02/10/24;00:09:17;1.014;0.012;0.102;0.006108652334660292;-0.012217304669320583;0.0012217304902151227
01:00:0A:00:00:00:00;1727827758;02/10/24;00:09:18;1.013;0.01;0.103;0.014660765416920185;-0.010995574295520782;0.00855211354792118
01:00:0A:00:00:00:00;1727827759;02/10/24;00:09:19;1.014;0.006;0.102;0.004886921960860491;-0.009773843921720982;0.0012217304902151227
01:00:0A:00:00:00:00;1727827760;02/10/24;00:09:20;1.013;0.008;0.104;0.0012217304902151227;-0.010995574295520782;-0.0024434609804302454
01:00:0A:00:00:00:00;1727827761;02/10/24;00:09:21;1.014;0.011;0.104;0.004886921960860491;-0.010995574295520782;0.0012217304902151227
01:00:0A:00:00:00:00;1727827762;02/10/24;00:09:22;1.014;0.012;0.101;0.010995574295520782;-0.012217304669320583;0.004886921960860491
01:00:0A:00:00:00:00;1727827763;02/10/24;00:09:23;1.014;0.005;0.103;0.010995574295520782;-0.009773843921720982;0.006108652334660292
01:00:0A:00:00:00:00;1727827764;02/10/24;00:09:24;1.015;0.007;0.103;0.0;-0.009773843921720982;-0.0024434609804302454
01:00:0A:00:00:00:00;1727827765;02/10/24;00:09:25;1.015;0.011;0.104;0.0012217304902151227;-0.010995574295520782;0.0
01:00:0A:00:00:00:00;1727827766;02/10/24;00:09:26;1.013;0.012;0.103;0.009773843921720982;-0.013439035043120384;0.0036651913542300463
01:00:0A:00:00:00:00;1727827767;02/10/24;00:09:27;1.014;0.007;0.101;0.012217304669320583;-0.012217304669320583;0.00855211354792118
01:00:0A:00:00:00:00;1727827768;02/10/24;00:09:28;1.014;0.004;0.103;0.009773843921720982;-0.009773843921720982;0.0036651913542300463
01:00:0A:00:00:00:00;1727827764;02/10/24;00:09:24;1.014;0.009;0.104;-0.0024434609804302454;-0.009773843921720982;-0.004886921960860491
01:00:0A:00:00:00:00;1727827765;02/10/24;00:09:25;1.013;0.013;0.104;0.0036651913542300463;-0.010995574295520782;0.0012217304902151227
01:00:0A:00:00:00:00;1727827766;02/10/24;00:09:26;1.014;0.012;0.103;0.010995574295520782;-0.012217304669320583;0.004886921960860491
01:00:0A:00:00:00:00;1727827767;02/10/24;00:09:27;1.014;0.006;0.101;0.012217304669320583;-0.012217304669320583;0.0073303827084600925
01:00:0A:00:00:00:00;1727827768;02/10/24;00:09:28;1.014;0.006;0.102;0.0036651913542300463;-0.00855211354792118;0.0
01:00:0A:00:00:00:00;1727827769;02/10/24;00:09:29;1.013;0.012;0.103;-0.0036651913542300463;-0.010995574295520782;-0.0036651913542300463
01:00:0A:00:00:00:00;1727827770;02/10/24;00:09:30;1.013;0.013;0.103;0.006108652334660292;-0.010995574295520782;0.0024434609804302454
01:00:0A:00:00:00:00;1727827771;02/10/24;00:09:31;1.013;0.011;0.102;0.014660765416920185;-0.013439035043120384;0.0073303827084600925
01:00:0A:00:00:00:00;1727827772;02/10/24;00:09:32;1.014;0.004;0.102;0.012217304669320583;-0.009773843921720982;0.006108652334660292
01:00:0A:00:00:00:00;1727827773;02/10/24;00:09:33;1.015;0.006;0.103;0.0012217304902151227;-0.009773843921720982;-0.0024434609804302454
01:00:0A:00:00:00:00;1727827774;02/10/24;00:09:34;1.014;0.013;0.101;-0.0036651913542300463;-0.010995574295520782;-0.0036651913542300463
01:00:0A:00:00:00:00;1727827775;02/10/24;00:09:35;1.014;0.014;0.103;0.006108652334660292;-0.012217304669320583;0.004886921960860491
01:00:0A:00:00:00:00;1727827776;02/10/24;00:09:36;1.015;0.009;0.101;0.013439035043120384;-0.012217304669320583;0.00855211354792118
01:00:0A:00:00:00:00;1727827777;02/10/24;00:09:37;1.013;0.005;0.102;0.00855211354792118;-0.009773843921720982;0.004886921960860491
01:00:0A:00:00:00:00;1727827778;02/10/24;00:09:38;1.015;0.009;0.103;-0.0024434609804302454;-0.00855211354792118;-0.006108652334660292
01:00:0A:00:00:00:00;1727827779;02/10/24;00:09:39;1.015;0.014;0.104;0.0012217304902151227;-0.012217304669320583;0.0
01:00:0A:00:00:00:00;1727827780;02/10/24;00:09:40;1.013;0.01;0.103;0.00855211354792118;-0.010995574295520782;0.006108652334660292
01:00:0A:00:00:00:00;1727827781;02/10/24;00:09:41;1.015;0.006;0.102;0.010995574295520782;-0.013439035043120384;0.0073303827084600925
01:00:0A:00:00:00:00;1727827782;02/10/24;00:09:42;1.014;0.003;0.102;0.004886921960860491;-0.00855211354792118;0.0012217304902151227
01:00:0A:00:00:00:00;1727827783;02/10/24;00:09:43;1.015;0.01;0.103;-0.0012217304902151227;-0.010995574295520782;-0.0036651913542300463
01:00:0A:00:00:00:00;1727827784;02/10/24;00:09:44;1.014;0.014;0.104;0.004886921960860491;-0.010995574295520782;0.0024434609804302454
01:00:0A:00:00:00:00;1727827785;02/10/24;00:09:45;1.014;0.008;0.101;0.013439035043120384;-0.012217304669320583;0.00855211354792118
01:00:0A:00:00:00:00;1727827786;02/10/24;00:09:46;1.014;0.005;0.101;0.0073303827084600925;-0.009773843921720982;0.0036651913542300463
01:00:0A:00:00:00:00;1727827787;02/10/24;00:09:47;1.014;0.006;0.103;0.0012217304902151227;-0.009773843921720982;-0.0012217304902151227
01:00:0A:00:00:00:00;1727827788;02/10/24;00:09:48;1.014;0.012;0.103;0.0;-0.012217304669320583;-0.0024434609804302454
01:00:0A:00:00:00:00;1727827789;02/10/24;00:09:49;1.013;0.011;0.103;0.009773843921720982;-0.012217304669320583;0.006108652334660292
01:00:0A:00:00:00:00;1727827790;02/10/24;00:09:50;1.015;0.006;0.102;0.010995574295520782;-0.010995574295520782;0.006108652334660292
01:00:0A:00:00:00:00;1727827791;02/10/24;00:09:51;1.014;0.005;0.101;0.0036651913542300463;-0.009773843921720982;0.0012217304902151227
01:00:0A:00:00:00:00;1727827792;02/10/24;00:09:52;1.014;0.008;0.103;0.0;-0.009773843921720982;-0.0024434609804302454
01:00:0A:00:00:00:00;1727827793;02/10/24;00:09:53;1.014;0.012;0.102;0.006108652334660292;-0.013439035043120384;0.0024434609804302454
01:00:0A:00:00:00:00;1727827794;02/10/24;00:09:54;1.013;0.009;0.102;0.014660765416920185;-0.010995574295520782;0.009773843921720982
01:00:0A:00:00:00:00;1727827795;02/10/24;00:09:55;1.015;0.005;0.102;0.006108652334660292;-0.010995574295520782;0.0024434609804302454
01:00:0A:00:00:00:00;1727827795;02/10/24;00:09:55;1.013;0.007;0.101;0.0012217304902151227;-0.009773843921720982;-0.0024434609804302454
01:00:0A:00:00:00:00;1727827796;02/10/24;00:09:56;1.013;0.01;0.103;0.0024434609804302454;-0.012217304669320583;0.0
01:00:0A:00:00:00:00;1727827797;02/10/24;00:09:57;1.014;0.01;0.101;0.009773843921720982;-0.012217304669320583;0.004886921960860491
01:00:0A:00:00:00:00;1727827798;02/10/24;00:09:58;1.014;0.006;0.101;0.012217304669320583;-0.010995574295520782;0.0073303827084600925
01:00:0A:00:00:00:00;1727827799;02/10/24;00:09:59;1.014;0.006;0.1;0.0012217304902151227;-0.009773843921720982;-0.0012217304902151227
01:00:0A:00:00:00:00;1727827800;02/10/24;00:10:00;1.014;0.01;0.103;0.0012217304902151227;-0.009773843921720982;-0.0012217304902151227
01:00:0A:00:00:00:00;1727827801;02/10/24;00:10:01;1.014;0.012;0.101;0.006108652334660292;-0.012217304669320583;0.0024434609804302454
01:00:0A:00:00:00:00;1727827802;02/10/24;00:10:02;1.015;0.008;0.1;0.013439035043120384;-0.012217304669320583;0.0073303827084600925
01:00:0A:00:00:00:00;1727827803;02/10/24;00:10:03;1.013;0.005;0.101;0.0073303827084600925;-0.009773843921720982;0.0024434609804302454
01:00:0A:00:00:00:00;1727827804;02/10/24;00:10:04;1.014;0.009;0.101;-0.0012217304902151227;-0.010995574295520782;-0.0036651913542300463
01:00:0A:00:00:00:00;1727827805;02/10/24;00:10:05;1.013;0.012;0.103;0.004886921960860491;-0.010995574295520782;0.0024434609804302454
01:00:0A:00:00:00:00;1727827806;02/10/24;00:10:06;1.014;0.01;0.102;0.010995574295520782;-0.013439035043120384;0.004886921960860491
01:00:0A:00:00:00:00;1727827807;02/10/24;00:10:07;1.014;0.006;0.1;0.00855211354792118;-0.010995574295520782;0.004886921960860491
01:00:0A:00:00:00:00;1727827808;02/10/24;00:10:08;1.013;0.007;0.1;0.0024434609804302454;-0.009773843921720982;-0.0012217304902151227
01:00:0A:00:00:00:00;1727827809;02/10/24;00:10:09;1.014;0.011;0.102;-0.0012217304902151227;-0.010995574295520782;-0.0024434609804302454
01:00:0A:00:00:00:00;1727827810;02/10/24;00:10:10;1.014;0.012;0.102;0.0073303827084600925;-0.010995574295520782;0.004886921960860491
01:00:0A:00:00:00:00;1727827811;02/10/24;00:10:11;1.015;0.008;0.101;0.010995574295520782;-0.012217304669320583;0.0073303827084600925
01:00:0A:00:00:00:00;1727827812;02/10/24;00:10:12;1.014;0.007;0.1;0.0073303827084600925;-0.009773843921720982;0.0036651913542300463
01:00:0A:00:00:00:00;1727827813;02/10/24;00:10:13;1.014;0.008;0.102;-0.0012217304902151227;-0.009773843921720982;-0.0036651913542300463
01:00:0A:00:00:00:00;1727827814;02/10/24;00:10:14;1.014;0.012;0.103;0.0036651913542300463;-0.012217304669320583;0.0
01:00:0A:00:00:00:00;1727827815;02/10/24;00:10:15;1.014;0.01;0.101;0.010995574295520782;-0.010995574295520782;0.004886921960860491
01:00:0A:00:00:00:00;1727827816;02/10/24;00:10:16;1.015;0.008;0.1;0.009773843921720982;-0.013439035043120384;0.006108652334660292
01:00:0A:00:00:00:00;1727827817;02/10/24;00:10:17;1.014;0.007;0.1;0.004886921960860491;-0.00855211354792118;0.0012217304902151227
01:00:0A:00:00:00:00;1727827818;02/10/24;00:10:18;1.014;0.011;0.102;0.0;-0.010995574295520782;-0.0012217304902151227
01:00:0A:00:00:00:00;1727827819;02/10/24;00:10:19;1.015;0.014;0.103;0.006108652334660292;-0.010995574295520782;0.0024434609804302454
01:00:0A:00:00:00:00;1727827820;02/10/24;00:10:20;1.014;0.01;0.102;0.012217304669320583;-0.012217304669320583;0.0073303827084600925
01:00:0A:00:00:00:00;1727827821;02/10/24;00:10:21;1.014;0.006;0.099;0.006108652334660292;-0.010995574295520782;0.0024434609804302454
01:00:0A:00:00:00:00;1727827822;02/10/24;00:10:22;1.015;0.009;0.101;0.0012217304902151227;-0.00855211354792118;-0.0012217304902151227
01:00:0A:00:00:00:00;1727827823;02/10/24;00:10:23;1.014;0.013;0.102;0.0024434609804302454;-0.010995574295520782;0.0
01:00:0A:00:00:00:00;1727827824;02/10/24;00:10:24;1.014;0.011;0.101;0.010995574295520782;-0.012217304669320583;0.006108652334660292
01:00:0A:00:00:00:00;1727827825;02/10/24;00:10:25;1.014;0.007;0.099;0.00855211354792118;-0.010995574295520782;0.004886921960860491
01:00:0A:00:00:00:00;1727827826;02/10/24;00:10:26;1.014;0.008;0.1;0.0024434609804302454;-0.010995574295520782;0.0
01:00:0A:00:00:00:00;1727827827;02/10/24;00:10:27;1.014;0.011;0.102;0.0036651913542300463;-0.009773843921720982;0.0012217304902151227
01:00:0A:00:00:00:00;1727827828;02/10/24;00:10:28;1.014;0.011;0.101;0.0073303827084600925;-0.013439035043120384;0.0036651913542300463
01:00:0A:00:00:00:00;1727827829;02/10/24;00:10:29;1.014;0.006;0.099;0.00855211354792118;-0.010995574295520782;0.004886921960860491
01:00:0A:00:00:00:00;1727827830;02/10/24;00:10:30;1.014;0.008;0.1;0.0024434609804302454;-0.009773843921720982;-0.0012217304902151227
01:00:0A:00:00:00:00;1727827831;02/10/24;00:10:31;1.013;0.009;0.1;0.004886921960860491;-0.009773843921720982;0.0024434609804302454
01:00:0A:00:00:00:00;1727827832;02/10/24;00:10:32;1.013;0.008;0.102;0.0073303827084600925;-0.010995574295520782;0.004886921960860491
01:00:0A:00:00:00:00;1727827833;02/10/24;00:10:33;1.014;0.009;0.099;0.004886921960860491;-0.012217304669320583;0.0012217304902151227
01:00:0A:00:00:00:00;1727827834;02/10/24;00:10:34;1.014;0.008;0.099;0.0073303827084600925;-0.010995574295520782;0.0036651913542300463
01:00:0A:00:00:00:00;1727827835;02/10/24;00:10:35;1.014;0.01;0.102;0.0036651913542300463;-0.010995574295520782;0.0012217304902151227
01:00:0A:00:00:00:00;1727827836;02/10/24;00:10:36;1.015;0.008;0.1;0.0073303827084600925;-0.010995574295520782;0.0036651913542300463
01:00:0A:00:00:00:00;1727827837;02/10/24;00:10:37;1.013;0.009;0.1;0.0036651913542300463;-0.010995574295520782;0.0012217304902151227
01:00:0A:00:00:00:00;1727827838;02/10/24;00:10:38;1.015;0.01;0.099;0.00855211354792118;-0.012217304669320583;0.0036651913542300463
01:00:0A:00:00:00:00;1727827839;02/10/24;00:10:39;1.014;0.007;0.099;0.006108652334660292;-0.009773843921720982;0.0024434609804302454
01:00:0A:00:00:00:00;1727827840;02/10/24;00:10:40;1.015;0.009;0.101;0.004886921960860491;-0.010995574295520782;0.0012217304902151227
01:00:0A:00:00:00:00;1727827841;02/10/24;00:10:41;1.014;0.009;0.101;0.00855211354792118;-0.010995574295520782;0.004886921960860491
01:00:0A:00:00:00:00;1727827842;02/10/24;00:10:42;1.015;0.009;0.099;0.0036651913542300463;-0.012217304669320583;0.0
01:00:0A:00:00:00:00;1727827843;02/10/24;00:10:43;1.014;0.01;0.099;0.0073303827084600925;-0.010995574295520782;0.0036651913542300463
01:00:0A:00:00:00:00;1727827844;02/10/24;00:10:44;1.015;0.007;0.101;0.004886921960860491;-0.010995574295520782;0.0012217304902151227
01:00:0A:00:00:00:00;1727827845;02/10/24;00:10:45;1.014;0.01;0.101;0.0036651913542300463;-0.010995574295520782;0.0012217304902151227
01:00:0A:00:00:00:00;1727827846;02/10/24;00:10:46;1.014;0.01;0.101;0.009773843921720982;-0.010995574295520782;0.006108652334660292
01:00:0A:00:00:00:00;1727827847;02/10/24;00:10:47;1.014;0.009;0.1;0.004886921960860491;-0.012217304669320583;0.0
01:00:0A:00:00:00:00;1727827848;02/10/24;00:10:48;1.014;0.008;0.099;0.0073303827084600925;-0.010995574295520782;0.004886921960860491
01:00:0A:00:00:00:00;1727827849;02/10/24;00:10:49;1.015;0.01;0.1;0.0024434609804302454;-0.009773843921720982;0.0
01:00:0A:00:00:00:00;1727827850;02/10/24;00:10:50;1.014;0.009;0.1;0.0073303827084600925;-0.010995574295520782;0.0036651913542300463
01:00:0A:00:00:00:00;1727827851;02/10/24;00:10:51;1.015;0.008;0.1;0.004886921960860491;-0.010995574295520782;0.0024434609804302454
01:00:0A:00:00:00:00;1727827852;02/10/24;00:10:52;1.015;0.01;0.099;0.004886921960860491;-0.012217304669320583;0.0012217304902151227
01:00:0A:00:00:00:00;1727827853;02/10/24;00:10:53;1.013;0.009;0.1;0.00855211354792118;-0.009773843921720982;0.004886921960860491
01:00:0A:00:00:00:00;1727827854;02/10/24;00:10:54;1.014;0.009;0.1;0.0036651913542300463;-0.010995574295520782;0.0
01:00:0A:00:00:00:00;1727827855;02/10/24;00:10:55;1.016;0.01;0.1;0.0073303827084600925;-0.010995574295520782;0.0036651913542300463
01:00:0A:00:00:00:00;1727827856;02/10/24;00:10:56;1.014;0.008;0.1;0.004886921960860491;-0.010995574295520782;0.0012217304902151227
01:00:0A:00:00:00:00;1727827857;02/10/24;00:10:57;1.014;0.011;0.099;0.004886921960860491;-0.010995574295520782;0.0024434609804302454
01:00:0A:00:00:00:00;1727827858;02/10/24;00:10:58;1.014;0.007;0.1;0.0073303827084600925;-0.010995574295520782;0.0036651913542300463
01:00:0A:00:00:00:00;1727827859;02/10/24;00:10:59;1.014;0.01;0.1;0.0024434609804302454;-0.010995574295520782;0.0
01:00:0A:00:00:00:00;1727827860;02/10/24;00:11:00;1.014;0.01;0.101;0.0073303827084600925;-0.010995574295520782;0.0036651913542300463
01:00:0A:00:00:00:00;1727827861;02/10/24;00:11:01;1.014;0.008;0.1;0.006108652334660292;-0.010995574295520782;0.0024434609804302454
01:00:0A:00:00:00:00;1727827862;02/10/24;00:11:02;1.014;0.01;0.1;0.004886921960860491;-0.010995574295520782;0.0012217304902151227
01:00:0A:00:00:00:00;1727827863;02/10/24;00:11:03;1.015;0.008;0.101;0.006108652334660292;-0.009773843921720982;0.0024434609804302454
01:00:0A:00:00:00:00;1727827864;02/10/24;00:11:04;1.013;0.009;0.1;0.004886921960860491;-0.010995574295520782;0.0012217304902151227
01:00:0A:00:00:00:00;1727827865;02/10/24;00:11:05;1.014;0.008;0.1;0.0073303827084600925;-0.010995574295520782;0.0036651913542300463
01:00:0A:00:00:00:00;1727827866;02/10/24;00:11:06;1.014;0.009;0.1;0.0036651913542300463;-0.010995574295520782;0.0012217304902151227
01:00:0A:00:00:00:00;1727827867;02/10/24;00:11:07;1.015;0.009;0.1;0.0073303827084600925;-0.010995574295520782;0.0036651913542300463
01:00:0A:00:00:00:00;1727827868;02/10/24;00:11:08;1.014;0.008;0.099;0.0036651913542300463;-0.009773843921720982;0.0012217304902151227
01:00:0A:00:00:00:00;1727827869;02/10/24;00:11:09;1.014;0.009;0.1;0.0073303827084600925;-0.012217304669320583;0.0036651913542300463
01:00:0A:00:00:00:00;1727827870;02/10/24;00:11:10;1.014;0.008;0.1;0.006108652334660292;-0.010995574295520782;0.0024434609804302454
01:00:0A:00:00:00:00;1727827871;02/10/24;00:11:11;1.015;0.01;0.099;0.0036651913542300463;-0.010995574295520782;0.0012217304902151227
01:00:0A:00:00:00:00;1727827872;02/10/24;00:11:12;1.015;0.009;0.1;0.0073303827084600925;-0.010995574295520782;0.004886921960860491
01:00:0A:00:00:00:00;1727827873;02/10/24;00:11:13;1.013;0.008;0.1;0.0024434609804302454;-0.009773843921720982;-0.0012217304902151227
01:00:0A:00:00:00:00;1727827874;02/10/24;00:11:14;1.015;0.01;0.1;0.0073303827084600925;-0.012217304669320583;0.0024434609804302454
01:00:0A:00:00:00:00;1727827875;02/10/24;00:11:15;1.014;0.007;0.101;0.006108652334660292;-0.010995574295520782;0.0036651913542300463
01:00:0A:00:00:00:00;1727827876;02/10/24;00:11:16;1.015;0.01;0.1;0.0036651913542300463;-0.010995574295520782;0.0
01:00:0A:00:00:00:00;1727827877;02/10/24;00:11:17;1.014;0.009;0.1;0.00855211354792118;-0.009773843921720982;0.004886921960860491
01:00:0A:00:00:00:00;1727827878;02/10/24;00:11:18;1.013;0.01;0.101;0.004886921960860491;-0.010995574295520782;0.0012217304902151227
01:00:0A:00:00:00:00;1727827879;02/10/24;00:11:19;1.014;0.008;0.099;0.00855211354792118;-0.010995574295520782;0.004886921960860491
01:00:0A:00:00:00:00;1727827880;02/10/24;00:11:20;1.014;0.009;0.1;0.0036651913542300463;-0.010995574295520782;0.0012217304902151227
01:00:0A:00:00:00:00;1727827881;02/10/24;00:11:21;1.015;0.009;0.1;0.0073303827084600925;-0.010995574295520782;0.0036651913542300463
01:00:0A:00:00:00:00;1727827882;02/10/24;00:11:22;1.015;0.008;0.101;0.006108652334660292;-0.010995574295520782;0.0024434609804302454
01:00:0A:00:00:00:00;1727827883;02/10/24;00:11:23;1.014;0.011;0.1;0.0036651913542300463;-0.010995574295520782;0.0012217304902151227
01:00:0A:00:00:00:00;1727827884;02/10/24;00:11:24;1.014;0.009;0.1;0.009773843921720982;-0.010995574295520782;0.006108652334660292
01:00:0A:00:00:00:00;1727827885;02/10/24;00:11:25;1.015;0.008;0.099;0.004886921960860491;-0.009773843921720982;0.0012217304902151227
01:00:0A:00:00:00:00;1727827886;02/10/24;00:11:26;1.013;0.01;0.1;0.004886921960860491;-0.010995574295520782;0.0024434609804302454
01:00:0A:00:00:00:00;1727827887;02/10/24;00:11:27;1.014;0.008;0.101;0.0073303827084600925;-0.010995574295520782;0.0036651913542300463
01:00:0A:00:00:00:00;1727827888;02/10/24;00:11:28;1.013;0.01;0.1;0.004886921960860491;-0.012217304669320583;0.0012217304902151227
01:00:0A:00:00:00:00;1727827889;02/10/24;00:11:29;1.014;0.008;0.099;0.0073303827084600925;-0.010995574295520782;0.0036651913542300463
01:00:0A:00:00:00:00;1727827890;02/10/24;00:11:30;1.014;0.01;0.101;0.004886921960860491;-0.010995574295520782;0.0024434609804302454
01:00:0A:00:00:00:00;1727827891;02/10/24;00:11:31;1.013;0.01;0.1;0.004886921960860491;-0.009773843921720982;0.0012217304902151227
01:00:0A:00:00:00:00;1727827892;02/10/24;00:11:32;1.014;0.01;0.101;0.004886921960860491;-0.010995574295520782;0.0024434609804302454
01:00:0A:00:00:00:00;1727827893;02/10/24;00:11:33;1.015;0.01;0.099;0.004886921960860491;-0.010995574295520782;0.0024434609804302454
01:00:0A:00:00:00:00;1727827894;02/10/24;00:11:34;1.014;0.008;0.101;0.006108652334660292;-0.010995574295520782;0.0024434609804302454
01:00:0A:00:00:00:00;1727827895;02/10/24;00:11:35;1.016;0.009;0.099;0.006108652334660292;-0.010995574295520782;0.0024434609804302454
01:00:0A:00:00:00:00;1727827896;02/10/24;00:11:36;1.014;0.008;0.1;0.006108652334660292;-0.010995574295520782;0.0024434609804302454
01:00:0A:00:00:00:00;1727827897;02/10/24;00:11:37;1.014;0.009;0.101;0.006108652334660292;-0.010995574295520782;0.0024434609804302454
01:00:0A:00:00:00:00;1727827898;02/10/24;00:11:38;1.015;0.008;0.101;0.006108652334660292;-0.010995574295520782;0.0024434609804302454
01:00:0A:00:00:00:00;1727827899;02/10/24;00:11:39;1.013;0.009;0.1;0.006108652334660292;-0.009773843921720982;0.0024434609804302454
01:00:0A:00:00:00:00;1727827900;02/10/24;00:11:40;1.014;0.008;0.1;0.006108652334660292;-0.010995574295520782;0.0024434609804302454
01:00:0A:00:00:00:00;1727827901;02/10/24;00:11:41;1.014;0.009;0.099;0.006108652334660292;-0.010995574295520782;0.0024434609804302454
01:00:0A:00:00:00:00;1727827902;02/10/24;00:11:42;1.015;0.01;0.1;0.006108652334660292;-0.012217304669320583;0.0024434609804302454
01:00:0A:00:00:00:00;1727827903;02/10/24;00:11:43;1.014;0.008;0.098;0.006108652334660292;-0.010995574295520782;0.0024434609804302454
01:00:0A:00:00:00:00;1727827904;02/10/24;00:11:44;1.014;0.009;0.1;0.006108652334660292;-0.009773843921720982;0.0024434609804302454
01:00:0A:00:00:00:00;1727827905;02/10/24;00:11:45;1.014;0.009;0.1;0.006108652334660292;-0.010995574295520782;0.0024434609804302454
01:00:0A:00:00:00:00;1727827906;02/10/24;00:11:46;1.013;0.009;0.101;0.006108652334660292;-0.010995574295520782;0.0024434609804302454
01:00:0A:00:00:00:00;1727827907;02/10/24;00:11:47;1.014;0.009;0.099;0.004886921960860491;-0.012217304669320583;0.0024434609804302454
01:00:0A:00:00:00:00;1727827908;02/10/24;00:11:48;1.014;0.008;0.099;0.006108652334660292;-0.010995574295520782;0.0024434609804302454
01:00:0A:00:00:00:00;1727827909;02/10/24;00:11:49;1.014;0.009;0.099;0.006108652334660292;-0.009773843921720982;0.0024434609804302454
01:00:0A:00:00:00:00;1727827910;02/10/24;00:11:50;1.014;0.009;0.1;0.004886921960860491;-0.010995574295520782;0.0024434609804302454
01:00:0A:00:00:00:00;1727827911;02/10/24;00:11:51;1.014;0.008;0.1;0.006108652334660292;-0.010995574295520782;0.0024434609804302454
01:00:0A:00:00:00:00;1727827912;02/10/24;00:11:52;1.014;0.01;0.099;0.006108652334660292;-0.012217304669320583;0.0024434609804302454
01:00:0A:00:00:00:00;1727827913;02/10/24;00:11:53;1.014;0.009;0.099;0.006108652334660292;-0.010995574295520782;0.0024434609804302454
01:00:0A:00:00:00:00;1727827914;02/10/24;00:11:54;1.013;0.009;0.099;0.006108652334660292;-0.010995574295520782;0.0024434609804302454
01:00:0A:00:00:00:00;1727827915;02/10/24;00:11:55;1.014;0.009;0.099;0.006108652334660292;-0.010995574295520782;0.0024434609804302454
01:00:0A:00:00:00:00;1727827916;02/10/24;00:11:56;1.015;0.009;0.099;0.004886921960860491;-0.010995574295520782;0.0024434609804302454
01:00:0A:00:00:00:00;1727827917;02/10/24;00:11:57;1.015;0.008;0.099;0.006108652334660292;-0.010995574295520782;0.0024434609804302454
01:00:0A:00:00:00:00;1727827918;02/10/24;00:11:58;1.014;0.009;0.099;0.004886921960860491;-0.010995574295520782;0.0024434609804302454
01:00:0A:00:00:00:00;1727827919;02/10/24;00:11:59;1.014;0.009;0.099;0.006108652334660292;-0.010995574295520782;0.0024434609804302454
01:00:0A:00:00:00:00;1727827920;02/10/24;00:12:00;1.014;0.01;0.1;0.006108652334660292;-0.012217304669320583;0.0024434609804302454
01:00:0A:00:00:00:00;1727827921;02/10/24;00:12:01;1.014;0.009;0.099;0.006108652334660292;-0.010995574295520782;0.0024434609804302454
01:00:0A:00:00:00:00;1727827922;02/10/24;00:12:02;1.015;0.009;0.1;0.004886921960860491;-0.010995574295520782;0.0024434609804302454
01:00:0A:00:00:00:00;1727827923;02/10/24;00:12:03;1.014;0.009;0.1;0.006108652334660292;-0.009773843921720982;0.0024434609804302454
01:00:0A:00:00:00:00;1727827924;02/10/24;00:12:04;1.014;0.008;0.101;0.006108652334660292;-0.010995574295520782;0.0024434609804302454
01:00:0A:00:00:00:00;1727827925;02/10/24;00:12:05;1.013;0.008;0.101;0.004886921960860491;-0.010995574295520782;0.0024434609804302454
01:00:0A:00:00:00:00;1727827926;02/10/24;00:12:06;1.013;0.009;0.1;0.006108652334660292;-0.010995574295520782;0.0024434609804302454
01:00:0A:00:00:00:00;1727827927;02/10/24;00:12:07;1.013;0.009;0.099;0.006108652334660292;-0.010995574295520782;0.0024434609804302454
01:00:0A:00:00:00:00;1727827928;02/10/24;00:12:08;1.014;0.009;0.1;0.006108652334660292;-0.010995574295520782;0.0024434609804302454
01:00:0A:00:00:00:00;1727827929;02/10/24;00:12:09;1.014;0.009;0.099;0.006108652334660292;-0.010995574295520782;0.0024434609804302454
01:00:0A:00:00:00:00;1727827930;02/10/24;00:12:10;1.014;0.01;0.099;0.006108652334660292;-0.010995574295520782;0.0024434609804302454
01:00:0A:00:00:00:00;1727827931;02/10/24;00:12:11;1.015;0.009;0.1;0.004886921960860491;-0.010995574295520782;0.0024434609804302454
01:00:0A:00:00:00:00;1727827932;02/10/24;00:12:12;1.015;0.009;0.099;0.006108652334660292;-0.010995574295520782;0.0024434609804302454
01:00:0A:00:00:00:00;1727827933;02/10/24;00:12:13;1.014;0.009;0.101;0.006108652334660292;-0.010995574295520782;0.0024434609804302454
01:00:0A:00:00:00:00;1727827934;02/10/24;00:12:14;1.014;0.008;0.1;0.006108652334660292;-0.010995574295520782;0.0024434609804302454
01:00:0A:00:00:00:00;1727827935;02/10/24;00:12:15;1.014;0.01;0.098;0.006108652334660292;-0.010995574295520782;0.0024434609804302454
01:00:0A:00:00:00:00;1727827936;02/10/24;00:12:16;1.014;0.01;0.099;0.006108652334660292;-0.010995574295520782;0.0024434609804302454
01:00:0A:00:00:00:00;1727827937;02/10/24;00:12:17;1.013;0.009;0.1;0.006108652334660292;-0.010995574295520782;0.0024434609804302454
01:00:0A:00:00:00:00;1727827938;02/10/24;00:12:18;1.014;0.01;0.1;0.006108652334660292;-0.010995574295520782;0.0024434609804302454
01:00:0A:00:00:00:00;1727827939;02/10/24;00:12:19;1.014;0.009;0.099;0.006108652334660292;-0.010995574295520782;0.0024434609804302454
01:00:0A:00:00:00:00;1727827940;02/10/24;00:12:20;1.013;0.009;0.099;0.006108652334660292;-0.010995574295520782;0.0024434609804302454
01:00:0A:00:00:00:00;1727827941;02/10/24;00:12:21;1.015;0.01;0.099;0.006108652334660292;-0.010995574295520782;0.0024434609804302454
01:00:0A:00:00:00:00;1727827942;02/10/24;00:12:22;1.014;0.009;0.099;0.006108652334660292;-0.010995574295520782;0.0024434609804302454
01:00:0A:00:00:00:00;1727827943;02/10/24;00:12:23;1.014;0.009;0.099;0.006108652334660292;-0.010995574295520782;0.0024434609804302454
01:00:0A:00:00:00:00;1727827944;02/10/24;00:12:24;1.014;0.009;0.098;0.006108652334660292;-0.010995574295520782;0.0024434609804302454
01:00:0A:00:00:00:00;1727827945;02/10/24;00:12:25;1.014;0.008;0.1;0.006108652334660292;-0.010995574295520782;0.0024434609804302454
01:00:0A:00:00:00:00;1727827946;02/10/24;00:12:26;1.014;0.009;0.099;0.006108652334660292;-0.010995574295520782;0.0024434609804302454
01:00:0A:00:00:00:00;1727827947;02/10/24;00:12:27;1.015;0.008;0.1;0.006108652334660292;-0.010995574295520782;0.0024434609804302454
01:00:0A:00:00:00:00;1727827948;02/10/24;00:12:28;1.014;0.009;0.099;0.006108652334660292;-0.012217304669320583;0.0024434609804302454
01:00:0A:00:00:00:00;1727827949;02/10/24;00:12:29;1.015;0.008;0.099;0.006108652334660292;-0.010995574295520782;0.0024434609804302454
01:00:0A:00:00:00:00;1727827950;02/10/24;00:12:30;1.014;0.008;0.1;0.004886921960860491;-0.010995574295520782;0.0024434609804302454
01:00:0A:00:00:00:00;1727827951;02/10/24;00:12:31;1.014;0.009;0.099;0.006108652334660292;-0.010995574295520782;0.0024434609804302454
01:00:0A:00:00:00:00;1727827952;02/10/24;00:12:32;1.015;0.01;0.1;0.006108652334660292;-0.010995574295520782;0.0024434609804302454
01:00:0A:00:00:00:00;1727827953;02/10/24;00:12:33;1.014;0.01;0.098;0.006108652334660292;-0.010995574295520782;0.0024434609804302454
01:00:0A:00:00:00:00;1727827954;02/10/24;00:12:34;1.014;0.008;0.099;0.006108652334660292;-0.010995574295520782;0.0024434609804302454
01:00:0A:00:00:00:00;1727827955;02/10/24;00:12:35;1.014;0.01;0.099;0.006108652334660292;-0.010995574295520782;0.0024434609804302454
01:00:0A:00:00:00:00;1727827956;02/10/24;00:12:36;1.014;0.01;0.098;0.006108652334660292;-0.010995574295520782;0.0024434609804302454
01:00:0A:00:00:00:00;1727827957;02/10/24;00:12:37;1.014;0.009;0.099;0.004886921960860491;-0.010995574295520782;0.0024434609804302454
01:00:0A:00:00:00:00;1727827958;02/10/24;00:12:38;1.014;0.009;0.098;0.006108652334660292;-0.012217304669320583;0.0024434609804302454
01:00:0A:00:00:00:00;1727827959;02/10/24;00:12:39;1.015;0.009;0.099;0.004886921960860491;-0.010995574295520782;0.0024434609804302454
01:00:0A:00:00:00:00;1727827960;02/10/24;00:12:40;1.014;0.01;0.1;0.006108652334660292;-0.010995574295520782;0.0024434609804302454
01:00:0A:00:00:00:00;1727827961;02/10/24;00:12:41;1.014;0.009;0.099;0.004886921960860491;-0.010995574295520782;0.0024434609804302454
01:00:0A:00:00:00:00;1727827962;02/10/24;00:12:42;1.014;0.009;0.099;0.006108652334660292;-0.012217304669320583;0.0024434609804302454
01:00:0A:00:00:00:00;1727827963;02/10/24;00:12:43;1.014;0.009;0.098;0.004886921960860491;-0.010995574295520782;0.0024434609804302454
01:00:0A:00:00:00:00;1727827964;02/10/24;00:12:44;1.014;0.008;0.1;0.006108652334660292;-0.010995574295520782;0.0024434609804302454
01:00:0A:00:00:00:00;1727827965;02/10/24;00:12:45;1.015;0.009;0.099;0.006108652334660292;-0.010995574295520782;0.0024434609804302454
01:00:0A:00:00:00:00;1727827966;02/10/24;00:12:46;1.015;0.009;0.1;0.004886921960860491;-0.010995574295520782;0.0024434609804302454
01:00:0A:00:00:00:00;1727827967;02/10/24;00:12:47;1.014;0.009;0.099;0.006108652334660292;-0.010995574295520782;0.0024434609804302454
01:00:0A:00:00:00:00;1727827968;02/10/24;00:12:48;1.014;0.009;0.099;0.006108652334660292;-0.010995574295520782;0.0024434609804302454
01:00:0A:00:00:00:00;1727827969;02/10/24;00:12:49;1.014;0.009;0.1;0.006108652334660292;-0.010995574295520782;0.0024434609804302454
01:00:0A:00:00:00:00;1727827970;02/10/24;00:12:50;1.014;0.008;0.099;0.006108652334660292;-0.012217304669320583;0.0024434609804302454
01:00:0A:00:00:00:00;1727827971;02/10/24;00:12:51;1.014;0.009;0.098;0.006108652334660292;-0.010995574295520782;0.0024434609804302454
01:00:0A:00:00:00:00;1727827972;02/10/24;00:12:52;1.014;0.01;0.098;0.006108652334660292;-0.010995574295520782;0.0024434609804302454
01:00:0A:00:00:00:00;1727827973;02/10/24;00:12:53;1.014;0.009;0.099;0.006108652334660292;-0.009773843921720982;0.0024434609804302454
01:00:0A:00:00:00:00;1727827974;02/10/24;00:12:54;1.014;0.008;0.1;0.006108652334660292;-0.010995574295520782;0.0024434609804302454
01:00:0A:00:00:00:00;1727827975;02/10/24;00:12:55;1.014;0.009;0.098;0.004886921960860491;-0.010995574295520782;0.0024434609804302454
01:00:0A:00:00:00:00;1727827976;02/10/24;00:12:56;1.015;0.009;0.099;0.006108652334660292;-0.010995574295520782;0.0024434609804302454
01:00:0A:00:00:00:00;1727827977;02/10/24;00:12:57;1.015;0.009;0.098;0.006108652334660292;-0.010995574295520782;0.0024434609804302454
01:00:0A:00:00:00:00;1727827978;02/10/24;00:12:58;1.014;0.009;0.101;0.006108652334660292;-0.010995574295520782;0.0024434609804302454
01:00:0A:00:00:00:00;1727827979;02/10/24;00:12:59;1.013;0.008;0.1;0.004886921960860491;-0.010995574295520782;0.0024434609804302454
01:00:0A:00:00:00:00;1727827980;02/10/24;00:13:00;1.014;0.009;0.099;0.006108652334660292;-0.010995574295520782;0.0024434609804302454
01:00:0A:00:00:00:00;1727827981;02/10/24;00:13:01;1.014;0.009;0.099;0.006108652334660292;-0.010995574295520782;0.0024434609804302454
01:00:0A:00:00:00:00;1727827982;02/10/24;00:13:02;1.014;0.009;0.098;0.006108652334660292;-0.010995574295520782;0.0024434609804302454
01:00:0A:00:00:00:00;1727827983;02/10/24;00:13:03;1.013;0.01;0.1;0.004886921960860491;-0.010995574295520782;0.0024434609804302454
01:00:0A:00:00:00:00;1727827984;02/10/24;00:13:04;1.015;0.009;0.099;0.006108652334660292;-0.010995574295520782;0.0024434609804302454
01:00:0A:00:00:00:00;1727827985;02/10/24;00:13:05;1.016;0.01;0.099;0.006108652334660292;-0.010995574295520782;0.0024434609804302454
01:00:0A:00:00:00:00;1727827986;02/10/24;00:13:06;1.014;0.009;0.099;0.004886921960860491;-0.010995574295520782;0.0024434609804302454
01:00:0A:00:00:00:00;1727827987;02/10/24;00:13:07;1.015;0.01;0.098;0.006108652334660292;-0.010995574295520782;0.0024434609804302454
01:00:0A:00:00:00:00;1727827988;02/10/24;00:13:08;1.014;0.009;0.099;0.006108652334660292;-0.010995574295520782;0.0024434609804302454
01:00:0A:00:00:00:00;1727827989;02/10/24;00:13:09;1.014;0.009;0.099;0.006108652334660292;-0.010995574295520782;0.0024434609804302454
01:00:0A:00:00:00:00;1727827990;02/10/24;00:13:10;1.014;0.009;0.099;0.004886921960860491;-0.010995574295520782;0.0024434609804302454
01:00:0A:00:00:00:00;1727827991;02/10/24;00:13:11;1.015;0.007;0.099;0.006108652334660292;-0.010995574295520782;0.0024434609804302454
01:00:0A:00:00:00:00;1727827992;02/10/24;00:13:12;1.014;0.009;0.099;0.006108652334660292;-0.010995574295520782;0.0024434609804302454
01:00:0A:00:00:00:00;1727827993;02/10/24;00:13:13;1.014;0.009;0.1;0.006108652334660292;-0.010995574295520782;0.0024434609804302454
01:00:0A:00:00:00:00;1727827994;02/10/24;00:13:14;1.015;0.008;0.099;0.006108652334660292;-0.012217304669320583;0.0024434609804302454
01:00:0A:00:00:00:00;1727827995;02/10/24;00:13:15;1.015;0.009;0.099;0.006108652334660292;-0.010995574295520782;0.0024434609804302454
01:00:0A:00:00:00:00;1727827996;02/10/24;00:13:16;1.013;0.009;0.099;0.006108652334660292;-0.010995574295520782;0.0024434609804302454
01:00:0A:00:00:00:00;1727827997;02/10/24;00:13:17;1.014;0.008;0.099;0.006108652334660292;-0.010995574295520782;0.0024434609804302454
01:00:0A:00:00:00:00;1727827998;02/10/24;00:13:18;1.014;0.009;0.1;0.006108652334660292;-0.010995574295520782;0.0024434609804302454
01:00:0A:00:00:00:00;1727827999;02/10/24;00:13:19;1.013;0.008;0.1;0.004886921960860491;-0.010995574295520782;0.0024434609804302454
01:00:0A:00:00:00:00;1727828000;02/10/24;00:13:20;1.014;0.008;0.099;0.006108652334660292;-0.010995574295520782;0.0024434609804302454
01:00:0A:00:00:00:00;1727828001;02/10/24;00:13:21;1.014;0.008;0.1;0.006108652334660292;-0.010995574295520782;0.0024434609804302454
01:00:0A:00:00:00:00;1727828002;02/10/24;00:13:22;1.013;0.01;0.098;0.004886921960860491;-0.010995574295520782;0.0024434609804302454
01:00:0A:00:00:00:00;1727828003;02/10/24;00:13:23;1.013;0.01;0.099;0.006108652334660292;-0.010995574295520782;0.0024434609804302454
01:00:0A:00:00:00:00;1727828004;02/10/24;00:13:24;1.014;0.009;0.099;0.006108652334660292;-0.010995574295520782;0.0024434609804302454
01:00:0A:00:00:00:00;1727828005;02/10/24;00:13:25;1.015;0.009;0.1;0.006108652334660292;-0.009773843921720982;0.0024434609804302454
01:00:0A:00:00:00:00;1727828006;02/10/24;00:13:26;1.014;0.008;0.1;0.006108652334660292;-0.010995574295520782;0.0024434609804302454
01:00:0A:00:00:00:00;1727828007;02/10/24;00:13:27;1.014;0.009;0.099;0.004886921960860491;-0.010995574295520782;0.0024434609804302454
01:00:0A:00:00:00:00;1727828008;02/10/24;00:13:28;1.013;0.008;0.1;0.006108652334660292;-0.010995574295520782;0.0024434609804302454
01:00:0A:00:00:00:00;1727828009;02/10/24;00:13:29;1.015;0.01;0.099;0.006108652334660292;-0.010995574295520782;0.0024434609804302454
01:00:0A:00:00:00:00;1727828010;02/10/24;00:13:30;1.013;0.008;0.099;0.006108652334660292;-0.010995574295520782;0.0024434609804302454
01:00:0A:00:00:00:00;1727828011;02/10/24;00:13:31;1.014;0.009;0.099;0.004886921960860491;-0.010995574295520782;0.0024434609804302454
01:00:0A:00:00:00:00;1727828012;02/10/24;00:13:32;1.014;0.008;0.1;0.006108652334660292;-0.010995574295520782;0.0024434609804302454
01:00:0A:00:00:00:00;1727828013;02/10/24;00:13:33;1.013;0.009;0.098;0.006108652334660292;-0.010995574295520782;0.0024434609804302454
01:00:0A:00:00:00:00;1727828014;02/10/24;00:13:34;1.014;0.009;0.099;0.006108652334660292;-0.010995574295520782;0.0024434609804302454
01:00:0A:00:00:00:00;1727828015;02/10/24;00:13:35;1.014;0.008;0.099;0.006108652334660292;-0.010995574295520782;0.0024434609804302454
01:00:0A:00:00:00:00;1727828016;02/10/24;00:13:36;1.015;0.009;0.099;0.006108652334660292;-0.010995574295520782;0.0024434609804302454
01:00:0A:00:00:00:00;1727828017;02/10/24;00:13:37;1.014;0.01;0.099;0.004886921960860491;-0.010995574295520782;0.0024434609804302454
01:00:0A:00:00:00:00;1727828018;02/10/24;00:13:38;1.013;0.009;0.099;0.006108652334660292;-0.010995574295520782;0.0024434609804302454
01:00:0A:00:00:00:00;1727828019;02/10/24;00:13:39;1.014;0.009;0.1;0.006108652334660292;-0.010995574295520782;0.0024434609804302454
01:00:0A:00:00:00:00;1727828020;02/10/24;00:13:40;1.015;0.009;0.099;0.006108652334660292;-0.010995574295520782;0.0024434609804302454
01:00:0A:00:00:00:00;1727828021;02/10/24;00:13:41;1.013;0.008;0.1;0.006108652334660292;-0.010995574295520782;0.0024434609804302454
01:00:0A:00:00:00:00;1727828022;02/10/24;00:13:42;1.013;0.009;0.1;0.004886921960860491;-0.010995574295520782;0.0024434609804302454
01:00:0A:00:00:00:00;1727828023;02/10/24;00:13:43;1.014;0.008;0.099;0.006108652334660292;-0.010995574295520782;0.0024434609804302454
01:00:0A:00:00:00:00;1727828024;02/10/24;00:13:44;1.013;0.009;0.099;0.006108652334660292;-0.010995574295520782;0.0024434609804302454
01:00:0A:00:00:00:00;1727828025;02/10/24;00:13:45;1.014;0.009;0.099;0.006108652334660292;-0.010995574295520782;0.0024434609804302454
01:00:0A:00:00:00:00;1727828026;02/10/24;00:13:46;1.014;0.008;0.099;0.006108652334660292;-0.010995574295520782;0.0024434609804302454
01:00:0A:00:00:00:00;1727828027;02/10/24;00:13:47;1.014;0.009;0.099;0.006108652334660292;-0.010995574295520782;0.0024434609804302454
01:00:0A:00:00:00:00;1727828028;02/10/24;00:13:48;1.013;0.009;0.099;0.006108652334660292;-0.010995574295520782;0.0024434609804302454
01:00:0A:00:00:00:00;1727828029;02/10/24;00:13:49;1.013;0.009;0.1;0.006108652334660292;-0.010995574295520782;0.0024434609804302454
01:00:0A:00:00:00:00;1727828030;02/10/24;00:13:50;1.015;0.009;0.099;0.006108652334660292;-0.010995574295520782;0.0024434609804302454
01:00:0A:00:00:00:00;1727828031;02/10/24;00:13:51;1.015;0.009;0.1;0.006108652334660292;-0.010995574295520782;0.0024434609804302454
01:00:0A:00:00:00:00;1727828032;02/10/24;00:13:52;1.014;0.009;0.099;0.004886921960860491;-0.010995574295520782;0.0024434609804302454
01:00:0A:00:00:00:00;1727828033;02/10/24;00:13:53;1.015;0.009;0.099;0.004886921960860491;-0.010995574295520782;0.0024434609804302454
01:00:0A:00:00:00:00;1727828034;02/10/24;00:13:54;1.013;0.009;0.1;0.006108652334660292;-0.010995574295520782;0.0024434609804302454
01:00:0A:00:00:00:00;1727828035;02/10/24;00:13:55;1.015;0.01;0.099;0.006108652334660292;-0.010995574295520782;0.0024434609804302454
01:00:0A:00:00:00:00;1727828036;02/10/24;00:13:56;1.014;0.009;0.099;0.006108652334660292;-0.010995574295520782;0.0024434609804302454
01:00:0A:00:00:00:00;1727828037;02/10/24;00:13:57;1.013;0.008;0.099;0.006108652334660292;-0.010995574295520782;0.0024434609804302454
01:00:0A:00:00:00:00;1727828038;02/10/24;00:13:58;1.015;0.009;0.099;0.006108652334660292;-0.010995574295520782;0.0024434609804302454
01:00:0A:00:00:00:00;1727828039;02/10/24;00:13:59;1.015;0.009;0.098;0.006108652334660292;-0.010995574295520782;0.0024434609804302454
01:00:0A:00:00:00:00;1727828040;02/10/24;00:14:00;1.015;0.008;0.099;0.006108652334660292;-0.010995574295520782;0.0024434609804302454
01:00:0A:00:00:00:00;1727828041;02/10/24;00:14:01;1.014;0.009;0.099;0.006108652334660292;-0.010995574295520782;0.0024434609804302454
01:00:0A:00:00:00:00;1727828042;02/10/24;00:14:02;1.015;0.009;0.1;0.006108652334660292;-0.010995574295520782;0.0024434609804302454
01:00:0A:00:00:00:00;1727828043;02/10/24;00:14:03;1.014;0.009;0.1;0.006108652334660292;-0.010995574295520782;0.0024434609804302454
01:00:0A:00:00:00:00;1727828044;02/10/24;00:14:04;1.014;0.01;0.1;0.006108652334660292;-0.010995574295520782;0.0024434609804302454
01:00:0A:00:00:00:00;1727828045;02/10/24;00:14:05;1.014;0.01;0.098;0.006108652334660292;-0.010995574295520782;0.0024434609804302454
01:00:0A:00:00:00:00;1727828046;02/10/24;00:14:06;1.014;0.009;0.1;0.006108652334660292;-0.010995574295520782;0.0024434609804302454
01:00:0A:00:00:00:00;1727828047;02/10/24;00:14:07;1.015;0.009;0.099;0.006108652334660292;-0.010995574295520782;0.0024434609804302454
01:00:0A:00:00:00:00;1727828048;02/10/24;00:14:08;1.014;0.01;0.099;0.006108652334660292;-0.010995574295520782;0.0024434609804302454
01:00:0A:00:00:00:00;1727828049;02/10/24;00:14:09;1.014;0.009;0.099;0.006108652334660292;-0.010995574295520782;0.0024434609804302454
01:00:0A:00:00:00:00;1727828050;02/10/24;00:14:10;1.015;0.009;0.099;0.006108652334660292;-0.010995574295520782;0.0024434609804302454
01:00:0A:00:00:00:00;1727828051;02/10/24;00:14:11;1.013;0.009;0.1;0.006108652334660292;-0.010995574295520782;0.0024434609804302454
01:00:0A:00:00:00:00;1727828052;02/10/24;00:14:12;1.014;0.01;0.1;0.006108652334660292;-0.010995574295520782;0.0024434609804302454
01:00:0A:00:00:00:00;1727828053;02/10/24;00:14:13;1.014;0.008;0.1;0.006108652334660292;-0.010995574295520782;0.0024434609804302454
01:00:0A:00:00:00:00;1727828054;02/10/24;00:14:14;1.014;0.009;0.1;0.006108652334660292;-0.010995574295520782;0.0024434609804302454
01:00:0A:00:00:00:00;1727828055;02/10/24;00:14:15;1.014;0.01;0.099;0.006108652334660292;-0.010995574295520782;0.0024434609804302454
01:00:0A:00:00:00:00;1727828056;02/10/24;00:14:16;1.014;0.009;0.099;0.006108652334660292;-0.010995574295520782;0.0024434609804302454
01:00:0A:00:00:00:00;1727828057;02/10/24;00:14:17;1.014;0.009;0.099;0.004886921960860491;-0.010995574295520782;0.0024434609804302454
01:00:0A:00:00:00:00;1727828058;02/10/24;00:14:18;1.014;0.008;0.099;0.006108652334660292;-0.010995574295520782;0.0024434609804302454
01:00:0A:00:00:00:00;1727828059;02/10/24;00:14:19;1.014;0.009;0.1;0.006108652334660292;-0.010995574295520782;0.0024434609804302454
01:00:0A:00:00:00:00;1727828060;02/10/24;00:14:20;1.015;0.009;0.099;0.006108652334660292;-0.010995574295520782;0.0024434609804302454
01:00:0A:00:00:00:00;1727828061;02/10/24;00:14:21;1.014;0.009;0.099;0.006108652334660292;-0.010995574295520782;0.0024434609804302454
01:00:0A:00:00:00:00;1727828062;02/10/24;00:14:22;1.014;0.009;0.099;0.006108652334660292;-0.010995574295520782;0.0024434609804302454
01:00:0A:00:00:00:00;1727828063;02/10/24;00:14:23;1.014;0.009;0.099;0.006108652334660292;-0.010995574295520782;0.0024434609804302454
01:00:0A:00:00:00:00;1727828064;02/10/24;00:14:24;1.014;0.009;0.099;0.006108652334660292;-0.010995574295520782;0.0024434609804302454
01:00:0A:00:00:00:00;1727828065;02/10/24;00:14:25;1.014;0.009;0.1;0.006108652334660292;-0.010995574295520782;0.0024434609804302454
01:00:0A:00:00:00:00;1727828066;02/10/24;00:14:26;1.014;0.01;0.1;0.006108652334660292;-0.010995574295520782;0.0024434609804302454
01:00:0A:00:00:00:00;1727828067;02/10/24;00:14:27;1.015;0.009;0.099;0.006108652334660292;-0.010995574295520782;0.0024434609804302454
01:00:0A:00:00:00:00;1727828068;02/10/24;00:14:28;1.015;0.01;0.099;0.006108652334660292;-0.010995574295520782;0.0024434609804302454
01:00:0A:00:00:00:00;1727828069;02/10/24;00:14:29;1.015;0.009;0.099;0.006108652334660292;-0.010995574295520782;0.0024434609804302454
01:00:0A:00:00:00:00;1727828070;02/10/24;00:14:30;1.014;0.009;0.1;0.006108652334660292;-0.010995574295520782;0.0024434609804302454
01:00:0A:00:00:00:00;1727828071;02/10/24;00:14:31;1.014;0.009;0.1;0.006108652334660292;-0.010995574295520782;0.0024434609804302454
01:00:0A:00:00:00:00;1727828072;02/10/24;00:14:32;1.013;0.01;0.1;0.006108652334660292;-0.010995574295520782;0.0024434609804302454
01:00:0A:00:00:00:00;1727828073;02/10/24;00:14:33;1.014;0.009;0.099;0.006108652334660292;-0.010995574295520782;0.0024434609804302454
01:00:0A:00:00:00:00;1727828074;02/10/24;00:14:34;1.014;0.01;0.1;0.006108652334660292;-0.010995574295520782;0.0024434609804302454
01:00:0A:00:00:00:00;1727828075;02/10/24;00:14:35;1.015;0.009;0.1;0.006108652334660292;-0.010995574295520782;0.0024434609804302454
01:00:0A:00:00:00:00;1727828076;02/10/24;00:14:36;1.015;0.008;0.099;0.006108652334660292;-0.010995574295520782;0.0024434609804302454
01:00:0A:00:00:00:00;1727828077;02/10/24;00:14:37;1.014;0.008;0.099;0.004886921960860491;-0.010995574295520782;0.0024434609804302454
01:00:0A:00:00:00:00;1727828078;02/10/24;00:14:38;1.014;0.009;0.098;0.006108652334660292;-0.010995574295520782;0.0024434609804302454
01:00:0A:00:00:00:00;1727828079;02/10/24;00:14:39;1.014;0.009;0.099;0.006108652334660292;-0.010995574295520782;0.0024434609804302454
01:00:0A:00:00:00:00;1727828080;02/10/24;00:14:40;1.015;0.01;0.1;0.006108652334660292;-0.010995574295520782;0.0024434609804302454
01:00:0A:00:00:00:00;1727828081;02/10/24;00:14:41;1.014;0.009;0.099;0.006108652334660292;-0.010995574295520782;0.0024434609804302454
01:00:0A:00:00:00:00;1727828082;02/10/24;00:14:42;1.015;0.01;0.099;0.006108652334660292;-0.010995574295520782;0.0024434609804302454
01:00:0A:00:00:00:00;1727828083;02/10/24;00:14:43;1.015;0.009;0.098;0.006108652334660292;-0.010995574295520782;0.0024434609804302454
01:00:0A:00:00:00:00;1727828084;02/10/24;00:14:44;1.014;0.009;0.099;0.006108652334660292;-0.010995574295520782;0.0024434609804302454
01:00:0A:00:00:00:00;1727828085;02/10/24;00:14:45;1.016;0.01;0.1;0.006108652334660292;-0.010995574295520782;0.0024434609804302454
01:00:0A:00:00:00:00;1727828086;02/10/24;00:14:46;1.014;0.009;0.099;0.006108652334660292;-0.010995574295520782;0.0024434609804302454
01:00:0A:00:00:00:00;1727828087;02/10/24;00:14:47;1.012;0.008;0.099;0.006108652334660292;-0.010995574295520782;0.0024434609804302454
01:00:0A:00:00:00:00;1727828088;02/10/24;00:14:48;1.014;0.009;0.1;0.006108652334660292;-0.010995574295520782;0.0024434609804302454
01:00:0A:00:00:00:00;1727828089;02/10/24;00:14:49;1.014;0.009;0.1;0.006108652334660292;-0.010995574295520782;0.0024434609804302454
01:00:0A:00:00:00:00;1727828090;02/10/24;00:14:50;1.014;0.01;0.1;0.006108652334660292;-0.010995574295520782;0.0024434609804302454
01:00:0A:00:00:00:00;1727828091;02/10/24;00:14:51;1.014;0.01;0.1;0.006108652334660292;-0.010995574295520782;0.0024434609804302454
01:00:0A:00:00:00:00;1727828092;02/10/24;00:14:52;1.014;0.009;0.099;0.004886921960860491;-0.010995574295520782;0.0024434609804302454
01:00:0A:00:00:00:00;1727828093;02/10/24;00:14:53;1.014;0.009;0.099;0.004886921960860491;-0.010995574295520782;0.0024434609804302454
01:00:0A:00:00:00:00;1727828094;02/10/24;00:14:54;1.015;0.009;0.099;0.006108652334660292;-0.010995574295520782;0.0024434609804302454
01:00:0A:00:00:00:00;1727828095;02/10/24;00:14:55;1.014;0.01;0.098;0.006108652334660292;-0.010995574295520782;0.0024434609804302454
01:00:0A:00:00:00:00;1727828096;02/10/24;00:14:56;1.014;0.009;0.099;0.006108652334660292;-0.010995574295520782;0.0024434609804302454
01:00:0A:00:00:00:00;1727828097;02/10/24;00:14:57;1.014;0.009;0.099;0.006108652334660292;-0.010995574295520782;0.0024434609804302454
01:00:0A:00:00:00:00;1727828098;02/10/24;00:14:58;1.014;0.009;0.1;0.006108652334660292;-0.010995574295520782;0.0024434609804302454
