Source;Epoch timestamp (UTC);Date;Time (UTC);Accel X (G);Accel Y (G);Accel Z (G);Gyro X (rad/s);Gyro Y (rad/s);Gyro Z (rad/s)
01:00:0A:00:00:00:00;1723334405;11/08/24;00:00:05;1.0;0.072;0.151;-0.25045475363731384;0.4642575681209564;-0.05619959905743599
01:00:0A:00:00:00:00;1723334406;11/08/24;00:00:06;1.011;-0.018;0.165;-0.44715335965156555;-0.38728854060173035;-0.07941248267889023
01:00:0A:00:00:00:00;1723334407;11/08/24;00:00:07;1.014;0.072;-0.08;-0.3176499307155609;-0.0073303827084600925;-0.18814648687839508
01:00:0A:00:00:00:00;1723334408;11/08/24;00:00:08;1.06;-0.062;0.137;-0.3078760802745819;0.08185594528913498;0.2834414541721344
01:00:0A:00:00:00:00;1723334409;11/08/24;00:00:09;0.989;-0.152;-0.025;-0.0757472887635231;-0.16859880089759827;-0.10506881773471832
01:00:0A:00:00:00:00;1723334410;11/08/24;00:00:10;0.987;0.068;0.143;-0.01710422709584236;0.09162978082895279;0.05742133408784866
01:00:0A:00:00:00:00;1723334411;11/08/24;00:00:11;1.03;-0.043;0.035;-0.10262535512447357;-0.25045475363731384;0.17348572611808777
01:00:0A:00:00:00:00;1723334412;11/08/24;00:00:12;1.021;-0.06;-0.004;0.1563815027475357;0.20402899384498596;-0.12950342893600464
01:00:0A:00:00:00:00;1723334413;11/08/24;00:00:13;1.011;0.029;0.205;0.13927726447582245;0.08307767659425735;-0.0659734457731247
01:00:0A:00:00:00:00;1723334414;11/08/24;00:00:14;1.029;-0.084;0.059;0.07696902006864548;-0.1673770695924759;0.07696902006864548
01:00:0A:00:00:00:00;1723334415;11/08/24;00:00:15;1.02;-0.068;0.007;0.23945917189121246;0.09651670604944229;-0.02076941914856434
01:00:0A:00:00:00:00;1723334416;11/08/24;00:00:16;0.99;-0.02;0.143;0.24678954482078552;0.1368338167667389;0.013439035043120384
01:00:0A:00:00:00:00;1723334417;11/08/24;00:00:17;0.996;-0.072;0.042;0.1576032191514969;-0.2382374405860901;0.12095131725072861
01:00:0A:00:00:00:00;1723334418;11/08/24;00:00:18;0.998;-0.065;0.019;0.3176499307155609;0.09162978082895279;-0.09162978082895279
01:00:0A:00:00:00:00;1723334419;11/08/24;00:00:19;1.005;0.023;0.137;0.26145032048225403;-0.024434609338641167;0.06475171446800232
01:00:0A:00:00:00:00;1723334420;11/08/24;00:00:20;1.025;-0.062;0.071;0.21380282938480377;-0.08674286305904388;0.10751228034496307
01:00:0A:00:00:00:00;1723334421;11/08/24;00:00:21;1.033;-0.063;0.052;0.2932153046131134;0.0073303827084600925;-0.03176499158143997
01:00:0A:00:00:00:00;1723334422;11/08/24;00:00:22;1.015;0.028;0.094;0.25534167885780334;0.006108652334660292;-0.0073303827084600925
01:00:0A:00:00:00:00;1723334423;11/08/24;00:00:23;0.996;-0.044;0.081;0.1869247555732727;-0.080634206533432;0.14294245839118958
01:00:0A:00:00:00:00;1723334424;11/08/24;00:00:24;0.991;-0.037;0.094;0.26145032048225403;-0.042760565876960754;-0.1111774742603302
01:00:0A:00:00:00:00;1723334425;11/08/24;00:00:25;1.01;0.027;0.106;0.22357667982578278;0.02932153083384037;-0.03176499158143997
01:00:0A:00:00:00:00;1723334426;11/08/24;00:00:26;1.039;-0.051;0.081;0.1820378452539444;0.0036651913542300463;0.025656338781118393
01:00:0A:00:00:00:00;1723334427;11/08/24;00:00:27;1.044;-0.097;0.094;0.19058994948863983;-0.02932153083384037;-0.02687807008624077
01:00:0A:00:00:00:00;1723334428;11/08/24;00:00:28;1.029;0.035;0.067;0.15271630883216858;-0.009773843921720982;0.04398229718208313
01:00:0A:00:00:00:00;1723334429;11/08/24;00:00:29;1.007;-0.055;0.115;0.12461651116609573;0.09285151958465576;0.19303341209888458
01:00:0A:00:00:00:00;1723334430;11/08/24;00:00:30;0.976;0.019;0.059;0.1563815027475357;-0.06841690838336945;-0.10018189996480942
01:00:0A:00:00:00:00;1723334431;11/08/24;00:00:31;0.974;-0.006;0.036;0.13072516024112701;0.06475171446800232;0.1014036238193512
01:00:0A:00:00:00:00;1723334432;11/08/24;00:00:32;1.004;-0.069;0.08;0.15027284622192383;-0.11850785464048386;-0.10506881773471832
01:00:0A:00:00:00:00;1723334433;11/08/24;00:00:33;1.037;0.0;0.057;0.14538592100143433;-0.03420845419168472;0.025656338781118393
01:00:0A:00:00:00:00;1723334434;11/08/24;00:00:34;1.036;-0.037;0.117;0.14416420459747314;-0.018325956538319588;0.039095375686883926
01:00:0A:00:00:00:00;1723334435;11/08/24;00:00:35;1.012;-0.053;0.103;0.16249015927314758;-0.021991148591041565;-0.04398229718208313
01:00:0A:00:00:00:00;1723334436;11/08/24;00:00:36;1.007;-0.033;0.08;0.16493360698223114;0.02321287989616394;-0.030543262138962746
01:00:0A:00:00:00:00;1723334437;11/08/24;00:00:37;1.036;-0.032;0.098;0.11972958594560623;0.03298672288656235;0.09162978082895279
01:00:0A:00:00:00:00;1723334438;11/08/24;00:00:38;1.052;-0.069;0.083;0.1160643920302391;0.0;0.05742133408784866
01:00:0A:00:00:00:00;1723334439;11/08/24;00:00:39;1.01;0.03;0.044;0.11362093687057495;-0.025656338781118393;-0.02321287989616394
01:00:0A:00:00:00:00;1723334440;11/08/24;00:00:40;0.966;-0.04;0.092;0.08674286305904388;0.05253440886735916;0.1466076523065567
01:00:0A:00:00:00:00;1723334441;11/08/24;00:00:41;0.966;-0.029;0.073;0.1160643920302391;-0.13927726447582245;-0.16493360698223114
01:00:0A:00:00:00:00;1723334442;11/08/24;00:00:42;1.01;-0.001;0.063;0.08918632566928864;0.1014036238193512;0.13805554807186127
01:00:0A:00:00:00:00;1723334443;11/08/24;00:00:43;1.031;-0.108;0.17;0.08796459436416626;-0.040317103266716;-0.051312677562236786
01:00:0A:00:00:00:00;1723334444;11/08/24;00:00:44;1.016;0.02;0.035;0.08185594528913498;-0.10751228034496307;-0.07208210229873657
01:00:0A:00:00:00:00;1723334445;11/08/24;00:00:45;0.985;-0.041;0.098;0.0757472887635231;0.15882496535778046;0.16371189057826996
01:00:0A:00:00:00:00;1723334446;11/08/24;00:00:46;1.002;-0.075;0.131;0.07819075137376785;-0.20891590416431427;-0.1368338167667389
01:00:0A:00:00:00:00;1723334447;11/08/24;00:00:47;1.05;0.031;0.006;0.09285151958465576;0.08429940044879913;0.05375614017248154
01:00:0A:00:00:00:00;1723334448;11/08/24;00:00:48;1.047;-0.095;0.21;0.080634206533432;0.05619959905743599;0.05253440886735916
01:00:0A:00:00:00:00;1723334449;11/08/24;00:00:49;1.032;-0.016;-0.037;0.10262535512447357;-0.17470745742321014;-0.06475171446800232
01:00:0A:00:00:00:00;1723334450;11/08/24;00:00:50;0.98;-0.023;0.115;0.1563815027475357;0.2895500957965851;0.04642575979232788
01:00:0A:00:00:00:00;1723334451;11/08/24;00:00:51;0.989;-0.023;0.124;-0.10018189996480942;-0.2724458873271942;0.039095375686883926
01:00:0A:00:00:00:00;1723334452;11/08/24;00:00:52;1.01;-0.039;0.007;-0.02076941914856434;0.013439035043120384;0.014660765416920185
01:00:0A:00:00:00:00;1723334453;11/08/24;00:00:53;0.988;-0.018;0.135;0.030543262138962746;0.21624629199504852;-0.02076941914856434
01:00:0A:00:00:00:00;1723334454;11/08/24;00:00:54;0.981;-0.022;0.099;-0.07330382615327835;-0.14294245839118958;0.0036651913542300463
01:00:0A:00:00:00:00;1723334455;11/08/24;00:00:55;1.029;-0.028;-0.026;-0.01710422709584236;0.040317103266716;-0.00855211354792118
01:00:0A:00:00:00:00;1723334456;11/08/24;00:00:56;1.055;-0.028;0.127;-0.042760565876960754;-0.1771509200334549;-0.012217304669320583
01:00:0A:00:00:00:00;1723334457;11/08/24;00:00:57;1.067;-0.04;0.05;-0.03298672288656235;-0.11362093687057495;0.006108652334660292
01:00:0A:00:00:00:00;1723334458;11/08/24;00:00:58;1.03;-0.036;0.166;-0.0036651913542300463;0.15271630883216858;0.04764748737215996
01:00:0A:00:00:00:00;1723334459;11/08/24;00:00:59;0.975;-0.019;0.02;-0.025656338781118393;-0.14782939851284027;0.012217304669320583
01:00:0A:00:00:00:00;1723334460;11/08/24;00:01:00;0.984;-0.065;0.156;0.03298672288656235;0.2822197377681732;0.07819075137376785
01:00:0A:00:00:00:00;1723334461;11/08/24;00:01:01;0.983;-0.003;0.071;-0.05742133408784866;-0.36163222789764404;-0.12950342893600464
01:00:0A:00:00:00:00;1723334462;11/08/24;00:01:02;1.001;-0.051;0.075;0.0024434609804302454;0.24190263450145721;0.14782939851284027
01:00:0A:00:00:00:00;1723334463;11/08/24;00:01:03;0.989;-0.06;0.146;-0.0024434609804302454;-0.03176499158143997;-0.06841690838336945
01:00:0A:00:00:00:00;1723334464;11/08/24;00:01:04;1.007;0.015;0.022;-0.03298672288656235;-0.1258382350206375;-0.039095375686883926
01:00:0A:00:00:00:00;1723334465;11/08/24;00:01:05;1.02;-0.023;0.041;0.0073303827084600925;0.10384709388017654;0.07208210229873657
01:00:0A:00:00:00:00;1723334466;11/08/24;00:01:06;1.024;-0.088;0.191;0.006108652334660292;-0.03787364438176155;-0.04764748737215996
01:00:0A:00:00:00:00;1723334467;11/08/24;00:01:07;1.033;0.019;0.014;-0.009773843921720982;-0.080634206533432;-0.04153883829712868
01:00:0A:00:00:00:00;1723334468;11/08/24;00:01:08;1.0;-0.051;0.076;0.006108652334660292;0.1514945775270462;0.15027284622192383
01:00:0A:00:00:00:00;1723334469;11/08/24;00:01:09;0.98;-0.039;0.106;0.014660765416920185;-0.1368338167667389;-0.10018189996480942
01:00:0A:00:00:00:00;1723334470;11/08/24;00:01:10;0.998;0.004;0.061;-0.006108652334660292;-0.0659734457731247;0.03787364438176155
01:00:0A:00:00:00:00;1723334471;11/08/24;00:01:11;1.018;-0.067;0.116;0.02687807008624077;0.09162978082895279;0.04153883829712868
01:00:0A:00:00:00:00;1723334472;11/08/24;00:01:12;1.016;-0.034;0.134;0.025656338781118393;0.025656338781118393;-0.03420845419168472
01:00:0A:00:00:00:00;1723334473;11/08/24;00:01:13;1.018;0.0;0.018;0.009773843921720982;-0.013439035043120384;0.02321287989616394
01:00:0A:00:00:00:00;1723334474;11/08/24;00:01:14;1.017;-0.04;0.061;0.030543262138962746;0.039095375686883926;0.006108652334660292
01:00:0A:00:00:00:00;1723334475;11/08/24;00:01:15;1.017;-0.035;0.11;0.004886921960860491;-0.1368338167667389;-0.028099799528717995
01:00:0A:00:00:00:00;1723334476;11/08/24;00:01:16;1.021;-0.01;0.061;-0.0012217304902151227;-0.08429940044879913;0.013439035043120384
01:00:0A:00:00:00:00;1723334477;11/08/24;00:01:17;1.011;-0.039;0.112;0.02076941914856434;0.06841690838336945;0.04642575979232788
01:00:0A:00:00:00:00;1723334478;11/08/24;00:01:18;1.006;-0.028;0.11;0.01710422709584236;-0.004886921960860491;-0.036651913076639175
01:00:0A:00:00:00:00;1723334479;11/08/24;00:01:19;1.015;-0.01;0.052;0.006108652334660292;0.0012217304902151227;0.0036651913542300463
01:00:0A:00:00:00:00;1723334480;11/08/24;00:01:20;1.019;-0.048;0.085;0.01710422709584236;0.030543262138962746;0.00855211354792118
01:00:0A:00:00:00:00;1723334481;11/08/24;00:01:21;1.016;-0.033;0.1;0.004886921960860491;-0.025656338781118393;-0.012217304669320583
01:00:0A:00:00:00:00;1723334482;11/08/24;00:01:22;1.006;-0.021;0.061;-0.0073303827084600925;-0.02076941914856434;0.040317103266716
01:00:0A:00:00:00:00;1723334483;11/08/24;00:01:23;1.009;-0.047;0.122;0.009773843921720982;0.051312677562236786;0.021991148591041565
01:00:0A:00:00:00:00;1723334484;11/08/24;00:01:24;1.014;-0.005;0.081;-0.0073303827084600925;-0.1062905490398407;-0.07819075137376785
01:00:0A:00:00:00:00;1723334485;11/08/24;00:01:25;1.016;-0.028;0.068;0.0;0.09040805697441101;0.06841690838336945
01:00:0A:00:00:00:00;1723334486;11/08/24;00:01:26;1.007;-0.067;0.129;-0.0024434609804302454;-0.039095375686883926;-0.039095375686883926
01:00:0A:00:00:00:00;1723334487;11/08/24;00:01:27;1.013;-0.014;0.059;-0.0073303827084600925;-0.08918632566928864;-0.039095375686883926
01:00:0A:00:00:00:00;1723334488;11/08/24;00:01:28;1.007;-0.037;0.084;-0.0024434609804302454;0.08674286305904388;0.1062905490398407
01:00:0A:00:00:00:00;1723334489;11/08/24;00:01:29;0.995;-0.058;0.117;-0.006108652334660292;-0.039095375686883926;0.024434609338641167
01:00:0A:00:00:00:00;1723334490;11/08/24;00:01:30;0.999;0.0;0.071;0.00855211354792118;-0.05619959905743599;-0.04886921867728233
01:00:0A:00:00:00:00;1723334491;11/08/24;00:01:31;1.016;0.005;0.081;0.006108652334660292;0.05253440886735916;0.04398229718208313
01:00:0A:00:00:00:00;1723334492;11/08/24;00:01:32;1.026;-0.076;0.116;0.01710422709584236;-0.019547687843441963;-0.059864792972803116
01:00:0A:00:00:00:00;1723334493;11/08/24;00:01:33;1.033;-0.005;0.055;0.013439035043120384;-0.039095375686883926;-0.045204028487205505
01:00:0A:00:00:00:00;1723334494;11/08/24;00:01:34;1.022;-0.065;0.109;-0.004886921960860491;0.009773843921720982;0.08552113175392151
01:00:0A:00:00:00:00;1723334495;11/08/24;00:01:35;1.007;-0.037;0.081;0.00855211354792118;-0.08429940044879913;-0.03787364438176155
01:00:0A:00:00:00:00;1723334496;11/08/24;00:01:36;1.0;-0.002;0.078;0.012217304669320583;0.00855211354792118;0.01710422709584236
01:00:0A:00:00:00:00;1723334497;11/08/24;00:01:37;1.002;-0.036;0.103;0.006108652334660292;0.0036651913542300463;0.0354301817715168
01:00:0A:00:00:00:00;1723334498;11/08/24;00:01:38;1.013;-0.024;0.083;0.019547687843441963;-0.05009094998240471;-0.06230825558304787
01:00:0A:00:00:00:00;1723334499;11/08/24;00:01:39;1.011;-0.017;0.076;0.021991148591041565;0.02687807008624077;0.010995574295520782
01:00:0A:00:00:00:00;1723334500;11/08/24;00:01:40;1.017;-0.063;0.108;0.019547687843441963;-0.024434609338641167;-0.014660765416920185
01:00:0A:00:00:00:00;1723334501;11/08/24;00:01:41;1.009;-0.045;0.081;0.02076941914856434;0.04153883829712868;0.09285151958465576
01:00:0A:00:00:00:00;1723334502;11/08/24;00:01:42;1.009;-0.055;0.099;0.045204028487205505;0.006108652334660292;-0.0036651913542300463
01:00:0A:00:00:00:00;1723334503;11/08/24;00:01:43;1.011;0.004;0.06;0.0354301817715168;-0.042760565876960754;0.0012217304902151227
01:00:0A:00:00:00:00;1723334504;11/08/24;00:01:44;1.013;-0.024;0.092;0.030543262138962746;0.04153883829712868;0.0354301817715168
01:00:0A:00:00:00:00;1723334505;11/08/24;00:01:45;1.008;-0.048;0.124;0.00855211354792118;-0.1111774742603302;-0.028099799528717995
01:00:0A:00:00:00:00;1723334506;11/08/24;00:01:46;1.015;-0.033;0.077;0.03420845419168472;0.04764748737215996;0.006108652334660292
01:00:0A:00:00:00:00;1723334507;11/08/24;00:01:47;1.003;-0.04;0.128;0.02321287989616394;0.05619959905743599;0.024434609338641167
01:00:0A:00:00:00:00;1723334508;11/08/24;00:01:48;1.008;-0.037;0.057;0.0;-0.0757472887635231;0.015882495790719986
01:00:0A:00:00:00:00;1723334509;11/08/24;00:01:49;1.011;-0.03;0.069;0.03787364438176155;0.06475171446800232;0.02076941914856434
01:00:0A:00:00:00:00;1723334510;11/08/24;00:01:50;1.007;-0.017;0.116;0.0;-0.09407324343919754;0.010995574295520782
01:00:0A:00:00:00:00;1723334511;11/08/24;00:01:51;1.015;-0.024;0.057;0.012217304669320583;-0.03298672288656235;-0.009773843921720982
01:00:0A:00:00:00:00;1723334512;11/08/24;00:01:52;1.014;-0.022;0.092;0.040317103266716;0.07330382615327835;-0.014660765416920185
01:00:0A:00:00:00:00;1723334513;11/08/24;00:01:53;1.017;-0.036;0.093;0.009773843921720982;-0.05742133408784866;-0.0073303827084600925
01:00:0A:00:00:00:00;1723334514;11/08/24;00:01:54;1.021;-0.039;0.052;0.013439035043120384;-0.06963863223791122;0.0024434609804302454
01:00:0A:00:00:00:00;1723334515;11/08/24;00:01:55;1.018;-0.031;0.1;0.028099799528717995;0.02687807008624077;0.030543262138962746
01:00:0A:00:00:00:00;1723334516;11/08/24;00:01:56;1.01;-0.024;0.109;0.010995574295520782;-0.013439035043120384;0.021991148591041565
01:00:0A:00:00:00:00;1723334517;11/08/24;00:01:57;1.008;-0.017;0.054;0.02076941914856434;-0.00855211354792118;0.0012217304902151227
01:00:0A:00:00:00:00;1723334518;11/08/24;00:01:58;1.01;-0.028;0.077;0.036651913076639175;0.015882495790719986;-0.018325956538319588
01:00:0A:00:00:00:00;1723334519;11/08/24;00:01:59;1.01;-0.027;0.098;0.013439035043120384;-0.07208210229873657;-0.0036651913542300463
01:00:0A:00:00:00:00;1723334520;11/08/24;00:02:00;1.016;-0.034;0.074;0.024434609338641167;-0.0036651913542300463;0.0024434609804302454
01:00:0A:00:00:00:00;1723334521;11/08/24;00:02:01;1.018;-0.033;0.081;0.039095375686883926;0.04642575979232788;-0.0073303827084600925
01:00:0A:00:00:00:00;1723334522;11/08/24;00:02:02;1.018;-0.033;0.083;0.009773843921720982;-0.03787364438176155;0.025656338781118393
01:00:0A:00:00:00:00;1723334523;11/08/24;00:02:03;1.022;-0.035;0.06;0.01710422709584236;-0.05497787147760391;0.014660765416920185
01:00:0A:00:00:00:00;1723334524;11/08/24;00:02:04;1.016;-0.012;0.103;0.024434609338641167;-0.0024434609804302454;0.009773843921720982
01:00:0A:00:00:00:00;1723334525;11/08/24;00:02:05;1.01;-0.034;0.1;0.013439035043120384;-0.0024434609804302454;0.015882495790719986
01:00:0A:00:00:00:00;1723334526;11/08/24;00:02:06;1.011;-0.051;0.115;0.018325956538319588;0.015882495790719986;-0.018325956538319588
01:00:0A:00:00:00:00;1723334527;11/08/24;00:02:07;1.013;-0.02;0.049;0.006108652334660292;-0.06963863223791122;-0.01710422709584236
01:00:0A:00:00:00:00;1723334528;11/08/24;00:02:08;1.017;-0.046;0.111;0.004886921960860491;0.00855211354792118;0.036651913076639175
01:00:0A:00:00:00:00;1723334529;11/08/24;00:02:09;1.016;-0.027;0.103;-0.0036651913542300463;-0.07330382615327835;-0.030543262138962746
01:00:0A:00:00:00:00;1723334530;11/08/24;00:02:10;1.014;-0.024;0.073;0.006108652334660292;0.02687807008624077;0.0036651913542300463
01:00:0A:00:00:00:00;1723334531;11/08/24;00:02:11;1.007;-0.031;0.082;0.004886921960860491;0.028099799528717995;0.024434609338641167
01:00:0A:00:00:00:00;1723334532;11/08/24;00:02:12;1.01;-0.033;0.071;0.0036651913542300463;-0.05253440886735916;-0.018325956538319588
01:00:0A:00:00:00:00;1723334533;11/08/24;00:02:13;1.008;-0.037;0.107;0.004886921960860491;0.014660765416920185;0.015882495790719986
01:00:0A:00:00:00:00;1723334534;11/08/24;00:02:14;1.01;-0.036;0.102;-0.010995574295520782;-0.07941248267889023;-0.010995574295520782
01:00:0A:00:00:00:00;1723334535;11/08/24;00:02:15;1.014;-0.018;0.064;0.012217304669320583;0.02687807008624077;0.0
01:00:0A:00:00:00:00;1723334536;11/08/24;00:02:16;1.013;-0.034;0.1;0.010995574295520782;0.042760565876960754;0.028099799528717995
01:00:0A:00:00:00:00;1723334537;11/08/24;00:02:17;1.014;-0.036;0.081;0.0024434609804302454;-0.06841690838336945;-0.021991148591041565
01:00:0A:00:00:00:00;1723334538;11/08/24;00:02:18;1.015;-0.012;0.062;0.015882495790719986;-0.0012217304902151227;0.0024434609804302454
01:00:0A:00:00:00:00;1723334539;11/08/24;00:02:19;1.011;-0.039;0.107;0.012217304669320583;0.03298672288656235;0.036651913076639175
01:00:0A:00:00:00:00;1723334540;11/08/24;00:02:20;1.013;-0.031;0.082;0.010995574295520782;-0.05375614017248154;-0.025656338781118393
01:00:0A:00:00:00:00;1723334541;11/08/24;00:02:21;1.013;-0.015;0.061;0.01710422709584236;-0.0024434609804302454;0.012217304669320583
01:00:0A:00:00:00:00;1723334542;11/08/24;00:02:22;1.012;-0.045;0.106;0.013439035043120384;-0.013439035043120384;0.014660765416920185
01:00:0A:00:00:00:00;1723334543;11/08/24;00:02:23;1.011;-0.027;0.094;0.009773843921720982;-0.02687807008624077;-0.01710422709584236
01:00:0A:00:00:00:00;1723334544;11/08/24;00:02:24;1.014;-0.039;0.097;0.0024434609804302454;-0.0012217304902151227;0.018325956538319588
01:00:0A:00:00:00:00;1723334545;11/08/24;00:02:25;1.015;-0.04;0.094;0.004886921960860491;0.010995574295520782;0.0073303827084600925
01:00:0A:00:00:00:00;1723334546;11/08/24;00:02:26;1.014;-0.034;0.087;0.0012217304902151227;-0.0012217304902151227;0.013439035043120384
01:00:0A:00:00:00:00;1723334547;11/08/24;00:02:27;1.014;-0.029;0.087;-0.0012217304902151227;-0.05619959905743599;-0.014660765416920185
01:00:0A:00:00:00:00;1723334548;11/08/24;00:02:28;1.012;-0.022;0.08;-0.0012217304902151227;-0.014660765416920185;0.015882495790719986
01:00:0A:00:00:00:00;1723334549;11/08/24;00:02:29;1.01;-0.036;0.092;0.0073303827084600925;0.00855211354792118;0.0036651913542300463
01:00:0A:00:00:00:00;1723334550;11/08/24;00:02:30;1.012;-0.022;0.086;0.0036651913542300463;-0.03176499158143997;-0.012217304669320583
01:00:0A:00:00:00:00;1723334551;11/08/24;00:02:31;1.014;-0.029;0.076;0.004886921960860491;-0.006108652334660292;0.004886921960860491
01:00:0A:00:00:00:00;1723334552;11/08/24;00:02:32;1.02;-0.031;0.092;0.00855211354792118;0.0;0.0012217304902151227
01:00:0A:00:00:00:00;1723334553;11/08/24;00:02:33;1.024;-0.03;0.085;0.0036651913542300463;-0.013439035043120384;0.0073303827084600925
01:00:0A:00:00:00:00;1723334554;11/08/24;00:02:34;1.017;-0.029;0.08;0.00855211354792118;0.0012217304902151227;0.009773843921720982
01:00:0A:00:00:00:00;1723334555;11/08/24;00:02:35;1.003;-0.026;0.083;0.009773843921720982;0.0024434609804302454;0.010995574295520782
01:00:0A:00:00:00:00;1723334556;11/08/24;00:02:36;0.999;-0.041;0.101;0.006108652334660292;-0.010995574295520782;0.009773843921720982
01:00:0A:00:00:00:00;1723334557;11/08/24;00:02:37;1.011;-0.023;0.079;0.004886921960860491;-0.06108652427792549;-0.02687807008624077
01:00:0A:00:00:00:00;1723334558;11/08/24;00:02:38;1.017;-0.023;0.076;0.010995574295520782;0.0073303827084600925;0.015882495790719986
01:00:0A:00:00:00:00;1723334559;11/08/24;00:02:39;1.021;-0.041;0.11;0.010995574295520782;0.0;0.0012217304902151227
01:00:0A:00:00:00:00;1723334560;11/08/24;00:02:40;1.02;-0.025;0.081;0.006108652334660292;-0.021991148591041565;-0.004886921960860491
01:00:0A:00:00:00:00;1723334561;11/08/24;00:02:41;1.012;-0.026;0.072;0.010995574295520782;0.02932153083384037;0.02687807008624077
01:00:0A:00:00:00:00;1723334562;11/08/24;00:02:42;1.007;-0.032;0.089;0.0073303827084600925;-0.0012217304902151227;0.018325956538319588
01:00:0A:00:00:00:00;1723334563;11/08/24;00:02:43;1.003;-0.027;0.078;0.0073303827084600925;-0.05619959905743599;-0.018325956538319588
01:00:0A:00:00:00:00;1723334564;11/08/24;00:02:44;1.006;-0.032;0.119;0.006108652334660292;0.06963863223791122;0.028099799528717995
01:00:0A:00:00:00:00;1723334565;11/08/24;00:02:45;1.013;-0.038;0.095;-0.021991148591041565;-0.10262535512447357;-0.04153883829712868
01:00:0A:00:00:00:00;1723334566;11/08/24;00:02:46;1.017;-0.009;0.037;-0.0012217304902151227;0.010995574295520782;-0.0036651913542300463
01:00:0A:00:00:00:00;1723334567;11/08/24;00:02:47;1.013;-0.045;0.119;-0.006108652334660292;0.0354301817715168;0.04642575979232788
01:00:0A:00:00:00:00;1723334568;11/08/24;00:02:48;1.011;-0.038;0.094;-0.018325956538319588;-0.09407324343919754;-0.03298672288656235
01:00:0A:00:00:00:00;1723334569;11/08/24;00:02:49;1.009;0.0;0.061;-0.004886921960860491;0.024434609338641167;0.01710422709584236
01:00:0A:00:00:00:00;1723334570;11/08/24;00:02:50;1.006;-0.041;0.111;-0.009773843921720982;0.04642575979232788;0.040317103266716
01:00:0A:00:00:00:00;1723334571;11/08/24;00:02:51;1.013;-0.03;0.083;-0.013439035043120384;-0.07452555745840073;-0.05375614017248154
01:00:0A:00:00:00:00;1723334572;11/08/24;00:02:52;1.02;-0.007;0.052;-0.010995574295520782;0.0036651913542300463;0.009773843921720982
01:00:0A:00:00:00:00;1723334573;11/08/24;00:02:53;1.017;-0.048;0.115;-0.014660765416920185;0.02321287989616394;0.028099799528717995
01:00:0A:00:00:00:00;1723334574;11/08/24;00:02:54;1.018;-0.033;0.085;-0.02076941914856434;-0.05253440886735916;-0.021991148591041565
01:00:0A:00:00:00:00;1723334575;11/08/24;00:02:55;1.013;-0.012;0.061;-0.018325956538319588;0.012217304669320583;0.02076941914856434
01:00:0A:00:00:00:00;1723334576;11/08/24;00:02:56;1.008;-0.039;0.098;-0.024434609338641167;0.0;0.03420845419168472
01:00:0A:00:00:00:00;1723334577;11/08/24;00:02:57;1.008;-0.032;0.088;-0.02076941914856434;-0.06719517707824707;-0.039095375686883926
01:00:0A:00:00:00:00;1723334578;11/08/24;00:02:58;1.011;-0.009;0.079;-0.019547687843441963;0.0073303827084600925;0.0036651913542300463
01:00:0A:00:00:00:00;1723334579;11/08/24;00:02:59;1.014;-0.044;0.104;-0.02687807008624077;0.01710422709584236;0.028099799528717995
01:00:0A:00:00:00:00;1723334580;11/08/24;00:03:00;1.015;-0.032;0.077;-0.019547687843441963;-0.02932153083384037;-0.03420845419168472
01:00:0A:00:00:00:00;1723334581;11/08/24;00:03:01;1.015;-0.01;0.074;-0.02687807008624077;0.0;0.019547687843441963
01:00:0A:00:00:00:00;1723334582;11/08/24;00:03:02;1.013;-0.043;0.095;-0.030543262138962746;-0.012217304669320583;0.02076941914856434
01:00:0A:00:00:00:00;1723334583;11/08/24;00:03:03;1.016;-0.023;0.083;-0.02076941914856434;-0.02687807008624077;-0.028099799528717995
01:00:0A:00:00:00:00;1723334584;11/08/24;00:03:04;1.015;-0.015;0.076;-0.030543262138962746;-0.0024434609804302454;0.02076941914856434
01:00:0A:00:00:00:00;1723334585;11/08/24;00:03:05;1.011;-0.039;0.088;-0.02687807008624077;-0.012217304669320583;0.0
01:00:0A:00:00:00:00;1723334586;11/08/24;00:03:06;1.011;-0.028;0.084;-0.021991148591041565;-0.039095375686883926;-0.0354301817715168
01:00:0A:00:00:00:00;1723334587;11/08/24;00:03:07;1.014;-0.025;0.085;-0.02932153083384037;-0.0012217304902151227;0.015882495790719986
01:00:0A:00:00:00:00;1723334588;11/08/24;00:03:08;1.013;-0.041;0.095;-0.03298672288656235;-0.0012217304902151227;0.028099799528717995
01:00:0A:00:00:00:00;1723334589;11/08/24;00:03:09;1.014;-0.022;0.08;-0.024434609338641167;-0.006108652334660292;-0.0073303827084600925
01:00:0A:00:00:00:00;1723334590;11/08/24;00:03:10;1.013;-0.012;0.081;-0.02932153083384037;-0.0012217304902151227;0.009773843921720982
01:00:0A:00:00:00:00;1723334591;11/08/24;00:03:11;1.014;-0.04;0.085;-0.03176499158143997;-0.021991148591041565;0.0036651913542300463
01:00:0A:00:00:00:00;1723334592;11/08/24;00:03:12;1.013;-0.026;0.085;-0.02321287989616394;-0.015882495790719986;-0.02076941914856434
01:00:0A:00:00:00:00;1723334593;11/08/24;00:03:13;1.013;-0.02;0.085;-0.0354301817715168;-0.0073303827084600925;0.021991148591041565
01:00:0A:00:00:00:00;1723334594;11/08/24;00:03:14;1.013;-0.039;0.081;-0.028099799528717995;-0.012217304669320583;-0.0036651913542300463
01:00:0A:00:00:00:00;1723334595;11/08/24;00:03:15;1.017;-0.021;0.082;-0.024434609338641167;-0.018325956538319588;-0.024434609338641167
01:00:0A:00:00:00:00;1723334596;11/08/24;00:03:16;1.018;-0.028;0.085;-0.036651913076639175;-0.018325956538319588;0.015882495790719986
01:00:0A:00:00:00:00;1723334597;11/08/24;00:03:17;1.015;-0.04;0.089;-0.030543262138962746;-0.0036651913542300463;0.00855211354792118
01:00:0A:00:00:00:00;1723334598;11/08/24;00:03:18;1.013;-0.022;0.084;-0.028099799528717995;-0.0036651913542300463;0.0024434609804302454
01:00:0A:00:00:00:00;1723334599;11/08/24;00:03:19;1.009;-0.023;0.08;-0.03176499158143997;-0.006108652334660292;0.014660765416920185
01:00:0A:00:00:00:00;1723334600;11/08/24;00:03:20;1.011;-0.032;0.084;-0.028099799528717995;-0.015882495790719986;-0.0024434609804302454
01:00:0A:00:00:00:00;1723334601;11/08/24;00:03:21;1.012;-0.025;0.083;-0.025656338781118393;-0.015882495790719986;-0.009773843921720982
01:00:0A:00:00:00:00;1723334602;11/08/24;00:03:22;1.017;-0.024;0.086;-0.03176499158143997;-0.013439035043120384;0.012217304669320583
01:00:0A:00:00:00:00;1723334603;11/08/24;00:03:23;1.017;-0.035;0.081;-0.025656338781118393;-0.012217304669320583;-0.004886921960860491
01:00:0A:00:00:00:00;1723334604;11/08/24;00:03:24;1.017;-0.025;0.085;-0.021991148591041565;-0.004886921960860491;-0.009773843921720982
01:00:0A:00:00:00:00;1723334605;11/08/24;00:03:25;1.016;-0.034;0.088;-0.03176499158143997;-0.013439035043120384;0.015882495790719986
01:00:0A:00:00:00:00;1723334606;11/08/24;00:03:26;1.011;-0.035;0.081;-0.025656338781118393;-0.006108652334660292;0.00855211354792118
01:00:0A:00:00:00:00;1723334607;11/08/24;00:03:27;1.011;-0.022;0.085;-0.024434609338641167;-0.00855211354792118;0.0024434609804302454
01:00:0A:00:00:00:00;1723334608;11/08/24;00:03:28;1.008;-0.026;0.081;-0.02687807008624077;-0.013439035043120384;0.0036651913542300463
01:00:0A:00:00:00:00;1723334609;11/08/24;00:03:29;1.013;-0.035;0.083;-0.02076941914856434;-0.010995574295520782;-0.009773843921720982
01:00:0A:00:00:00:00;1723334610;11/08/24;00:03:30;1.015;-0.028;0.086;-0.024434609338641167;-0.018325956538319588;0.0024434609804302454
01:00:0A:00:00:00:00;1723334611;11/08/24;00:03:31;1.016;-0.031;0.082;-0.025656338781118393;-0.012217304669320583;0.014660765416920185
01:00:0A:00:00:00:00;1723334612;11/08/24;00:03:32;1.016;-0.029;0.082;-0.019547687843441963;-0.006108652334660292;-0.0012217304902151227
01:00:0A:00:00:00:00;1723334613;11/08/24;00:03:33;1.015;-0.026;0.084;-0.018325956538319588;-0.00855211354792118;-0.0024434609804302454
01:00:0A:00:00:00:00;1723334614;11/08/24;00:03:34;1.015;-0.031;0.084;-0.02076941914856434;-0.013439035043120384;0.0024434609804302454
01:00:0A:00:00:00:00;1723334615;11/08/24;00:03:35;1.014;-0.033;0.082;-0.01710422709584236;-0.00855211354792118;0.0036651913542300463
01:00:0A:00:00:00:00;1723334616;11/08/24;00:03:36;1.012;-0.026;0.081;-0.01710422709584236;-0.013439035043120384;0.0036651913542300463
01:00:0A:00:00:00:00;1723334617;11/08/24;00:03:37;1.012;-0.031;0.082;-0.015882495790719986;-0.012217304669320583;0.0073303827084600925
01:00:0A:00:00:00:00;1723334618;11/08/24;00:03:38;1.015;-0.031;0.083;-0.009773843921720982;-0.0073303827084600925;-0.004886921960860491
01:00:0A:00:00:00:00;1723334619;11/08/24;00:03:39;1.015;-0.027;0.084;-0.012217304669320583;-0.015882495790719986;0.004886921960860491
01:00:0A:00:00:00:00;1723334620;11/08/24;00:03:40;1.014;-0.03;0.081;-0.009773843921720982;-0.013439035043120384;0.004886921960860491
01:00:0A:00:00:00:00;1723334621;11/08/24;00:03:41;1.015;-0.029;0.083;-0.004886921960860491;-0.0073303827084600925;0.0
01:00:0A:00:00:00:00;1723334622;11/08/24;00:03:42;1.015;-0.03;0.083;-0.004886921960860491;-0.010995574295520782;0.0024434609804302454
01:00:0A:00:00:00:00;1723334623;11/08/24;00:03:43;1.016;-0.032;0.081;-0.004886921960860491;-0.012217304669320583;0.00855211354792118
01:00:0A:00:00:00:00;1723334624;11/08/24;00:03:44;1.012;-0.029;0.083;-0.0024434609804302454;-0.0073303827084600925;0.006108652334660292
01:00:0A:00:00:00:00;1723334625;11/08/24;00:03:45;1.011;-0.024;0.081;-0.0024434609804302454;-0.013439035043120384;0.0024434609804302454
01:00:0A:00:00:00:00;1723334626;11/08/24;00:03:46;1.013;-0.027;0.08;0.0;-0.010995574295520782;-0.0036651913542300463
01:00:0A:00:00:00:00;1723334627;11/08/24;00:03:47;1.016;-0.031;0.084;0.0012217304902151227;-0.009773843921720982;-0.0036651913542300463
01:00:0A:00:00:00:00;1723334628;11/08/24;00:03:48;1.017;-0.031;0.083;-0.0024434609804302454;-0.015882495790719986;0.004886921960860491
01:00:0A:00:00:00:00;1723334629;11/08/24;00:03:49;1.015;-0.028;0.083;-0.0012217304902151227;-0.010995574295520782;0.010995574295520782
01:00:0A:00:00:00:00;1723334630;11/08/24;00:03:50;1.013;-0.027;0.082;0.0012217304902151227;-0.0073303827084600925;0.006108652334660292
01:00:0A:00:00:00:00;1723334631;11/08/24;00:03:51;1.011;-0.027;0.084;0.0012217304902151227;-0.0073303827084600925;0.0012217304902151227
01:00:0A:00:00:00:00;1723334632;11/08/24;00:03:52;1.012;-0.031;0.083;0.0012217304902151227;-0.012217304669320583;0.0024434609804302454
01:00:0A:00:00:00:00;1723334633;11/08/24;00:03:53;1.014;-0.029;0.081;0.0024434609804302454;-0.010995574295520782;0.0024434609804302454
01:00:0A:00:00:00:00;1723334634;11/08/24;00:03:54;1.012;-0.028;0.082;0.0012217304902151227;-0.012217304669320583;0.00855211354792118
01:00:0A:00:00:00:00;1723334635;11/08/24;00:03:55;1.013;-0.027;0.079;0.0036651913542300463;-0.013439035043120384;0.0
01:00:0A:00:00:00:00;1723334636;11/08/24;00:03:56;1.016;-0.028;0.083;0.0036651913542300463;-0.010995574295520782;0.0012217304902151227
01:00:0A:00:00:00:00;1723334637;11/08/24;00:03:57;1.018;-0.029;0.083;0.0036651913542300463;-0.01710422709584236;0.0024434609804302454
01:00:0A:00:00:00:00;1723334638;11/08/24;00:03:58;1.016;-0.029;0.081;0.0036651913542300463;-0.009773843921720982;0.00855211354792118
01:00:0A:00:00:00:00;1723334639;11/08/24;00:03:59;1.015;-0.028;0.084;0.006108652334660292;-0.0073303827084600925;0.0036651913542300463
01:00:0A:00:00:00:00;1723334640;11/08/24;00:04:00;1.012;-0.028;0.08;0.004886921960860491;-0.00855211354792118;0.006108652334660292
01:00:0A:00:00:00:00;1723334641;11/08/24;00:04:01;1.011;-0.028;0.083;0.006108652334660292;-0.00855211354792118;0.0036651913542300463
01:00:0A:00:00:00:00;1723334642;11/08/24;00:04:02;1.009;-0.027;0.082;0.006108652334660292;-0.015882495790719986;0.0024434609804302454
01:00:0A:00:00:00:00;1723334643;11/08/24;00:04:03;1.01;-0.028;0.081;0.0073303827084600925;-0.013439035043120384;0.0012217304902151227
01:00:0A:00:00:00:00;1723334644;11/08/24;00:04:04;1.014;-0.027;0.081;0.00855211354792118;-0.014660765416920185;0.0
01:00:0A:00:00:00:00;1723334645;11/08/24;00:04:05;1.02;-0.03;0.083;0.00855211354792118;-0.012217304669320583;0.0012217304902151227
01:00:0A:00:00:00:00;1723334646;11/08/24;00:04:06;1.019;-0.028;0.085;0.0073303827084600925;-0.01710422709584236;0.004886921960860491
01:00:0A:00:00:00:00;1723334647;11/08/24;00:04:07;1.017;-0.029;0.081;0.0073303827084600925;-0.012217304669320583;0.0073303827084600925
01:00:0A:00:00:00:00;1723334648;11/08/24;00:04:08;1.014;-0.028;0.084;0.009773843921720982;-0.004886921960860491;0.0073303827084600925
01:00:0A:00:00:00:00;1723334649;11/08/24;00:04:09;1.011;-0.029;0.081;0.00855211354792118;-0.010995574295520782;0.00855211354792118
01:00:0A:00:00:00:00;1723334650;11/08/24;00:04:10;1.011;-0.027;0.082;0.010995574295520782;-0.00855211354792118;0.0036651913542300463
01:00:0A:00:00:00:00;1723334651;11/08/24;00:04:11;1.01;-0.027;0.082;0.009773843921720982;-0.014660765416920185;0.0036651913542300463
01:00:0A:00:00:00:00;1723334652;11/08/24;00:04:12;1.011;-0.027;0.08;0.010995574295520782;-0.014660765416920185;0.0012217304902151227
01:00:0A:00:00:00:00;1723334653;11/08/24;00:04:13;1.012;-0.03;0.082;0.012217304669320583;-0.013439035043120384;0.0036651913542300463
01:00:0A:00:00:00:00;1723334654;11/08/24;00:04:14;1.016;-0.03;0.082;0.013439035043120384;-0.014660765416920185;0.0012217304902151227
01:00:0A:00:00:00:00;1723334655;11/08/24;00:04:15;1.017;-0.029;0.082;0.012217304669320583;-0.012217304669320583;0.004886921960860491
01:00:0A:00:00:00:00;1723334656;11/08/24;00:04:16;1.017;-0.031;0.083;0.013439035043120384;-0.013439035043120384;0.004886921960860491
01:00:0A:00:00:00:00;1723334657;11/08/24;00:04:17;1.017;-0.029;0.082;0.014660765416920185;-0.00855211354792118;0.00855211354792118
01:00:0A:00:00:00:00;1723334658;11/08/24;00:04:18;1.015;-0.029;0.084;0.014660765416920185;-0.0073303827084600925;0.00855211354792118
01:00:0A:00:00:00:00;1723334659;11/08/24;00:04:19;1.011;-0.028;0.082;0.014660765416920185;-0.00855211354792118;0.006108652334660292
01:00:0A:00:00:00:00;1723334660;11/08/24;00:04:20;1.009;-0.028;0.082;0.015882495790719986;-0.013439035043120384;0.0024434609804302454
01:00:0A:00:00:00:00;1723334661;11/08/24;00:04:21;1.01;-0.028;0.081;0.015882495790719986;-0.015882495790719986;0.0036651913542300463
01:00:0A:00:00:00:00;1723334662;11/08/24;00:04:22;1.013;-0.03;0.082;0.018325956538319588;-0.009773843921720982;0.0024434609804302454
01:00:0A:00:00:00:00;1723334663;11/08/24;00:04:23;1.016;-0.027;0.083;0.01710422709584236;-0.013439035043120384;0.004886921960860491
01:00:0A:00:00:00:00;1723334664;11/08/24;00:04:24;1.016;-0.03;0.082;0.018325956538319588;-0.012217304669320583;0.0036651913542300463
01:00:0A:00:00:00:00;1723334665;11/08/24;00:04:25;1.015;-0.028;0.083;0.018325956538319588;-0.012217304669320583;0.0024434609804302454
01:00:0A:00:00:00:00;1723334666;11/08/24;00:04:26;1.015;-0.03;0.081;0.019547687843441963;-0.010995574295520782;0.006108652334660292
01:00:0A:00:00:00:00;1723334667;11/08/24;00:04:27;1.015;-0.028;0.082;0.019547687843441963;-0.009773843921720982;0.0073303827084600925
01:00:0A:00:00:00:00;1723334668;11/08/24;00:04:28;1.014;-0.028;0.083;0.019547687843441963;-0.012217304669320583;0.006108652334660292
01:00:0A:00:00:00:00;1723334669;11/08/24;00:04:29;1.013;-0.028;0.081;0.02076941914856434;-0.009773843921720982;0.0024434609804302454
01:00:0A:00:00:00:00;1723334670;11/08/24;00:04:30;1.011;-0.03;0.082;0.02076941914856434;-0.013439035043120384;0.006108652334660292
01:00:0A:00:00:00:00;1723334671;11/08/24;00:04:31;1.012;-0.031;0.08;0.02321287989616394;-0.009773843921720982;0.0036651913542300463
01:00:0A:00:00:00:00;1723334672;11/08/24;00:04:32;1.014;-0.027;0.083;0.02321287989616394;-0.013439035043120384;0.006108652334660292
01:00:0A:00:00:00:00;1723334673;11/08/24;00:04:33;1.015;-0.029;0.083;0.02321287989616394;-0.014660765416920185;0.0024434609804302454
01:00:0A:00:00:00:00;1723334674;11/08/24;00:04:34;1.016;-0.029;0.082;0.024434609338641167;-0.012217304669320583;0.0036651913542300463
01:00:0A:00:00:00:00;1723334675;11/08/24;00:04:35;1.016;-0.03;0.081;0.025656338781118393;-0.012217304669320583;0.006108652334660292
01:00:0A:00:00:00:00;1723334676;11/08/24;00:04:36;1.015;-0.029;0.083;0.02687807008624077;-0.00855211354792118;0.00855211354792118
01:00:0A:00:00:00:00;1723334677;11/08/24;00:04:37;1.013;-0.026;0.082;0.02687807008624077;-0.010995574295520782;0.004886921960860491
01:00:0A:00:00:00:00;1723334678;11/08/24;00:04:38;1.013;-0.028;0.081;0.02687807008624077;-0.013439035043120384;0.004886921960860491
01:00:0A:00:00:00:00;1723334679;11/08/24;00:04:39;1.012;-0.03;0.081;0.028099799528717995;-0.012217304669320583;0.0036651913542300463
01:00:0A:00:00:00:00;1723334680;11/08/24;00:04:40;1.014;-0.03;0.082;0.02932153083384037;-0.012217304669320583;0.0073303827084600925
01:00:0A:00:00:00:00;1723334681;11/08/24;00:04:41;1.016;-0.028;0.083;0.030543262138962746;-0.010995574295520782;0.004886921960860491
01:00:0A:00:00:00:00;1723334682;11/08/24;00:04:42;1.015;-0.028;0.082;0.030543262138962746;-0.012217304669320583;0.0036651913542300463
01:00:0A:00:00:00:00;1723334683;11/08/24;00:04:43;1.015;-0.031;0.082;0.030543262138962746;-0.012217304669320583;0.0036651913542300463
01:00:0A:00:00:00:00;1723334684;11/08/24;00:04:44;1.013;-0.03;0.081;0.03176499158143997;-0.009773843921720982;0.006108652334660292
01:00:0A:00:00:00:00;1723334685;11/08/24;00:04:45;1.014;-0.031;0.081;0.03176499158143997;-0.009773843921720982;0.00855211354792118
01:00:0A:00:00:00:00;1723334686;11/08/24;00:04:46;1.013;-0.026;0.082;0.03176499158143997;-0.013439035043120384;0.004886921960860491
01:00:0A:00:00:00:00;1723334687;11/08/24;00:04:47;1.015;-0.029;0.082;0.03176499158143997;-0.014660765416920185;0.006108652334660292
01:00:0A:00:00:00:00;1723334688;11/08/24;00:04:48;1.015;-0.03;0.083;0.03298672288656235;-0.012217304669320583;0.0024434609804302454
01:00:0A:00:00:00:00;1723334689;11/08/24;00:04:49;1.014;-0.031;0.082;0.03298672288656235;-0.00855211354792118;0.0073303827084600925
01:00:0A:00:00:00:00;1723334690;11/08/24;00:04:50;1.014;-0.029;0.082;0.03298672288656235;-0.010995574295520782;0.004886921960860491
01:00:0A:00:00:00:00;1723334691;11/08/24;00:04:51;1.014;-0.028;0.081;0.03176499158143997;-0.012217304669320583;0.004886921960860491
01:00:0A:00:00:00:00;1723334692;11/08/24;00:04:52;1.015;-0.03;0.083;0.03176499158143997;-0.014660765416920185;0.004886921960860491
01:00:0A:00:00:00:00;1723334693;11/08/24;00:04:53;1.014;-0.029;0.081;0.03298672288656235;-0.010995574295520782;0.0073303827084600925
01:00:0A:00:00:00:00;1723334694;11/08/24;00:04:54;1.014;-0.028;0.083;0.03298672288656235;-0.00855211354792118;0.004886921960860491
01:00:0A:00:00:00:00;1723334695;11/08/24;00:04:55;1.014;-0.028;0.081;0.03176499158143997;-0.013439035043120384;0.0036651913542300463
01:00:0A:00:00:00:00;1723334696;11/08/24;00:04:56;1.013;-0.029;0.083;0.03176499158143997;-0.013439035043120384;0.004886921960860491
01:00:0A:00:00:00:00;1723334697;11/08/24;00:04:57;1.015;-0.031;0.083;0.03176499158143997;-0.010995574295520782;0.0073303827084600925
01:00:0A:00:00:00:00;1723334698;11/08/24;00:04:58;1.014;-0.029;0.081;0.03298672288656235;-0.00855211354792118;0.0073303827084600925
01:00:0A:00:00:00:00;1723334699;11/08/24;00:04:59;1.015;-0.027;0.082;0.03176499158143997;-0.009773843921720982;0.006108652334660292
01:00:0A:00:00:00:00;1723334700;11/08/24;00:05:00;1.014;-0.028;0.082;0.030543262138962746;-0.015882495790719986;0.004886921960860491
01:00:0A:00:00:00:00;1723334701;11/08/24;00:05:01;1.013;-0.03;0.083;0.03176499158143997;-0.010995574295520782;0.004886921960860491
01:00:0A:00:00:00:00;1723334702;11/08/24;00:05:02;1.013;-0.03;0.083;0.03176499158143997;-0.012217304669320583;0.006108652334660292
01:00:0A:00:00:00:00;1723334703;11/08/24;00:05:03;1.015;-0.029;0.081;0.03176499158143997;-0.009773843921720982;0.006108652334660292
01:00:0A:00:00:00:00;1723334704;11/08/24;00:05:04;1.015;-0.027;0.083;0.03176499158143997;-0.010995574295520782;0.006108652334660292
01:00:0A:00:00:00:00;1723334705;11/08/24;00:05:05;1.013;-0.029;0.081;0.030543262138962746;-0.014660765416920185;0.004886921960860491
01:00:0A:00:00:00:00;1723334706;11/08/24;00:05:06;1.014;-0.03;0.082;0.03176499158143997;-0.009773843921720982;0.006108652334660292
01:00:0A:00:00:00:00;1723334707;11/08/24;00:05:07;1.013;-0.03;0.082;0.030543262138962746;-0.012217304669320583;0.006108652334660292
01:00:0A:00:00:00:00;1723334708;11/08/24;00:05:08;1.014;-0.029;0.082;0.03176499158143997;-0.00855211354792118;0.004886921960860491
01:00:0A:00:00:00:00;1723334709;11/08/24;00:05:09;1.015;-0.028;0.083;0.030543262138962746;-0.014660765416920185;0.004886921960860491
01:00:0A:00:00:00:00;1723334710;11/08/24;00:05:10;1.014;-0.03;0.082;0.030543262138962746;-0.012217304669320583;0.006108652334660292
01:00:0A:00:00:00:00;1723334711;11/08/24;00:05:11;1.014;-0.028;0.084;0.03176499158143997;-0.010995574295520782;0.004886921960860491
01:00:0A:00:00:00:00;1723334712;11/08/24;00:05:12;1.014;-0.03;0.081;0.03176499158143997;-0.010995574295520782;0.006108652334660292
01:00:0A:00:00:00:00;1723334713;11/08/24;00:05:13;1.013;-0.029;0.082;0.03176499158143997;-0.012217304669320583;0.0024434609804302454
01:00:0A:00:00:00:00;1723334714;11/08/24;00:05:14;1.013;-0.028;0.083;0.030543262138962746;-0.015882495790719986;0.0073303827084600925
01:00:0A:00:00:00:00;1723334715;11/08/24;00:05:15;1.013;-0.03;0.082;0.03298672288656235;-0.010995574295520782;0.0036651913542300463
01:00:0A:00:00:00:00;1723334716;11/08/24;00:05:16;1.014;-0.028;0.082;0.03176499158143997;-0.009773843921720982;0.006108652334660292
01:00:0A:00:00:00:00;1723334717;11/08/24;00:05:17;1.015;-0.03;0.081;0.03298672288656235;-0.010995574295520782;0.004886921960860491
01:00:0A:00:00:00:00;1723334718;11/08/24;00:05:18;1.014;-0.027;0.082;0.03176499158143997;-0.012217304669320583;0.004886921960860491
01:00:0A:00:00:00:00;1723334719;11/08/24;00:05:19;1.014;-0.03;0.081;0.03176499158143997;-0.014660765416920185;0.0073303827084600925
01:00:0A:00:00:00:00;1723334720;11/08/24;00:05:20;1.014;-0.03;0.083;0.03420845419168472;-0.009773843921720982;0.0036651913542300463
01:00:0A:00:00:00:00;1723334721;11/08/24;00:05:21;1.015;-0.028;0.083;0.03176499158143997;-0.010995574295520782;0.006108652334660292
01:00:0A:00:00:00:00;1723334722;11/08/24;00:05:22;1.014;-0.028;0.082;0.03298672288656235;-0.012217304669320583;0.004886921960860491
01:00:0A:00:00:00:00;1723334723;11/08/24;00:05:23;1.015;-0.028;0.083;0.030543262138962746;-0.013439035043120384;0.006108652334660292
01:00:0A:00:00:00:00;1723334724;11/08/24;00:05:24;1.013;-0.03;0.081;0.030543262138962746;-0.013439035043120384;0.006108652334660292
01:00:0A:00:00:00:00;1723334725;11/08/24;00:05:25;1.013;-0.028;0.084;0.03176499158143997;-0.009773843921720982;0.0036651913542300463
01:00:0A:00:00:00:00;1723334726;11/08/24;00:05:26;1.015;-0.028;0.082;0.02932153083384037;-0.013439035043120384;0.0073303827084600925
01:00:0A:00:00:00:00;1723334727;11/08/24;00:05:27;1.015;-0.029;0.082;0.030543262138962746;-0.010995574295520782;0.0036651913542300463
01:00:0A:00:00:00:00;1723334728;11/08/24;00:05:28;1.014;-0.03;0.083;0.028099799528717995;-0.014660765416920185;0.0073303827084600925
01:00:0A:00:00:00:00;1723334729;11/08/24;00:05:29;1.014;-0.031;0.083;0.02932153083384037;-0.010995574295520782;0.0036651913542300463
01:00:0A:00:00:00:00;1723334730;11/08/24;00:05:30;1.015;-0.027;0.084;0.02932153083384037;-0.010995574295520782;0.0036651913542300463
01:00:0A:00:00:00:00;1723334731;11/08/24;00:05:31;1.015;-0.03;0.082;0.028099799528717995;-0.012217304669320583;0.006108652334660292
01:00:0A:00:00:00:00;1723334732;11/08/24;00:05:32;1.014;-0.028;0.083;0.028099799528717995;-0.012217304669320583;0.0036651913542300463
01:00:0A:00:00:00:00;1723334733;11/08/24;00:05:33;1.013;-0.03;0.082;0.02687807008624077;-0.013439035043120384;0.00855211354792118
01:00:0A:00:00:00:00;1723334734;11/08/24;00:05:34;1.014;-0.03;0.083;0.02932153083384037;-0.010995574295520782;0.0012217304902151227
01:00:0A:00:00:00:00;1723334735;11/08/24;00:05:35;1.015;-0.027;0.082;0.02687807008624077;-0.010995574295520782;0.004886921960860491
01:00:0A:00:00:00:00;1723334736;11/08/24;00:05:36;1.015;-0.03;0.083;0.02687807008624077;-0.012217304669320583;0.004886921960860491
01:00:0A:00:00:00:00;1723334737;11/08/24;00:05:37;1.015;-0.028;0.083;0.02687807008624077;-0.012217304669320583;0.004886921960860491
01:00:0A:00:00:00:00;1723334738;11/08/24;00:05:38;1.015;-0.03;0.082;0.02687807008624077;-0.012217304669320583;0.0073303827084600925
01:00:0A:00:00:00:00;1723334739;11/08/24;00:05:39;1.014;-0.03;0.082;0.028099799528717995;-0.010995574295520782;0.0012217304902151227
01:00:0A:00:00:00:00;1723334740;11/08/24;00:05:40;1.015;-0.027;0.083;0.025656338781118393;-0.010995574295520782;0.0073303827084600925
01:00:0A:00:00:00:00;1723334741;11/08/24;00:05:41;1.014;-0.028;0.082;0.025656338781118393;-0.012217304669320583;0.0036651913542300463
01:00:0A:00:00:00:00;1723334742;11/08/24;00:05:42;1.014;-0.027;0.083;0.025656338781118393;-0.010995574295520782;0.006108652334660292
01:00:0A:00:00:00:00;1723334743;11/08/24;00:05:43;1.013;-0.03;0.082;0.025656338781118393;-0.012217304669320583;0.0036651913542300463
01:00:0A:00:00:00:00;1723334744;11/08/24;00:05:44;1.015;-0.028;0.083;0.025656338781118393;-0.009773843921720982;0.0024434609804302454
01:00:0A:00:00:00:00;1723334745;11/08/24;00:05:45;1.015;-0.029;0.082;0.02321287989616394;-0.013439035043120384;0.00855211354792118
01:00:0A:00:00:00:00;1723334746;11/08/24;00:05:46;1.015;-0.029;0.082;0.024434609338641167;-0.009773843921720982;0.0036651913542300463
01:00:0A:00:00:00:00;1723334747;11/08/24;00:05:47;1.014;-0.029;0.082;0.02321287989616394;-0.012217304669320583;0.0073303827084600925
01:00:0A:00:00:00:00;1723334748;11/08/24;00:05:48;1.015;-0.029;0.082;0.024434609338641167;-0.010995574295520782;0.0024434609804302454
01:00:0A:00:00:00:00;1723334749;11/08/24;00:05:49;1.015;-0.026;0.084;0.021991148591041565;-0.012217304669320583;0.0036651913542300463
01:00:0A:00:00:00:00;1723334750;11/08/24;00:05:50;1.014;-0.03;0.082;0.021991148591041565;-0.010995574295520782;0.0073303827084600925
01:00:0A:00:00:00:00;1723334751;11/08/24;00:05:51;1.015;-0.03;0.082;0.021991148591041565;-0.012217304669320583;0.0036651913542300463
01:00:0A:00:00:00:00;1723334752;11/08/24;00:05:52;1.015;-0.03;0.082;0.021991148591041565;-0.010995574295520782;0.006108652334660292
01:00:0A:00:00:00:00;1723334753;11/08/24;00:05:53;1.014;-0.027;0.083;0.021991148591041565;-0.012217304669320583;0.0012217304902151227
01:00:0A:00:00:00:00;1723334754;11/08/24;00:05:54;1.013;-0.007;0.098;-0.0073303827084600925;0.025656338781118393;-0.039095375686883926
01:00:0A:00:00:00:00;1723334755;11/08/24;00:05:55;1.012;0.006;0.111;-0.045204028487205505;-0.024434609338641167;0.0024434609804302454
01:00:0A:00:00:00:00;1723334756;11/08/24;00:05:56;1.013;-0.02;0.08;-0.0708603635430336;-0.05009094998240471;0.05009094998240471
01:00:0A:00:00:00:00;1723334757;11/08/24;00:05:57;1.013;-0.05;0.07;-0.03298672288656235;0.012217304669320583;-0.00855211354792118
01:00:0A:00:00:00:00;1723334758;11/08/24;00:05:58;1.014;-0.013;0.1;-0.02932153083384037;0.0012217304902151227;-0.03176499158143997
01:00:0A:00:00:00:00;1723334759;11/08/24;00:05:59;1.015;-0.025;0.079;-0.06230825558304787;-0.04398229718208313;0.040317103266716
01:00:0A:00:00:00:00;1723334760;11/08/24;00:06:00;1.014;-0.046;0.071;-0.030543262138962746;0.012217304669320583;-0.009773843921720982
01:00:0A:00:00:00:00;1723334761;11/08/24;00:06:01;1.013;-0.015;0.1;-0.03298672288656235;-0.006108652334660292;-0.01710422709584236
01:00:0A:00:00:00:00;1723334762;11/08/24;00:06:02;1.015;-0.028;0.078;-0.05619959905743599;-0.04153883829712868;0.028099799528717995
01:00:0A:00:00:00:00;1723334763;11/08/24;00:06:03;1.014;-0.038;0.077;-0.02932153083384037;0.015882495790719986;-0.009773843921720982
01:00:0A:00:00:00:00;1723334764;11/08/24;00:06:04;1.011;-0.018;0.098;-0.036651913076639175;-0.009773843921720982;-0.009773843921720982
01:00:0A:00:00:00:00;1723334765;11/08/24;00:06:05;1.014;-0.027;0.078;-0.051312677562236786;-0.036651913076639175;0.019547687843441963
01:00:0A:00:00:00:00;1723334766;11/08/24;00:06:06;1.016;-0.037;0.077;-0.02932153083384037;0.012217304669320583;-0.0073303827084600925
01:00:0A:00:00:00:00;1723334767;11/08/24;00:06:07;1.013;-0.021;0.097;-0.0354301817715168;-0.0073303827084600925;-0.00855211354792118
01:00:0A:00:00:00:00;1723334768;11/08/24;00:06:08;1.014;-0.029;0.077;-0.05009094998240471;-0.0354301817715168;0.018325956538319588
01:00:0A:00:00:00:00;1723334769;11/08/24;00:06:09;1.014;-0.035;0.076;-0.02932153083384037;0.012217304669320583;-0.004886921960860491
01:00:0A:00:00:00:00;1723334770;11/08/24;00:06:10;1.013;-0.022;0.096;-0.036651913076639175;-0.013439035043120384;-0.004886921960860491
01:00:0A:00:00:00:00;1723334771;11/08/24;00:06:11;1.015;-0.03;0.076;-0.045204028487205505;-0.03176499158143997;0.013439035043120384
01:00:0A:00:00:00:00;1723334772;11/08/24;00:06:12;1.013;-0.034;0.079;-0.028099799528717995;0.010995574295520782;-0.004886921960860491
01:00:0A:00:00:00:00;1723334773;11/08/24;00:06:13;1.015;-0.019;0.076;-0.024434609338641167;-0.03298672288656235;-0.0036651913542300463
01:00:0A:00:00:00:00;1723334774;11/08/24;00:06:14;1.013;-0.025;0.066;-0.05742133408784866;-0.010995574295520782;0.00855211354792118
01:00:0A:00:00:00:00;1723334775;11/08/24;00:06:15;1.015;-0.03;0.081;-0.06108652427792549;0.010995574295520782;0.0036651913542300463
01:00:0A:00:00:00:00;1723334776;11/08/24;00:06:16;1.014;-0.03;0.093;-0.06352998316287994;-0.013439035043120384;-0.0024434609804302454
01:00:0A:00:00:00:00;1723334777;11/08/24;00:06:17;1.015;-0.025;0.077;-0.06475171446800232;-0.024434609338641167;-0.0024434609804302454
01:00:0A:00:00:00:00;1723334778;11/08/24;00:06:18;1.013;-0.03;0.08;-0.05742133408784866;0.004886921960860491;0.00855211354792118
01:00:0A:00:00:00:00;1723334779;11/08/24;00:06:19;1.013;-0.031;0.089;-0.05619959905743599;-0.013439035043120384;-0.006108652334660292
01:00:0A:00:00:00:00;1723334780;11/08/24;00:06:20;1.015;-0.026;0.079;-0.05864306166768074;-0.02321287989616394;-0.0012217304902151227
01:00:0A:00:00:00:00;1723334781;11/08/24;00:06:21;1.014;-0.03;0.081;-0.05253440886735916;0.0036651913542300463;0.0073303827084600925
01:00:0A:00:00:00:00;1723334782;11/08/24;00:06:22;1.012;-0.031;0.091;-0.05375614017248154;-0.014660765416920185;-0.0036651913542300463
01:00:0A:00:00:00:00;1723334783;11/08/24;00:06:23;1.014;-0.025;0.078;-0.05375614017248154;-0.021991148591041565;-0.004886921960860491
01:00:0A:00:00:00:00;1723334784;11/08/24;00:06:24;1.015;-0.029;0.082;-0.05009094998240471;0.0036651913542300463;0.00855211354792118
01:00:0A:00:00:00:00;1723334785;11/08/24;00:06:25;1.015;-0.033;0.089;-0.05009094998240471;-0.015882495790719986;-0.0036651913542300463
01:00:0A:00:00:00:00;1723334786;11/08/24;00:06:26;1.014;-0.025;0.079;-0.05009094998240471;-0.015882495790719986;-0.0012217304902151227
01:00:0A:00:00:00:00;1723334787;11/08/24;00:06:27;1.014;-0.029;0.082;-0.04886921867728233;-0.0036651913542300463;0.0073303827084600925
01:00:0A:00:00:00:00;1723334788;11/08/24;00:06:28;1.015;-0.031;0.086;-0.04642575979232788;-0.013439035043120384;-0.0036651913542300463
01:00:0A:00:00:00:00;1723334789;11/08/24;00:06:29;1.015;-0.025;0.081;-0.04642575979232788;-0.013439035043120384;-0.0024434609804302454
01:00:0A:00:00:00:00;1723334790;11/08/24;00:06:30;1.013;-0.029;0.082;-0.04642575979232788;-0.006108652334660292;0.00855211354792118
01:00:0A:00:00:00:00;1723334791;11/08/24;00:06:31;1.014;-0.032;0.085;-0.042760565876960754;-0.012217304669320583;-0.0036651913542300463
01:00:0A:00:00:00:00;1723334792;11/08/24;00:06:32;1.013;-0.024;0.081;-0.04398229718208313;-0.01710422709584236;-0.0024434609804302454
01:00:0A:00:00:00:00;1723334793;11/08/24;00:06:33;1.014;-0.03;0.081;-0.042760565876960754;-0.0036651913542300463;0.00855211354792118
01:00:0A:00:00:00:00;1723334794;11/08/24;00:06:34;1.015;-0.033;0.087;-0.040317103266716;-0.012217304669320583;-0.0036651913542300463
01:00:0A:00:00:00:00;1723334795;11/08/24;00:06:35;1.015;-0.026;0.08;-0.040317103266716;-0.014660765416920185;0.0
01:00:0A:00:00:00:00;1723334796;11/08/24;00:06:36;1.014;-0.031;0.083;-0.040317103266716;-0.006108652334660292;0.00855211354792118
01:00:0A:00:00:00:00;1723334797;11/08/24;00:06:37;1.015;-0.032;0.083;-0.03787364438176155;-0.014660765416920185;-0.004886921960860491
01:00:0A:00:00:00:00;1723334798;11/08/24;00:06:38;1.014;-0.025;0.083;-0.03787364438176155;-0.009773843921720982;0.0024434609804302454
01:00:0A:00:00:00:00;1723334799;11/08/24;00:06:39;1.016;-0.031;0.083;-0.03787364438176155;-0.009773843921720982;0.006108652334660292
01:00:0A:00:00:00:00;1723334800;11/08/24;00:06:40;1.014;-0.029;0.082;-0.03420845419168472;-0.012217304669320583;-0.0036651913542300463
01:00:0A:00:00:00:00;1723334801;11/08/24;00:06:41;1.014;-0.027;0.082;-0.03420845419168472;-0.012217304669320583;0.0024434609804302454
01:00:0A:00:00:00:00;1723334802;11/08/24;00:06:42;1.015;-0.031;0.082;-0.03298672288656235;-0.00855211354792118;0.004886921960860491
01:00:0A:00:00:00:00;1723334803;11/08/24;00:06:43;1.014;-0.031;0.084;-0.03176499158143997;-0.010995574295520782;0.0
01:00:0A:00:00:00:00;1723334804;11/08/24;00:06:44;1.014;-0.028;0.081;-0.05009094998240471;-0.01710422709584236;0.0073303827084600925
01:00:0A:00:00:00:00;1723334805;11/08/24;00:06:45;1.014;-0.034;0.077;-0.09040805697441101;-0.010995574295520782;0.0012217304902151227
01:00:0A:00:00:00:00;1723334806;11/08/24;00:06:46;1.014;-0.027;0.085;-0.07696902006864548;0.0;-0.013439035043120384
01:00:0A:00:00:00:00;1723334807;11/08/24;00:06:47;1.014;-0.024;0.085;-0.08429940044879913;-0.02076941914856434;0.00855211354792118
01:00:0A:00:00:00:00;1723334808;11/08/24;00:06:48;1.014;-0.036;0.077;-0.07452555745840073;-0.010995574295520782;0.0012217304902151227
01:00:0A:00:00:00:00;1723334809;11/08/24;00:06:49;1.014;-0.025;0.086;-0.06719517707824707;-0.0024434609804302454;-0.009773843921720982
01:00:0A:00:00:00:00;1723334810;11/08/24;00:06:50;1.013;-0.027;0.084;-0.07452555745840073;-0.02076941914856434;0.0073303827084600925
01:00:0A:00:00:00:00;1723334811;11/08/24;00:06:51;1.014;-0.032;0.078;-0.0659734457731247;-0.00855211354792118;-0.0024434609804302454
01:00:0A:00:00:00:00;1723334812;11/08/24;00:06:52;1.014;-0.028;0.086;-0.06108652427792549;-0.0024434609804302454;-0.0024434609804302454
01:00:0A:00:00:00:00;1723334813;11/08/24;00:06:53;1.014;-0.028;0.083;-0.0659734457731247;-0.02076941914856434;0.0024434609804302454
01:00:0A:00:00:00:00;1723334814;11/08/24;00:06:54;1.014;-0.029;0.078;-0.059864792972803116;-0.00855211354792118;-0.0012217304902151227
01:00:0A:00:00:00:00;1723334815;11/08/24;00:06:55;1.014;-0.027;0.087;-0.05742133408784866;-0.0036651913542300463;0.0
01:00:0A:00:00:00:00;1723334816;11/08/24;00:06:56;1.016;-0.029;0.082;-0.059864792972803116;-0.02076941914856434;0.0012217304902151227
01:00:0A:00:00:00:00;1723334817;11/08/24;00:06:57;1.014;-0.03;0.079;-0.05375614017248154;-0.0073303827084600925;0.0
01:00:0A:00:00:00:00;1723334818;11/08/24;00:06:58;1.015;-0.03;0.086;-0.051312677562236786;-0.0073303827084600925;-0.0012217304902151227
01:00:0A:00:00:00:00;1723334819;11/08/24;00:06:59;1.014;-0.028;0.082;-0.05497787147760391;-0.018325956538319588;0.0024434609804302454
01:00:0A:00:00:00:00;1723334820;11/08/24;00:07:00;1.015;-0.029;0.081;-0.05009094998240471;-0.006108652334660292;0.0012217304902151227
01:00:0A:00:00:00:00;1723334821;11/08/24;00:07:01;1.015;-0.029;0.085;-0.04886921867728233;-0.0073303827084600925;0.0012217304902151227
01:00:0A:00:00:00:00;1723334822;11/08/24;00:07:02;1.014;-0.029;0.081;-0.05009094998240471;-0.018325956538319588;0.0
01:00:0A:00:00:00:00;1723334823;11/08/24;00:07:03;1.015;-0.027;0.081;-0.045204028487205505;-0.004886921960860491;0.0
01:00:0A:00:00:00:00;1723334824;11/08/24;00:07:04;1.015;-0.029;0.086;-0.04642575979232788;-0.009773843921720982;0.0024434609804302454
01:00:0A:00:00:00:00;1723334825;11/08/24;00:07:05;1.013;-0.029;0.081;-0.045204028487205505;-0.015882495790719986;0.0
01:00:0A:00:00:00:00;1723334826;11/08/24;00:07:06;1.013;-0.029;0.081;-0.042760565876960754;-0.0073303827084600925;0.0012217304902151227
01:00:0A:00:00:00:00;1723334827;11/08/24;00:07:07;1.014;-0.03;0.086;-0.042760565876960754;-0.010995574295520782;0.0012217304902151227
01:00:0A:00:00:00:00;1723334828;11/08/24;00:07:08;1.014;-0.027;0.081;-0.042760565876960754;-0.014660765416920185;-0.0012217304902151227
01:00:0A:00:00:00:00;1723334829;11/08/24;00:07:09;1.015;-0.028;0.081;-0.040317103266716;-0.0073303827084600925;0.0036651913542300463
01:00:0A:00:00:00:00;1723334830;11/08/24;00:07:10;1.013;-0.029;0.085;-0.039095375686883926;-0.010995574295520782;0.0012217304902151227
01:00:0A:00:00:00:00;1723334831;11/08/24;00:07:11;1.014;-0.028;0.081;-0.039095375686883926;-0.014660765416920185;0.0
01:00:0A:00:00:00:00;1723334832;11/08/24;00:07:12;1.014;-0.029;0.081;-0.036651913076639175;-0.0073303827084600925;0.0024434609804302454
01:00:0A:00:00:00:00;1723334833;11/08/24;00:07:13;1.014;-0.029;0.084;-0.036651913076639175;-0.012217304669320583;0.0012217304902151227
01:00:0A:00:00:00:00;1723334834;11/08/24;00:07:14;1.014;-0.029;0.081;-0.0354301817715168;-0.013439035043120384;0.0
01:00:0A:00:00:00:00;1723334835;11/08/24;00:07:15;1.014;-0.029;0.082;-0.03420845419168472;-0.0073303827084600925;0.0012217304902151227
01:00:0A:00:00:00:00;1723334836;11/08/24;00:07:16;1.014;-0.03;0.084;-0.03298672288656235;-0.012217304669320583;0.0012217304902151227
01:00:0A:00:00:00:00;1723334837;11/08/24;00:07:17;1.014;-0.029;0.081;-0.03176499158143997;-0.012217304669320583;-0.0012217304902151227
01:00:0A:00:00:00:00;1723334838;11/08/24;00:07:18;1.014;-0.028;0.082;-0.03176499158143997;-0.009773843921720982;0.004886921960860491
01:00:0A:00:00:00:00;1723334839;11/08/24;00:07:19;1.015;-0.03;0.081;-0.030543262138962746;-0.012217304669320583;0.0012217304902151227
01:00:0A:00:00:00:00;1723334840;11/08/24;00:07:20;1.014;-0.027;0.082;-0.02932153083384037;-0.010995574295520782;0.0
01:00:0A:00:00:00:00;1723334841;11/08/24;00:07:21;1.015;-0.029;0.083;-0.02932153083384037;-0.009773843921720982;0.0036651913542300463
01:00:0A:00:00:00:00;1723334842;11/08/24;00:07:22;1.013;-0.03;0.083;-0.028099799528717995;-0.012217304669320583;0.0012217304902151227
01:00:0A:00:00:00:00;1723334843;11/08/24;00:07:23;1.015;-0.028;0.082;-0.02687807008624077;-0.012217304669320583;0.0012217304902151227
01:00:0A:00:00:00:00;1723334844;11/08/24;00:07:24;1.013;-0.029;0.083;-0.025656338781118393;-0.00855211354792118;0.0036651913542300463
01:00:0A:00:00:00:00;1723334845;11/08/24;00:07:25;1.014;-0.029;0.084;-0.024434609338641167;-0.012217304669320583;0.0012217304902151227
01:00:0A:00:00:00:00;1723334846;11/08/24;00:07:26;1.012;-0.028;0.082;-0.024434609338641167;-0.012217304669320583;0.0012217304902151227
01:00:0A:00:00:00:00;1723334847;11/08/24;00:07:27;1.014;-0.029;0.083;-0.024434609338641167;-0.010995574295520782;0.0036651913542300463
01:00:0A:00:00:00:00;1723334848;11/08/24;00:07:28;1.014;-0.029;0.082;-0.02321287989616394;-0.012217304669320583;0.0012217304902151227
01:00:0A:00:00:00:00;1723334849;11/08/24;00:07:29;1.015;-0.028;0.081;-0.021991148591041565;-0.009773843921720982;0.0012217304902151227
01:00:0A:00:00:00:00;1723334850;11/08/24;00:07:30;1.013;-0.029;0.081;-0.021991148591041565;-0.010995574295520782;0.0036651913542300463
01:00:0A:00:00:00:00;1723334851;11/08/24;00:07:31;1.015;-0.029;0.083;-0.019547687843441963;-0.012217304669320583;0.0012217304902151227
01:00:0A:00:00:00:00;1723334852;11/08/24;00:07:32;1.014;-0.027;0.082;-0.019547687843441963;-0.010995574295520782;0.0012217304902151227
01:00:0A:00:00:00:00;1723334853;11/08/24;00:07:33;1.014;-0.029;0.082;-0.018325956538319588;-0.010995574295520782;0.0036651913542300463
01:00:0A:00:00:00:00;1723334854;11/08/24;00:07:34;1.013;-0.029;0.082;-0.01710422709584236;-0.010995574295520782;0.0012217304902151227
01:00:0A:00:00:00:00;1723334855;11/08/24;00:07:35;1.014;-0.028;0.082;-0.01710422709584236;-0.012217304669320583;0.0036651913542300463
01:00:0A:00:00:00:00;1723334856;11/08/24;00:07:36;1.014;-0.03;0.082;-0.01710422709584236;-0.012217304669320583;0.0024434609804302454
01:00:0A:00:00:00:00;1723334857;11/08/24;00:07:37;1.015;-0.029;0.083;-0.015882495790719986;-0.012217304669320583;0.0024434609804302454
01:00:0A:00:00:00:00;1723334858;11/08/24;00:07:38;1.015;-0.028;0.082;-0.014660765416920185;-0.009773843921720982;0.0024434609804302454
01:00:0A:00:00:00:00;1723334859;11/08/24;00:07:39;1.014;-0.029;0.083;-0.014660765416920185;-0.010995574295520782;0.0036651913542300463
01:00:0A:00:00:00:00;1723334860;11/08/24;00:07:40;1.013;-0.03;0.083;-0.014660765416920185;-0.012217304669320583;0.0012217304902151227
01:00:0A:00:00:00:00;1723334861;11/08/24;00:07:41;1.014;-0.03;0.082;-0.013439035043120384;-0.012217304669320583;0.0024434609804302454
01:00:0A:00:00:00:00;1723334862;11/08/24;00:07:42;1.013;-0.029;0.081;-0.012217304669320583;-0.010995574295520782;0.0036651913542300463
01:00:0A:00:00:00:00;1723334863;11/08/24;00:07:43;1.015;-0.029;0.083;-0.012217304669320583;-0.010995574295520782;0.0024434609804302454
01:00:0A:00:00:00:00;1723334864;11/08/24;00:07:44;1.014;-0.028;0.083;-0.012217304669320583;-0.010995574295520782;0.0036651913542300463
01:00:0A:00:00:00:00;1723334865;11/08/24;00:07:45;1.015;-0.029;0.083;-0.010995574295520782;-0.012217304669320583;0.0036651913542300463
01:00:0A:00:00:00:00;1723334866;11/08/24;00:07:46;1.014;-0.028;0.081;-0.009773843921720982;-0.010995574295520782;0.0024434609804302454
01:00:0A:00:00:00:00;1723334867;11/08/24;00:07:47;1.014;-0.028;0.082;-0.009773843921720982;-0.009773843921720982;0.0036651913542300463
01:00:0A:00:00:00:00;1723334868;11/08/24;00:07:48;1.014;-0.029;0.082;-0.00855211354792118;-0.010995574295520782;0.0036651913542300463
01:00:0A:00:00:00:00;1723334869;11/08/24;00:07:49;1.014;-0.029;0.083;-0.00855211354792118;-0.012217304669320583;0.0024434609804302454
01:00:0A:00:00:00:00;1723334870;11/08/24;00:07:50;1.014;-0.029;0.082;-0.0073303827084600925;-0.012217304669320583;0.0036651913542300463
01:00:0A:00:00:00:00;1723334871;11/08/24;00:07:51;1.014;-0.028;0.083;-0.0073303827084600925;-0.009773843921720982;0.0036651913542300463
01:00:0A:00:00:00:00;1723334872;11/08/24;00:07:52;1.014;-0.028;0.083;-0.0073303827084600925;-0.010995574295520782;0.0036651913542300463
01:00:0A:00:00:00:00;1723334873;11/08/24;00:07:53;1.013;-0.029;0.081;-0.006108652334660292;-0.010995574295520782;0.0036651913542300463
01:00:0A:00:00:00:00;1723334874;11/08/24;00:07:54;1.013;-0.029;0.082;-0.006108652334660292;-0.012217304669320583;0.0036651913542300463
01:00:0A:00:00:00:00;1723334875;11/08/24;00:07:55;1.014;-0.029;0.082;-0.004886921960860491;-0.010995574295520782;0.0024434609804302454
01:00:0A:00:00:00:00;1723334876;11/08/24;00:07:56;1.014;-0.028;0.082;-0.004886921960860491;-0.010995574295520782;0.0036651913542300463
01:00:0A:00:00:00:00;1723334877;11/08/24;00:07:57;1.014;-0.03;0.083;-0.004886921960860491;-0.010995574295520782;0.0024434609804302454
01:00:0A:00:00:00:00;1723334878;11/08/24;00:07:58;1.013;-0.028;0.082;-0.004886921960860491;-0.012217304669320583;0.0024434609804302454
01:00:0A:00:00:00:00;1723334879;11/08/24;00:07:59;1.015;-0.029;0.082;-0.0036651913542300463;-0.010995574295520782;0.0036651913542300463
01:00:0A:00:00:00:00;1723334880;11/08/24;00:08:00;1.013;-0.029;0.082;-0.0036651913542300463;-0.010995574295520782;0.0036651913542300463
01:00:0A:00:00:00:00;1723334881;11/08/24;00:08:01;1.015;-0.029;0.081;-0.0036651913542300463;-0.010995574295520782;0.0036651913542300463
01:00:0A:00:00:00:00;1723334882;11/08/24;00:08:02;1.015;-0.028;0.082;-0.0036651913542300463;-0.012217304669320583;0.0036651913542300463
01:00:0A:00:00:00:00;1723334883;11/08/24;00:08:03;1.015;-0.028;0.082;-0.0024434609804302454;-0.012217304669320583;0.0024434609804302454
01:00:0A:00:00:00:00;1723334884;11/08/24;00:08:04;1.014;-0.027;0.083;-0.0024434609804302454;-0.012217304669320583;0.0036651913542300463
01:00:0A:00:00:00:00;1723334885;11/08/24;00:08:05;1.013;-0.029;0.082;-0.0012217304902151227;-0.010995574295520782;0.0036651913542300463
01:00:0A:00:00:00:00;1723334886;11/08/24;00:08:06;1.013;-0.029;0.083;-0.0012217304902151227;-0.010995574295520782;0.0036651913542300463
01:00:0A:00:00:00:00;1723334887;11/08/24;00:08:07;1.013;-0.029;0.082;-0.0012217304902151227;-0.012217304669320583;0.0036651913542300463
01:00:0A:00:00:00:00;1723334888;11/08/24;00:08:08;1.014;-0.028;0.082;-0.0012217304902151227;-0.010995574295520782;0.0036651913542300463
01:00:0A:00:00:00:00;1723334889;11/08/24;00:08:09;1.015;-0.029;0.082;0.0;-0.010995574295520782;0.0036651913542300463
01:00:0A:00:00:00:00;1723334890;11/08/24;00:08:10;1.014;-0.028;0.082;0.0;-0.010995574295520782;0.0036651913542300463
01:00:0A:00:00:00:00;1723334891;11/08/24;00:08:11;1.015;-0.029;0.083;0.0;-0.012217304669320583;0.0036651913542300463
01:00:0A:00:00:00:00;1723334892;11/08/24;00:08:12;1.014;-0.028;0.081;0.0;-0.012217304669320583;0.0024434609804302454
01:00:0A:00:00:00:00;1723334893;11/08/24;00:08:13;1.014;-0.027;0.081;0.0;-0.012217304669320583;0.0036651913542300463
01:00:0A:00:00:00:00;1723334894;11/08/24;00:08:14;1.015;-0.028;0.082;0.0012217304902151227;-0.010995574295520782;0.0036651913542300463
01:00:0A:00:00:00:00;1723334895;11/08/24;00:08:15;1.013;-0.029;0.083;0.0012217304902151227;-0.010995574295520782;0.0036651913542300463
01:00:0A:00:00:00:00;1723334896;11/08/24;00:08:16;1.014;-0.029;0.083;0.0012217304902151227;-0.010995574295520782;0.0024434609804302454
01:00:0A:00:00:00:00;1723334897;11/08/24;00:08:17;1.014;-0.029;0.083;0.0024434609804302454;-0.012217304669320583;0.0036651913542300463
01:00:0A:00:00:00:00;1723334898;11/08/24;00:08:18;1.014;-0.029;0.082;0.0024434609804302454;-0.010995574295520782;0.0036651913542300463
01:00:0A:00:00:00:00;1723334899;11/08/24;00:08:19;1.013;-0.029;0.083;0.0024434609804302454;-0.010995574295520782;0.004886921960860491
01:00:0A:00:00:00:00;1723334900;11/08/24;00:08:20;1.013;-0.029;0.082;0.0024434609804302454;-0.010995574295520782;0.0036651913542300463
01:00:0A:00:00:00:00;1723334901;11/08/24;00:08:21;1.013;-0.028;0.083;0.0036651913542300463;-0.012217304669320583;0.0024434609804302454
01:00:0A:00:00:00:00;1723334902;11/08/24;00:08:22;1.014;-0.028;0.082;0.0036651913542300463;-0.010995574295520782;0.0036651913542300463
01:00:0A:00:00:00:00;1723334903;11/08/24;00:08:23;1.014;-0.029;0.082;0.0036651913542300463;-0.010995574295520782;0.0036651913542300463
01:00:0A:00:00:00:00;1723334904;11/08/24;00:08:24;1.015;-0.029;0.082;0.004886921960860491;-0.010995574295520782;0.0036651913542300463
01:00:0A:00:00:00:00;1723334905;11/08/24;00:08:25;1.013;-0.029;0.083;0.004886921960860491;-0.012217304669320583;0.0036651913542300463
01:00:0A:00:00:00:00;1723334906;11/08/24;00:08:26;1.014;-0.028;0.081;0.004886921960860491;-0.012217304669320583;0.0036651913542300463
01:00:0A:00:00:00:00;1723334907;11/08/24;00:08:27;1.014;-0.029;0.082;0.004886921960860491;-0.010995574295520782;0.0036651913542300463
01:00:0A:00:00:00:00;1723334908;11/08/24;00:08:28;1.014;-0.029;0.082;0.006108652334660292;-0.010995574295520782;0.004886921960860491
01:00:0A:00:00:00:00;1723334909;11/08/24;00:08:29;1.014;-0.028;0.082;0.006108652334660292;-0.010995574295520782;0.0036651913542300463
01:00:0A:00:00:00:00;1723334910;11/08/24;00:08:30;1.014;-0.029;0.083;0.006108652334660292;-0.012217304669320583;0.0036651913542300463
01:00:0A:00:00:00:00;1723334911;11/08/24;00:08:31;1.014;-0.03;0.081;0.006108652334660292;-0.010995574295520782;0.0036651913542300463
01:00:0A:00:00:00:00;1723334912;11/08/24;00:08:32;1.013;-0.028;0.082;0.0073303827084600925;-0.010995574295520782;0.004886921960860491
01:00:0A:00:00:00:00;1723334913;11/08/24;00:08:33;1.014;-0.029;0.082;0.0073303827084600925;-0.010995574295520782;0.0036651913542300463
01:00:0A:00:00:00:00;1723334914;11/08/24;00:08:34;1.014;-0.028;0.082;0.0073303827084600925;-0.012217304669320583;0.0036651913542300463
01:00:0A:00:00:00:00;1723334915;11/08/24;00:08:35;1.014;-0.028;0.082;0.0073303827084600925;-0.012217304669320583;0.0036651913542300463
01:00:0A:00:00:00:00;1723334916;11/08/24;00:08:36;1.015;-0.029;0.082;0.0073303827084600925;-0.010995574295520782;0.0036651913542300463
01:00:0A:00:00:00:00;1723334917;11/08/24;00:08:37;1.014;-0.029;0.082;0.0073303827084600925;-0.010995574295520782;0.004886921960860491
01:00:0A:00:00:00:00;1723334918;11/08/24;00:08:38;1.015;-0.029;0.083;0.0073303827084600925;-0.010995574295520782;0.0036651913542300463
01:00:0A:00:00:00:00;1723334919;11/08/24;00:08:39;1.013;-0.028;0.082;0.0073303827084600925;-0.012217304669320583;0.0036651913542300463
01:00:0A:00:00:00:00;1723334920;11/08/24;00:08:40;1.015;-0.03;0.082;0.0073303827084600925;-0.012217304669320583;0.0036651913542300463
01:00:0A:00:00:00:00;1723334921;11/08/24;00:08:41;1.014;-0.029;0.082;0.00855211354792118;-0.010995574295520782;0.004886921960860491
01:00:0A:00:00:00:00;1723334922;11/08/24;00:08:42;1.014;-0.028;0.083;0.00855211354792118;-0.010995574295520782;0.0036651913542300463
01:00:0A:00:00:00:00;1723334923;11/08/24;00:08:43;1.013;-0.028;0.082;0.00855211354792118;-0.012217304669320583;0.0036651913542300463
01:00:0A:00:00:00:00;1723334924;11/08/24;00:08:44;1.014;-0.029;0.082;0.00855211354792118;-0.012217304669320583;0.0036651913542300463
01:00:0A:00:00:00:00;1723334925;11/08/24;00:08:45;1.014;-0.028;0.082;0.00855211354792118;-0.012217304669320583;0.004886921960860491
01:00:0A:00:00:00:00;1723334926;11/08/24;00:08:46;1.014;-0.029;0.083;0.00855211354792118;-0.010995574295520782;0.004886921960860491
01:00:0A:00:00:00:00;1723334927;11/08/24;00:08:47;1.014;-0.028;0.082;0.00855211354792118;-0.012217304669320583;0.0036651913542300463
01:00:0A:00:00:00:00;1723334928;11/08/24;00:08:48;1.014;-0.028;0.081;0.00855211354792118;-0.012217304669320583;0.0036651913542300463
01:00:0A:00:00:00:00;1723334929;11/08/24;00:08:49;1.014;-0.028;0.082;0.00855211354792118;-0.012217304669320583;0.004886921960860491
01:00:0A:00:00:00:00;1723334930;11/08/24;00:08:50;1.015;-0.027;0.082;0.00855211354792118;-0.010995574295520782;0.0036651913542300463
01:00:0A:00:00:00:00;1723334931;11/08/24;00:08:51;1.014;-0.029;0.082;0.009773843921720982;-0.010995574295520782;0.004886921960860491
01:00:0A:00:00:00:00;1723334932;11/08/24;00:08:52;1.015;-0.029;0.083;0.009773843921720982;-0.012217304669320583;0.0036651913542300463
01:00:0A:00:00:00:00;1723334933;11/08/24;00:08:53;1.014;-0.029;0.082;0.009773843921720982;-0.012217304669320583;0.0036651913542300463
01:00:0A:00:00:00:00;1723334934;11/08/24;00:08:54;1.014;-0.029;0.082;0.009773843921720982;-0.010995574295520782;0.004886921960860491
01:00:0A:00:00:00:00;1723334935;11/08/24;00:08:55;1.013;-0.029;0.082;0.009773843921720982;-0.010995574295520782;0.004886921960860491
01:00:0A:00:00:00:00;1723334936;11/08/24;00:08:56;1.014;-0.029;0.083;0.009773843921720982;-0.012217304669320583;0.0036651913542300463
01:00:0A:00:00:00:00;1723334937;11/08/24;00:08:57;1.014;-0.029;0.082;0.009773843921720982;-0.012217304669320583;0.0036651913542300463
01:00:0A:00:00:00:00;1723334938;11/08/24;00:08:58;1.016;-0.029;0.082;0.009773843921720982;-0.012217304669320583;0.0036651913542300463
01:00:0A:00:00:00:00;1723334939;11/08/24;00:08:59;1.013;-0.029;0.081;0.009773843921720982;-0.010995574295520782;0.004886921960860491
01:00:0A:00:00:00:00;1723334940;11/08/24;00:09:00;1.013;-0.029;0.083;0.009773843921720982;-0.010995574295520782;0.004886921960860491
01:00:0A:00:00:00:00;1723334941;11/08/24;00:09:01;1.015;-0.028;0.082;0.010995574295520782;-0.012217304669320583;0.0036651913542300463
01:00:0A:00:00:00:00;1723334942;11/08/24;00:09:02;1.015;-0.029;0.082;0.010995574295520782;-0.012217304669320583;0.0036651913542300463
01:00:0A:00:00:00:00;1723334943;11/08/24;00:09:03;1.014;-0.027;0.083;0.010995574295520782;-0.010995574295520782;0.0036651913542300463
01:00:0A:00:00:00:00;1723334944;11/08/24;00:09:04;1.013;-0.029;0.082;0.010995574295520782;-0.010995574295520782;0.004886921960860491
01:00:0A:00:00:00:00;1723334945;11/08/24;00:09:05;1.015;-0.029;0.083;0.010995574295520782;-0.010995574295520782;0.0036651913542300463
01:00:0A:00:00:00:00;1723334946;11/08/24;00:09:06;1.014;-0.029;0.082;0.010995574295520782;-0.012217304669320583;0.0036651913542300463
01:00:0A:00:00:00:00;1723334947;11/08/24;00:09:07;1.015;-0.029;0.083;0.010995574295520782;-0.010995574295520782;0.0036651913542300463
01:00:0A:00:00:00:00;1723334948;11/08/24;00:09:08;1.014;-0.029;0.082;0.010995574295520782;-0.010995574295520782;0.004886921960860491
01:00:0A:00:00:00:00;1723334949;11/08/24;00:09:09;1.014;-0.028;0.081;0.010995574295520782;-0.010995574295520782;0.0036651913542300463
01:00:0A:00:00:00:00;1723334950;11/08/24;00:09:10;1.014;-0.028;0.082;0.012217304669320583;-0.012217304669320583;0.0036651913542300463
01:00:0A:00:00:00:00;1723334951;11/08/24;00:09:11;1.015;-0.028;0.083;0.010995574295520782;-0.010995574295520782;0.0036651913542300463
01:00:0A:00:00:00:00;1723334952;11/08/24;00:09:12;1.014;-0.03;0.082;0.012217304669320583;-0.010995574295520782;0.0036651913542300463
01:00:0A:00:00:00:00;1723334953;11/08/24;00:09:13;1.013;-0.029;0.082;0.010995574295520782;-0.010995574295520782;0.0036651913542300463
01:00:0A:00:00:00:00;1723334954;11/08/24;00:09:14;1.014;-0.029;0.082;0.012217304669320583;-0.010995574295520782;0.0036651913542300463
01:00:0A:00:00:00:00;1723334955;11/08/24;00:09:15;1.014;-0.028;0.081;0.012217304669320583;-0.012217304669320583;0.0036651913542300463
01:00:0A:00:00:00:00;1723334956;11/08/24;00:09:16;1.014;-0.028;0.082;0.012217304669320583;-0.012217304669320583;0.004886921960860491
01:00:0A:00:00:00:00;1723334957;11/08/24;00:09:17;1.015;-0.028;0.083;0.012217304669320583;-0.010995574295520782;0.004886921960860491
01:00:0A:00:00:00:00;1723334958;11/08/24;00:09:18;1.014;-0.028;0.083;0.012217304669320583;-0.010995574295520782;0.0036651913542300463
01:00:0A:00:00:00:00;1723334959;11/08/24;00:09:19;1.014;-0.028;0.083;0.012217304669320583;-0.012217304669320583;0.0036651913542300463
01:00:0A:00:00:00:00;1723334960;11/08/24;00:09:20;1.013;-0.029;0.082;0.012217304669320583;-0.012217304669320583;0.0036651913542300463
01:00:0A:00:00:00:00;1723334961;11/08/24;00:09:21;1.013;-0.029;0.083;0.012217304669320583;-0.010995574295520782;0.0036651913542300463
01:00:0A:00:00:00:00;1723334962;11/08/24;00:09:22;1.014;-0.028;0.082;0.012217304669320583;-0.010995574295520782;0.004886921960860491
01:00:0A:00:00:00:00;1723334963;11/08/24;00:09:23;1.013;-0.028;0.083;0.013439035043120384;-0.012217304669320583;0.0036651913542300463
01:00:0A:00:00:00:00;1723334964;11/08/24;00:09:24;1.014;-0.029;0.082;0.013439035043120384;-0.012217304669320583;0.0036651913542300463
01:00:0A:00:00:00:00;1723334965;11/08/24;00:09:25;1.014;-0.029;0.082;0.013439035043120384;-0.012217304669320583;0.004886921960860491
01:00:0A:00:00:00:00;1723334966;11/08/24;00:09:26;1.014;-0.028;0.082;0.013439035043120384;-0.010995574295520782;0.004886921960860491
01:00:0A:00:00:00:00;1723334967;11/08/24;00:09:27;1.015;-0.029;0.083;0.013439035043120384;-0.010995574295520782;0.004886921960860491
01:00:0A:00:00:00:00;1723334968;11/08/24;00:09:28;1.014;-0.028;0.082;0.013439035043120384;-0.012217304669320583;0.0036651913542300463
01:00:0A:00:00:00:00;1723334969;11/08/24;00:09:29;1.014;-0.028;0.082;0.013439035043120384;-0.012217304669320583;0.0036651913542300463
01:00:0A:00:00:00:00;1723334970;11/08/24;00:09:30;1.014;-0.028;0.082;0.013439035043120384;-0.010995574295520782;0.004886921960860491
01:00:0A:00:00:00:00;1723334971;11/08/24;00:09:31;1.015;-0.029;0.082;0.013439035043120384;-0.010995574295520782;0.004886921960860491
01:00:0A:00:00:00:00;1723334972;11/08/24;00:09:32;1.014;-0.028;0.083;0.013439035043120384;-0.010995574295520782;0.0036651913542300463
01:00:0A:00:00:00:00;1723334973;11/08/24;00:09:33;1.014;-0.03;0.082;0.013439035043120384;-0.012217304669320583;0.0036651913542300463
01:00:0A:00:00:00:00;1723334974;11/08/24;00:09:34;1.015;-0.029;0.082;0.013439035043120384;-0.010995574295520782;0.004886921960860491
01:00:0A:00:00:00:00;1723334975;11/08/24;00:09:35;1.013;-0.032;0.076;0.014660765416920185;-0.021991148591041565;0.00855211354792118
01:00:0A:00:00:00:00;1723334976;11/08/24;00:09:36;1.013;-0.033;0.072;0.030543262138962746;-0.009773843921720982;0.0024434609804302454
01:00:0A:00:00:00:00;1723334977;11/08/24;00:09:37;1.014;-0.034;0.077;0.039095375686883926;-0.0036651913542300463;0.0036651913542300463
01:00:0A:00:00:00:00;1723334978;11/08/24;00:09:38;1.014;-0.026;0.089;0.036651913076639175;-0.009773843921720982;0.0024434609804302454
01:00:0A:00:00:00:00;1723334979;11/08/24;00:09:39;1.014;-0.03;0.08;0.028099799528717995;-0.024434609338641167;0.012217304669320583
01:00:0A:00:00:00:00;1723334980;11/08/24;00:09:40;1.014;-0.031;0.08;0.036651913076639175;-0.0024434609804302454;0.0024434609804302454
01:00:0A:00:00:00:00;1723334981;11/08/24;00:09:41;1.013;-0.025;0.088;0.03298672288656235;-0.009773843921720982;0.0024434609804302454
01:00:0A:00:00:00:00;1723334982;11/08/24;00:09:42;1.014;-0.028;0.081;0.02687807008624077;-0.02321287989616394;0.010995574295520782
01:00:0A:00:00:00:00;1723334983;11/08/24;00:09:43;1.014;-0.031;0.08;0.0354301817715168;-0.0036651913542300463;0.0012217304902151227
01:00:0A:00:00:00:00;1723334984;11/08/24;00:09:44;1.015;-0.026;0.087;0.03176499158143997;-0.009773843921720982;0.004886921960860491
01:00:0A:00:00:00:00;1723334985;11/08/24;00:09:45;1.014;-0.03;0.081;0.028099799528717995;-0.019547687843441963;0.009773843921720982
01:00:0A:00:00:00:00;1723334986;11/08/24;00:09:46;1.015;-0.03;0.081;0.03420845419168472;-0.0036651913542300463;0.0012217304902151227
01:00:0A:00:00:00:00;1723334987;11/08/24;00:09:47;1.014;-0.026;0.087;0.02932153083384037;-0.013439035043120384;0.004886921960860491
01:00:0A:00:00:00:00;1723334988;11/08/24;00:09:48;1.014;-0.029;0.08;0.02687807008624077;-0.018325956538319588;0.009773843921720982
01:00:0A:00:00:00:00;1723334989;11/08/24;00:09:49;1.014;-0.031;0.081;0.03298672288656235;-0.004886921960860491;0.0012217304902151227
01:00:0A:00:00:00:00;1723334990;11/08/24;00:09:50;1.014;-0.026;0.086;0.028099799528717995;-0.013439035043120384;0.004886921960860491
01:00:0A:00:00:00:00;1723334991;11/08/24;00:09:51;1.014;-0.03;0.081;0.02687807008624077;-0.01710422709584236;0.00855211354792118
01:00:0A:00:00:00:00;1723334992;11/08/24;00:09:52;1.014;-0.029;0.083;0.03298672288656235;-0.006108652334660292;0.0012217304902151227
01:00:0A:00:00:00:00;1723334993;11/08/24;00:09:53;1.013;-0.026;0.085;0.028099799528717995;-0.013439035043120384;0.006108652334660292
01:00:0A:00:00:00:00;1723334994;11/08/24;00:09:54;1.014;-0.031;0.081;0.028099799528717995;-0.014660765416920185;0.0073303827084600925
01:00:0A:00:00:00:00;1723334995;11/08/24;00:09:55;1.015;-0.029;0.082;0.03176499158143997;-0.0073303827084600925;0.0012217304902151227
01:00:0A:00:00:00:00;1723334996;11/08/24;00:09:56;1.014;-0.026;0.084;0.02687807008624077;-0.014660765416920185;0.0073303827084600925
01:00:0A:00:00:00:00;1723334997;11/08/24;00:09:57;1.014;-0.031;0.081;0.02687807008624077;-0.014660765416920185;0.0073303827084600925
01:00:0A:00:00:00:00;1723334998;11/08/24;00:09:58;1.014;-0.029;0.082;0.030543262138962746;-0.0073303827084600925;0.0012217304902151227
01:00:0A:00:00:00:00;1723334999;11/08/24;00:09:59;1.015;-0.028;0.084;0.02687807008624077;-0.014660765416920185;0.0073303827084600925
01:00:0A:00:00:00:00;1723335000;11/08/24;00:10:00;1.014;-0.031;0.081;0.02687807008624077;-0.013439035043120384;0.006108652334660292
01:00:0A:00:00:00:00;1723335001;11/08/24;00:10:01;1.014;-0.029;0.083;0.02932153083384037;-0.00855211354792118;0.0024434609804302454
01:00:0A:00:00:00:00;1723335002;11/08/24;00:10:02;1.014;-0.027;0.083;0.02687807008624077;-0.013439035043120384;0.0073303827084600925
01:00:0A:00:00:00:00;1723335003;11/08/24;00:10:03;1.014;-0.031;0.082;0.028099799528717995;-0.010995574295520782;0.004886921960860491
01:00:0A:00:00:00:00;1723335004;11/08/24;00:10:04;1.015;-0.028;0.083;0.02932153083384037;-0.009773843921720982;0.0024434609804302454
01:00:0A:00:00:00:00;1723335005;11/08/24;00:10:05;1.015;-0.027;0.083;0.025656338781118393;-0.013439035043120384;0.0073303827084600925
01:00:0A:00:00:00:00;1723335006;11/08/24;00:10:06;1.015;-0.03;0.082;0.02687807008624077;-0.012217304669320583;0.004886921960860491
01:00:0A:00:00:00:00;1723335007;11/08/24;00:10:07;1.014;-0.028;0.082;0.028099799528717995;-0.009773843921720982;0.0024434609804302454
01:00:0A:00:00:00:00;1723335008;11/08/24;00:10:08;1.014;-0.029;0.083;0.025656338781118393;-0.013439035043120384;0.0073303827084600925
01:00:0A:00:00:00:00;1723335009;11/08/24;00:10:09;1.014;-0.03;0.082;0.02687807008624077;-0.012217304669320583;0.004886921960860491
01:00:0A:00:00:00:00;1723335010;11/08/24;00:10:10;1.014;-0.028;0.082;0.02687807008624077;-0.010995574295520782;0.0036651913542300463
01:00:0A:00:00:00:00;1723335011;11/08/24;00:10:11;1.014;-0.028;0.083;0.025656338781118393;-0.013439035043120384;0.0073303827084600925
01:00:0A:00:00:00:00;1723335012;11/08/24;00:10:12;1.013;-0.03;0.081;0.02687807008624077;-0.010995574295520782;0.004886921960860491
01:00:0A:00:00:00:00;1723335013;11/08/24;00:10:13;1.013;-0.027;0.082;0.02687807008624077;-0.010995574295520782;0.0036651913542300463
01:00:0A:00:00:00:00;1723335014;11/08/24;00:10:14;1.015;-0.028;0.082;0.024434609338641167;-0.013439035043120384;0.006108652334660292
01:00:0A:00:00:00:00;1723335015;11/08/24;00:10:15;1.014;-0.029;0.082;0.02687807008624077;-0.010995574295520782;0.0036651913542300463
01:00:0A:00:00:00:00;1723335016;11/08/24;00:10:16;1.014;-0.028;0.084;0.025656338781118393;-0.010995574295520782;0.004886921960860491
01:00:0A:00:00:00:00;1723335017;11/08/24;00:10:17;1.014;-0.029;0.083;0.024434609338641167;-0.012217304669320583;0.006108652334660292
01:00:0A:00:00:00:00;1723335018;11/08/24;00:10:18;1.014;-0.029;0.082;0.025656338781118393;-0.012217304669320583;0.004886921960860491
01:00:0A:00:00:00:00;1723335019;11/08/24;00:10:19;1.014;-0.027;0.082;0.025656338781118393;-0.012217304669320583;0.004886921960860491
01:00:0A:00:00:00:00;1723335020;11/08/24;00:10:20;1.014;-0.029;0.083;0.024434609338641167;-0.012217304669320583;0.006108652334660292
01:00:0A:00:00:00:00;1723335021;11/08/24;00:10:21;1.015;-0.03;0.082;0.025656338781118393;-0.010995574295520782;0.0036651913542300463
01:00:0A:00:00:00:00;1723335022;11/08/24;00:10:22;1.014;-0.028;0.082;0.024434609338641167;-0.012217304669320583;0.004886921960860491
01:00:0A:00:00:00:00;1723335023;11/08/24;00:10:23;1.013;-0.03;0.082;0.02321287989616394;-0.013439035043120384;0.006108652334660292
01:00:0A:00:00:00:00;1723335024;11/08/24;00:10:24;1.014;-0.03;0.082;0.024434609338641167;-0.010995574295520782;0.0036651913542300463
01:00:0A:00:00:00:00;1723335025;11/08/24;00:10:25;1.014;-0.028;0.083;0.024434609338641167;-0.010995574295520782;0.004886921960860491
01:00:0A:00:00:00:00;1723335026;11/08/24;00:10:26;1.014;-0.029;0.082;0.02321287989616394;-0.012217304669320583;0.006108652334660292
01:00:0A:00:00:00:00;1723335027;11/08/24;00:10:27;1.015;-0.028;0.082;0.024434609338641167;-0.010995574295520782;0.0036651913542300463
01:00:0A:00:00:00:00;1723335028;11/08/24;00:10:28;1.014;-0.029;0.082;0.02321287989616394;-0.012217304669320583;0.006108652334660292
01:00:0A:00:00:00:00;1723335029;11/08/24;00:10:29;1.013;-0.028;0.082;0.02321287989616394;-0.010995574295520782;0.004886921960860491
01:00:0A:00:00:00:00;1723335030;11/08/24;00:10:30;1.015;-0.028;0.083;0.02321287989616394;-0.012217304669320583;0.0036651913542300463
01:00:0A:00:00:00:00;1723335031;11/08/24;00:10:31;1.014;-0.028;0.082;0.02321287989616394;-0.012217304669320583;0.004886921960860491
01:00:0A:00:00:00:00;1723335032;11/08/24;00:10:32;1.016;-0.028;0.082;0.021991148591041565;-0.012217304669320583;0.004886921960860491
01:00:0A:00:00:00:00;1723335033;11/08/24;00:10:33;1.014;-0.029;0.083;0.02321287989616394;-0.010995574295520782;0.004886921960860491
01:00:0A:00:00:00:00;1723335034;11/08/24;00:10:34;1.014;-0.028;0.083;0.02321287989616394;-0.010995574295520782;0.004886921960860491
01:00:0A:00:00:00:00;1723335035;11/08/24;00:10:35;1.014;-0.028;0.083;0.021991148591041565;-0.012217304669320583;0.004886921960860491
01:00:0A:00:00:00:00;1723335036;11/08/24;00:10:36;1.014;-0.028;0.083;0.021991148591041565;-0.012217304669320583;0.0036651913542300463
01:00:0A:00:00:00:00;1723335037;11/08/24;00:10:37;1.014;-0.028;0.082;0.021991148591041565;-0.012217304669320583;0.006108652334660292
01:00:0A:00:00:00:00;1723335038;11/08/24;00:10:38;1.014;-0.029;0.081;0.021991148591041565;-0.010995574295520782;0.004886921960860491
01:00:0A:00:00:00:00;1723335039;11/08/24;00:10:39;1.013;-0.028;0.083;0.021991148591041565;-0.010995574295520782;0.0036651913542300463
01:00:0A:00:00:00:00;1723335040;11/08/24;00:10:40;1.013;-0.029;0.081;0.02076941914856434;-0.012217304669320583;0.004886921960860491
01:00:0A:00:00:00:00;1723335041;11/08/24;00:10:41;1.015;-0.029;0.083;0.021991148591041565;-0.012217304669320583;0.004886921960860491
01:00:0A:00:00:00:00;1723335042;11/08/24;00:10:42;1.014;-0.028;0.082;0.02076941914856434;-0.012217304669320583;0.004886921960860491
01:00:0A:00:00:00:00;1723335043;11/08/24;00:10:43;1.015;-0.029;0.082;0.02076941914856434;-0.010995574295520782;0.004886921960860491
01:00:0A:00:00:00:00;1723335044;11/08/24;00:10:44;1.013;-0.029;0.082;0.02076941914856434;-0.012217304669320583;0.004886921960860491
01:00:0A:00:00:00:00;1723335045;11/08/24;00:10:45;1.014;-0.029;0.082;0.02076941914856434;-0.012217304669320583;0.004886921960860491
01:00:0A:00:00:00:00;1723335046;11/08/24;00:10:46;1.015;-0.028;0.083;0.019547687843441963;-0.012217304669320583;0.004886921960860491
01:00:0A:00:00:00:00;1723335047;11/08/24;00:10:47;1.014;-0.028;0.082;0.019547687843441963;-0.010995574295520782;0.004886921960860491
01:00:0A:00:00:00:00;1723335048;11/08/24;00:10:48;1.014;-0.028;0.082;0.019547687843441963;-0.010995574295520782;0.004886921960860491
01:00:0A:00:00:00:00;1723335049;11/08/24;00:10:49;1.014;-0.028;0.083;0.019547687843441963;-0.012217304669320583;0.006108652334660292
01:00:0A:00:00:00:00;1723335050;11/08/24;00:10:50;1.015;-0.03;0.082;0.019547687843441963;-0.010995574295520782;0.004886921960860491
01:00:0A:00:00:00:00;1723335051;11/08/24;00:10:51;1.014;-0.028;0.083;0.019547687843441963;-0.010995574295520782;0.004886921960860491
01:00:0A:00:00:00:00;1723335052;11/08/24;00:10:52;1.014;-0.03;0.083;0.018325956538319588;-0.012217304669320583;0.004886921960860491
01:00:0A:00:00:00:00;1723335053;11/08/24;00:10:53;1.014;-0.028;0.082;0.018325956538319588;-0.010995574295520782;0.004886921960860491
01:00:0A:00:00:00:00;1723335054;11/08/24;00:10:54;1.014;-0.028;0.082;0.018325956538319588;-0.012217304669320583;0.004886921960860491
01:00:0A:00:00:00:00;1723335055;11/08/24;00:10:55;1.014;-0.028;0.082;0.018325956538319588;-0.012217304669320583;0.004886921960860491
01:00:0A:00:00:00:00;1723335056;11/08/24;00:10:56;1.014;-0.029;0.083;0.018325956538319588;-0.012217304669320583;0.004886921960860491
01:00:0A:00:00:00:00;1723335057;11/08/24;00:10:57;1.013;-0.028;0.083;0.01710422709584236;-0.010995574295520782;0.0036651913542300463
01:00:0A:00:00:00:00;1723335058;11/08/24;00:10:58;1.015;-0.028;0.083;0.01710422709584236;-0.012217304669320583;0.004886921960860491
01:00:0A:00:00:00:00;1723335059;11/08/24;00:10:59;1.013;-0.03;0.083;0.01710422709584236;-0.012217304669320583;0.004886921960860491
01:00:0A:00:00:00:00;1723335060;11/08/24;00:11:00;1.015;-0.029;0.081;0.01710422709584236;-0.010995574295520782;0.004886921960860491
01:00:0A:00:00:00:00;1723335061;11/08/24;00:11:01;1.015;-0.029;0.082;0.01710422709584236;-0.012217304669320583;0.004886921960860491
01:00:0A:00:00:00:00;1723335062;11/08/24;00:11:02;1.013;-0.029;0.083;0.015882495790719986;-0.010995574295520782;0.0036651913542300463
01:00:0A:00:00:00:00;1723335063;11/08/24;00:11:03;1.014;-0.029;0.082;0.015882495790719986;-0.012217304669320583;0.004886921960860491
01:00:0A:00:00:00:00;1723335064;11/08/24;00:11:04;1.015;-0.029;0.082;0.015882495790719986;-0.010995574295520782;0.004886921960860491
01:00:0A:00:00:00:00;1723335065;11/08/24;00:11:05;1.014;-0.029;0.084;0.015882495790719986;-0.010995574295520782;0.0036651913542300463
01:00:0A:00:00:00:00;1723335066;11/08/24;00:11:06;1.014;-0.028;0.082;0.014660765416920185;-0.012217304669320583;0.004886921960860491
01:00:0A:00:00:00:00;1723335067;11/08/24;00:11:07;1.014;-0.028;0.083;0.014660765416920185;-0.012217304669320583;0.004886921960860491
01:00:0A:00:00:00:00;1723335068;11/08/24;00:11:08;1.014;-0.029;0.082;0.014660765416920185;-0.012217304669320583;0.004886921960860491
01:00:0A:00:00:00:00;1723335069;11/08/24;00:11:09;1.015;-0.029;0.082;0.014660765416920185;-0.012217304669320583;0.004886921960860491
01:00:0A:00:00:00:00;1723335070;11/08/24;00:11:10;1.013;-0.029;0.082;0.014660765416920185;-0.012217304669320583;0.0036651913542300463
01:00:0A:00:00:00:00;1723335071;11/08/24;00:11:11;1.013;-0.028;0.082;0.014660765416920185;-0.010995574295520782;0.0036651913542300463
01:00:0A:00:00:00:00;1723335072;11/08/24;00:11:12;1.014;-0.028;0.082;0.013439035043120384;-0.012217304669320583;0.0036651913542300463
01:00:0A:00:00:00:00;1723335073;11/08/24;00:11:13;1.015;-0.028;0.082;0.013439035043120384;-0.012217304669320583;0.004886921960860491
01:00:0A:00:00:00:00;1723335074;11/08/24;00:11:14;1.014;-0.028;0.083;0.013439035043120384;-0.010995574295520782;0.0036651913542300463
01:00:0A:00:00:00:00;1723335075;11/08/24;00:11:15;1.014;-0.028;0.082;0.013439035043120384;-0.012217304669320583;0.004886921960860491
01:00:0A:00:00:00:00;1723335076;11/08/24;00:11:16;1.015;-0.028;0.082;0.013439035043120384;-0.012217304669320583;0.004886921960860491
01:00:0A:00:00:00:00;1723335077;11/08/24;00:11:17;1.014;-0.028;0.082;0.012217304669320583;-0.012217304669320583;0.004886921960860491
01:00:0A:00:00:00:00;1723335078;11/08/24;00:11:18;1.014;-0.029;0.082;0.013439035043120384;-0.012217304669320583;0.0036651913542300463
01:00:0A:00:00:00:00;1723335079;11/08/24;00:11:19;1.015;-0.029;0.083;0.013439035043120384;-0.010995574295520782;0.0036651913542300463
01:00:0A:00:00:00:00;1723335080;11/08/24;00:11:20;1.014;-0.028;0.082;0.012217304669320583;-0.012217304669320583;0.004886921960860491
01:00:0A:00:00:00:00;1723335081;11/08/24;00:11:21;1.014;-0.029;0.082;0.012217304669320583;-0.012217304669320583;0.004886921960860491
01:00:0A:00:00:00:00;1723335082;11/08/24;00:11:22;1.013;-0.029;0.083;0.012217304669320583;-0.012217304669320583;0.004886921960860491
01:00:0A:00:00:00:00;1723335083;11/08/24;00:11:23;1.014;-0.03;0.084;0.012217304669320583;-0.010995574295520782;0.0036651913542300463
01:00:0A:00:00:00:00;1723335084;11/08/24;00:11:24;1.014;-0.029;0.082;0.012217304669320583;-0.012217304669320583;0.0036651913542300463
01:00:0A:00:00:00:00;1723335085;11/08/24;00:11:25;1.014;-0.03;0.083;0.012217304669320583;-0.012217304669320583;0.004886921960860491
01:00:0A:00:00:00:00;1723335086;11/08/24;00:11:26;1.014;-0.028;0.083;0.012217304669320583;-0.012217304669320583;0.0036651913542300463
01:00:0A:00:00:00:00;1723335087;11/08/24;00:11:27;1.015;-0.029;0.082;0.012217304669320583;-0.012217304669320583;0.004886921960860491
01:00:0A:00:00:00:00;1723335088;11/08/24;00:11:28;1.013;-0.029;0.082;0.012217304669320583;-0.010995574295520782;0.0036651913542300463
01:00:0A:00:00:00:00;1723335089;11/08/24;00:11:29;1.014;-0.028;0.082;0.012217304669320583;-0.012217304669320583;0.004886921960860491
01:00:0A:00:00:00:00;1723335090;11/08/24;00:11:30;1.014;-0.029;0.083;0.012217304669320583;-0.012217304669320583;0.004886921960860491
01:00:0A:00:00:00:00;1723335091;11/08/24;00:11:31;1.014;-0.029;0.083;0.012217304669320583;-0.012217304669320583;0.004886921960860491
01:00:0A:00:00:00:00;1723335092;11/08/24;00:11:32;1.014;-0.029;0.083;0.012217304669320583;-0.010995574295520782;0.0036651913542300463
01:00:0A:00:00:00:00;1723335093;11/08/24;00:11:33;1.014;-0.029;0.082;0.012217304669320583;-0.010995574295520782;0.0036651913542300463
01:00:0A:00:00:00:00;1723335094;11/08/24;00:11:34;1.014;-0.028;0.082;0.012217304669320583;-0.012217304669320583;0.004886921960860491
01:00:0A:00:00:00:00;1723335095;11/08/24;00:11:35;1.014;-0.029;0.083;0.012217304669320583;-0.012217304669320583;0.0036651913542300463
01:00:0A:00:00:00:00;1723335096;11/08/24;00:11:36;1.013;-0.029;0.081;0.012217304669320583;-0.012217304669320583;0.0036651913542300463
01:00:0A:00:00:00:00;1723335097;11/08/24;00:11:37;1.014;-0.029;0.083;0.012217304669320583;-0.010995574295520782;0.0036651913542300463
01:00:0A:00:00:00:00;1723335098;11/08/24;00:11:38;1.013;-0.029;0.082;0.012217304669320583;-0.012217304669320583;0.0036651913542300463
01:00:0A:00:00:00:00;1723335099;11/08/24;00:11:39;1.014;-0.031;0.077;0.006108652334660292;-0.03176499158143997;0.009773843921720982
01:00:0A:00:00:00:00;1723335100;11/08/24;00:11:40;1.014;-0.033;0.067;0.0036651913542300463;-0.0073303827084600925;0.0012217304902151227
01:00:0A:00:00:00:00;1723335101;11/08/24;00:11:41;1.015;-0.029;0.08;0.010995574295520782;0.0036651913542300463;0.0012217304902151227
01:00:0A:00:00:00:00;1723335102;11/08/24;00:11:42;1.014;-0.028;0.089;0.0073303827084600925;-0.010995574295520782;0.0024434609804302454
01:00:0A:00:00:00:00;1723335103;11/08/24;00:11:43;1.014;-0.03;0.08;0.0036651913542300463;-0.02321287989616394;0.004886921960860491
01:00:0A:00:00:00:00;1723335104;11/08/24;00:11:44;1.015;-0.029;0.08;0.009773843921720982;-0.0012217304902151227;0.0024434609804302454
01:00:0A:00:00:00:00;1723335105;11/08/24;00:11:45;1.015;-0.028;0.088;0.0073303827084600925;-0.013439035043120384;0.004886921960860491
01:00:0A:00:00:00:00;1723335106;11/08/24;00:11:46;1.015;-0.029;0.08;0.004886921960860491;-0.02076941914856434;0.004886921960860491
01:00:0A:00:00:00:00;1723335107;11/08/24;00:11:47;1.013;-0.029;0.081;0.012217304669320583;-0.0012217304902151227;0.0024434609804302454
01:00:0A:00:00:00:00;1723335108;11/08/24;00:11:48;1.014;-0.027;0.087;0.0073303827084600925;-0.014660765416920185;0.004886921960860491
01:00:0A:00:00:00:00;1723335109;11/08/24;00:11:49;1.014;-0.03;0.079;0.0073303827084600925;-0.018325956538319588;0.004886921960860491
01:00:0A:00:00:00:00;1723335110;11/08/24;00:11:50;1.014;-0.029;0.083;0.012217304669320583;-0.0024434609804302454;0.0024434609804302454
01:00:0A:00:00:00:00;1723335111;11/08/24;00:11:51;1.015;-0.029;0.086;0.00855211354792118;-0.013439035043120384;0.004886921960860491
01:00:0A:00:00:00:00;1723335112;11/08/24;00:11:52;1.015;-0.028;0.08;0.00855211354792118;-0.01710422709584236;0.0036651913542300463
01:00:0A:00:00:00:00;1723335113;11/08/24;00:11:53;1.013;-0.031;0.082;0.012217304669320583;-0.0036651913542300463;0.0036651913542300463
01:00:0A:00:00:00:00;1723335114;11/08/24;00:11:54;1.014;-0.029;0.086;0.00855211354792118;-0.015882495790719986;0.004886921960860491
01:00:0A:00:00:00:00;1723335115;11/08/24;00:11:55;1.014;-0.03;0.08;0.009773843921720982;-0.014660765416920185;0.0036651913542300463
01:00:0A:00:00:00:00;1723335116;11/08/24;00:11:56;1.014;-0.029;0.082;0.012217304669320583;-0.004886921960860491;0.0036651913542300463
01:00:0A:00:00:00:00;1723335117;11/08/24;00:11:57;1.014;-0.028;0.085;0.009773843921720982;-0.015882495790719986;0.004886921960860491
01:00:0A:00:00:00:00;1723335118;11/08/24;00:11:58;1.015;-0.03;0.081;0.009773843921720982;-0.014660765416920185;0.0036651913542300463
01:00:0A:00:00:00:00;1723335119;11/08/24;00:11:59;1.013;-0.029;0.084;0.013439035043120384;-0.004886921960860491;0.0036651913542300463
01:00:0A:00:00:00:00;1723335120;11/08/24;00:12:00;1.014;-0.028;0.085;0.009773843921720982;-0.015882495790719986;0.004886921960860491
01:00:0A:00:00:00:00;1723335121;11/08/24;00:12:01;1.014;-0.029;0.08;0.010995574295520782;-0.013439035043120384;0.0036651913542300463
01:00:0A:00:00:00:00;1723335122;11/08/24;00:12:02;1.014;-0.028;0.083;0.013439035043120384;-0.0073303827084600925;0.0036651913542300463
01:00:0A:00:00:00:00;1723335123;11/08/24;00:12:03;1.014;-0.029;0.083;0.010995574295520782;-0.015882495790719986;0.004886921960860491
01:00:0A:00:00:00:00;1723335124;11/08/24;00:12:04;1.014;-0.03;0.081;0.012217304669320583;-0.012217304669320583;0.0036651913542300463
01:00:0A:00:00:00:00;1723335125;11/08/24;00:12:05;1.013;-0.028;0.085;0.013439035043120384;-0.00855211354792118;0.004886921960860491
01:00:0A:00:00:00:00;1723335126;11/08/24;00:12:06;1.014;-0.029;0.083;0.012217304669320583;-0.015882495790719986;0.004886921960860491
01:00:0A:00:00:00:00;1723335127;11/08/24;00:12:07;1.014;-0.03;0.081;0.013439035043120384;-0.012217304669320583;0.0036651913542300463
01:00:0A:00:00:00:00;1723335128;11/08/24;00:12:08;1.014;-0.03;0.083;0.014660765416920185;-0.0073303827084600925;0.0036651913542300463
01:00:0A:00:00:00:00;1723335129;11/08/24;00:12:09;1.014;-0.029;0.084;0.012217304669320583;-0.014660765416920185;0.004886921960860491
01:00:0A:00:00:00:00;1723335130;11/08/24;00:12:10;1.014;-0.031;0.082;0.014660765416920185;-0.010995574295520782;0.0036651913542300463
01:00:0A:00:00:00:00;1723335131;11/08/24;00:12:11;1.015;-0.027;0.083;0.014660765416920185;-0.009773843921720982;0.004886921960860491
01:00:0A:00:00:00:00;1723335132;11/08/24;00:12:12;1.013;-0.029;0.082;0.010995574295520782;-0.021991148591041565;0.00855211354792118
01:00:0A:00:00:00:00;1723335133;11/08/24;00:12:13;1.014;-0.034;0.075;0.012217304669320583;-0.014660765416920185;0.0036651913542300463
01:00:0A:00:00:00:00;1723335134;11/08/24;00:12:14;1.014;-0.03;0.081;0.010995574295520782;-0.0024434609804302454;0.0012217304902151227
01:00:0A:00:00:00:00;1723335135;11/08/24;00:12:15;1.012;-0.028;0.087;0.0073303827084600925;-0.009773843921720982;0.0036651913542300463
01:00:0A:00:00:00:00;1723335136;11/08/24;00:12:16;1.013;-0.03;0.081;0.004886921960860491;-0.019547687843441963;0.006108652334660292
01:00:0A:00:00:00:00;1723335137;11/08/24;00:12:17;1.014;-0.03;0.08;0.010995574295520782;-0.004886921960860491;0.0024434609804302454
01:00:0A:00:00:00:00;1723335138;11/08/24;00:12:18;1.013;-0.027;0.088;0.00855211354792118;-0.009773843921720982;0.0036651913542300463
01:00:0A:00:00:00:00;1723335139;11/08/24;00:12:19;1.014;-0.03;0.08;0.006108652334660292;-0.018325956538319588;0.006108652334660292
01:00:0A:00:00:00:00;1723335140;11/08/24;00:12:20;1.015;-0.029;0.081;0.010995574295520782;-0.006108652334660292;0.0024434609804302454
01:00:0A:00:00:00:00;1723335141;11/08/24;00:12:21;1.014;-0.028;0.086;0.00855211354792118;-0.012217304669320583;0.004886921960860491
01:00:0A:00:00:00:00;1723335142;11/08/24;00:12:22;1.014;-0.029;0.081;0.00855211354792118;-0.01710422709584236;0.004886921960860491
01:00:0A:00:00:00:00;1723335143;11/08/24;00:12:23;1.014;-0.028;0.081;0.012217304669320583;-0.006108652334660292;0.0024434609804302454
01:00:0A:00:00:00:00;1723335144;11/08/24;00:12:24;1.014;-0.027;0.086;0.00855211354792118;-0.012217304669320583;0.004886921960860491
01:00:0A:00:00:00:00;1723335145;11/08/24;00:12:25;1.014;-0.029;0.081;0.00855211354792118;-0.015882495790719986;0.004886921960860491
01:00:0A:00:00:00:00;1723335146;11/08/24;00:12:26;1.015;-0.029;0.082;0.012217304669320583;-0.006108652334660292;0.0024434609804302454
01:00:0A:00:00:00:00;1723335147;11/08/24;00:12:27;1.014;-0.029;0.085;0.010995574295520782;-0.012217304669320583;0.004886921960860491
01:00:0A:00:00:00:00;1723335148;11/08/24;00:12:28;1.014;-0.03;0.081;0.009773843921720982;-0.014660765416920185;0.004886921960860491
01:00:0A:00:00:00:00;1723335149;11/08/24;00:12:29;1.014;-0.029;0.082;0.013439035043120384;-0.0073303827084600925;0.0036651913542300463
01:00:0A:00:00:00:00;1723335150;11/08/24;00:12:30;1.014;-0.028;0.085;0.010995574295520782;-0.013439035043120384;0.004886921960860491
01:00:0A:00:00:00:00;1723335151;11/08/24;00:12:31;1.014;-0.03;0.08;0.013439035043120384;-0.018325956538319588;0.0073303827084600925
01:00:0A:00:00:00:00;1723335152;11/08/24;00:12:32;1.015;-0.031;0.079;0.00855211354792118;-0.009773843921720982;0.0024434609804302454
01:00:0A:00:00:00:00;1723335153;11/08/24;00:12:33;1.014;-0.028;0.083;0.0073303827084600925;-0.006108652334660292;0.0024434609804302454
01:00:0A:00:00:00:00;1723335154;11/08/24;00:12:34;1.014;-0.029;0.085;0.0036651913542300463;-0.014660765416920185;0.006108652334660292
01:00:0A:00:00:00:00;1723335155;11/08/24;00:12:35;1.015;-0.03;0.08;0.006108652334660292;-0.013439035043120384;0.0036651913542300463
01:00:0A:00:00:00:00;1723335156;11/08/24;00:12:36;1.013;-0.029;0.083;0.00855211354792118;-0.006108652334660292;0.0024434609804302454
01:00:0A:00:00:00:00;1723335157;11/08/24;00:12:37;1.014;-0.03;0.084;0.004886921960860491;-0.014660765416920185;0.006108652334660292
01:00:0A:00:00:00:00;1723335158;11/08/24;00:12:38;1.015;-0.03;0.081;0.0073303827084600925;-0.013439035043120384;0.0036651913542300463
01:00:0A:00:00:00:00;1723335159;11/08/24;00:12:39;1.015;-0.028;0.083;0.009773843921720982;-0.0073303827084600925;0.0036651913542300463
01:00:0A:00:00:00:00;1723335160;11/08/24;00:12:40;1.015;-0.029;0.084;0.006108652334660292;-0.014660765416920185;0.004886921960860491
01:00:0A:00:00:00:00;1723335161;11/08/24;00:12:41;1.014;-0.03;0.08;0.013439035043120384;-0.013439035043120384;0.004886921960860491
01:00:0A:00:00:00:00;1723335162;11/08/24;00:12:42;1.014;-0.028;0.082;0.0073303827084600925;-0.00855211354792118;0.0024434609804302454
01:00:0A:00:00:00:00;1723335163;11/08/24;00:12:43;1.014;-0.029;0.083;0.006108652334660292;-0.010995574295520782;0.004886921960860491
01:00:0A:00:00:00:00;1723335164;11/08/24;00:12:44;1.014;-0.029;0.082;0.0073303827084600925;-0.014660765416920185;0.0036651913542300463
01:00:0A:00:00:00:00;1723335165;11/08/24;00:12:45;1.014;-0.029;0.081;0.015882495790719986;-0.012217304669320583;0.004886921960860491
01:00:0A:00:00:00:00;1723335166;11/08/24;00:12:46;1.014;-0.029;0.081;0.014660765416920185;-0.00855211354792118;0.0024434609804302454
01:00:0A:00:00:00:00;1723335167;11/08/24;00:12:47;1.014;-0.028;0.084;0.013439035043120384;-0.012217304669320583;0.004886921960860491
01:00:0A:00:00:00:00;1723335168;11/08/24;00:12:48;1.014;-0.03;0.081;0.013439035043120384;-0.013439035043120384;0.004886921960860491
01:00:0A:00:00:00:00;1723335169;11/08/24;00:12:49;1.0;-0.031;0.079;0.014660765416920185;-0.0073303827084600925;0.0
01:00:0A:00:00:00:00;1723335170;11/08/24;00:12:50;0.894;-0.018;0.359;-0.31642818450927734;0.0659734457731247;0.18081611394882202
01:00:0A:00:00:00:00;1723335171;11/08/24;00:12:51;0.57;-0.304;0.863;1.0971139669418335;-1.0018190145492554;0.6145303845405579
01:00:0A:00:00:00:00;1723335172;11/08/24;00:12:52;0.958;-0.208;-0.023;1.1191051006317139;-0.5106833577156067;-0.8588765263557434
01:00:0A:00:00:00:00;1723335173;11/08/24;00:12:53;0.651;-0.308;0.966;-1.027475357055664;0.9822713136672974;0.8637634515762329
01:00:0A:00:00:00:00;1723335174;11/08/24;00:12:54;0.976;-0.014;-0.384;-0.3836233615875244;-0.16493360698223114;-0.1722639948129654
01:00:0A:00:00:00:00;1723335175;11/08/24;00:12:55;0.344;0.664;-0.87;-2.591290235519409;-0.6316346526145935;-1.3255774974822998
01:00:0A:00:00:00:00;1723335176;11/08/24;00:12:56;0.765;-0.072;0.648;-1.880243182182312;-1.235169529914856;1.3781119585037231
01:00:0A:00:00:00:00;1723335177;11/08/24;00:12:57;0.877;0.144;-0.148;-0.8246681094169617;0.34086278080940247;-0.5852089524269104
01:00:0A:00:00:00:00;1723335178;11/08/24;00:12:58;0.847;-0.459;0.04;-0.7648032903671265;-0.4715879559516907;1.569923758506775
01:00:0A:00:00:00:00;1723335179;11/08/24;00:12:59;0.992;-0.174;-0.209;-0.18325956165790558;-0.0036651913542300463;-1.3487904071807861
01:00:0A:00:00:00:00;1723335180;11/08/24;00:13:00;0.873;0.396;0.024;-0.2834414541721344;0.375071257352829;-0.03298672288656235
01:00:0A:00:00:00:00;1723335181;11/08/24;00:13:01;0.908;-0.303;0.06;-0.040317103266716;-0.21624629199504852;0.6475171446800232
01:00:0A:00:00:00:00;1723335182;11/08/24;00:13:02;0.951;-0.122;0.134;0.48258352279663086;0.08796459436416626;-1.186300277709961
01:00:0A:00:00:00:00;1723335183;11/08/24;00:13:03;0.89;0.344;-0.067;0.11850785464048386;-0.11728612333536148;0.5070181488990784
01:00:0A:00:00:00:00;1723335184;11/08/24;00:13:04;0.25;1.006;0.492;2.0451767444610596;0.41783180832862854;-0.5143485069274902
01:00:0A:00:00:00:00;1723335185;11/08/24;00:13:05;1.014;0.236;-0.119;0.9101892113685608;1.4477505683898926;0.8906415700912476
01:00:0A:00:00:00:00;1723335186;11/08/24;00:13:06;0.742;-0.015;0.79;0.3433062732219696;0.1417207270860672;0.2076941877603531
01:00:0A:00:00:00:00;1723335187;11/08/24;00:13:07;0.981;0.188;-0.284;0.24068090319633484;-0.2785545289516449;-0.6377432942390442
01:00:0A:00:00:00:00;1723335188;11/08/24;00:13:08;0.943;0.064;0.173;-0.13561207056045532;1.8753563165664673;1.1337658166885376
01:00:0A:00:00:00:00;1723335189;11/08/24;00:13:09;0.842;0.081;0.528;-0.4251621961593628;-0.0073303827084600925;-0.739146888256073
01:00:0A:00:00:00:00;1723335190;11/08/24;00:13:10;1.002;0.083;0.088;-0.7159340977668762;-0.9004153609275818;-0.10018189996480942
01:00:0A:00:00:00:00;1723335191;11/08/24;00:13:11;0.35;0.314;-0.691;-0.5009095072746277;-0.2675589621067047;1.3451251983642578
01:00:0A:00:00:00:00;1723335192;11/08/24;00:13:12;0.89;0.216;-0.275;-0.040317103266716;1.841147780418396;0.5241223573684692
01:00:0A:00:00:00:00;1723335193;11/08/24;00:13:13;0.526;-0.725;0.196;-1.510058879852295;-1.2327260971069336;0.05864306166768074
01:00:0A:00:00:00:00;1723335194;11/08/24;00:13:14;0.961;0.122;-0.283;-0.3604104816913605;0.3604104816913605;-0.3494149148464203
01:00:0A:00:00:00:00;1723335195;11/08/24;00:13:15;0.857;-0.03;-0.516;-0.0708603635430336;0.455705463886261;0.49235740303993225
01:00:0A:00:00:00:00;1723335196;11/08/24;00:13:16;0.947;-0.112;-0.035;-0.8112289905548096;-0.5070181488990784;-1.547932505607605
01:00:0A:00:00:00:00;1723335197;11/08/24;00:13:17;0.929;0.244;0.207;-1.2302825450897217;-0.10995574295520782;0.9834930300712585
01:00:0A:00:00:00:00;1723335198;11/08/24;00:13:18;0.926;-0.414;-0.079;-0.7049384713172913;-0.15882496535778046;-0.6988298296928406
01:00:0A:00:00:00:00;1723335199;11/08/24;00:13:19;0.517;0.935;-0.129;-0.34086278080940247;0.080634206533432;0.18081611394882202
01:00:0A:00:00:00:00;1723335200;11/08/24;00:13:20;0.854;0.3;0.144;-0.7269296050071716;0.5229006409645081;0.6120869517326355
01:00:0A:00:00:00:00;1723335201;11/08/24;00:13:21;0.925;-0.063;0.179;-0.7098253965377808;-1.1520917415618896;-0.43249258399009705
01:00:0A:00:00:00:00;1723335202;11/08/24;00:13:22;0.624;0.174;-0.978;-0.7244861721992493;-2.5827383995056152;0.5644394755363464
01:00:0A:00:00:00:00;1723335203;11/08/24;00:13:23;0.976;-0.173;-0.431;0.11728612333536148;1.1349875926971436;0.36529743671417236
01:00:0A:00:00:00:00;1723335204;11/08/24;00:13:24;0.497;0.262;0.96;-2.4972169399261475;-0.8246681094169617;0.48258352279663086
01:00:0A:00:00:00:00;1723335205;11/08/24;00:13:25;1.037;0.025;-0.059;-1.4941763877868652;0.1771509200334549;-0.10751228034496307
01:00:0A:00:00:00:00;1723335206;11/08/24;00:13:26;0.484;0.497;0.769;-3.952298164367676;-0.7281513810157776;0.1722639948129654
01:00:0A:00:00:00:00;1723335207;11/08/24;00:13:27;0.77;-0.51;-0.153;-2.2589797973632812;0.6401867866516113;-0.21868975460529327
01:00:0A:00:00:00:00;1723335208;11/08/24;00:13:28;1.012;0.208;-0.135;-1.1301007270812988;0.9663888216018677;-0.6414085030555725
01:00:0A:00:00:00:00;1723335209;11/08/24;00:13:29;0.813;-0.144;0.654;-1.5027284622192383;0.04764748737215996;-0.0012217304902151227
01:00:0A:00:00:00:00;1723335210;11/08/24;00:13:30;1.018;0.17;0.013;-1.007927656173706;0.2028072476387024;-1.1728612184524536
01:00:0A:00:00:00:00;1723335211;11/08/24;00:13:31;0.404;-0.379;-0.719;1.4440854787826538;0.6389650106430054;0.9615018963813782
01:00:0A:00:00:00:00;1723335212;11/08/24;00:13:32;0.908;0.564;-0.176;1.0873401165008545;-0.28466320037841797;-1.4685200452804565
01:00:0A:00:00:00:00;1723335213;11/08/24;00:13:33;0.561;0.843;-0.375;0.021991148591041565;0.8258897662162781;-0.4043927788734436
01:00:0A:00:00:00:00;1723335214;11/08/24;00:13:34;0.991;-0.382;0.003;0.3384193480014801;-1.2803735733032227;-0.051312677562236786
01:00:0A:00:00:00:00;1723335215;11/08/24;00:13:35;0.866;-0.115;-0.526;0.5448917746543884;0.7892378568649292;-0.4031710624694824
01:00:0A:00:00:00:00;1723335216;11/08/24;00:13:36;0.98;0.134;0.274;0.4544837474822998;0.11850785464048386;0.2724458873271942
01:00:0A:00:00:00:00;1723335217;11/08/24;00:13:37;1.018;0.119;0.154;0.3274237811565399;-0.7635815143585205;0.4447098970413208
01:00:0A:00:00:00:00;1723335218;11/08/24;00:13:38;0.559;0.615;0.625;-0.09040805697441101;1.3720033168792725;2.0818285942077637
01:00:0A:00:00:00:00;1723335219;11/08/24;00:13:39;0.627;-0.331;0.649;1.8081611394882202;-0.6206390857696533;1.5515977144241333
01:00:0A:00:00:00:00;1723335220;11/08/24;00:13:40;1.048;-0.132;0.111;1.7397441864013672;-0.17104226350784302;-0.44226640462875366
01:00:0A:00:00:00:00;1723335221;11/08/24;00:13:41;0.924;0.247;0.325;-0.5900958180427551;-0.970054030418396;1.2620476484298706
01:00:0A:00:00:00:00;1723335222;11/08/24;00:13:42;0.656;-0.094;0.662;-0.03298672288656235;2.41413950920105;1.783726453781128
01:00:0A:00:00:00:00;1723335223;11/08/24;00:13:43;0.718;-0.539;0.461;-0.6340781450271606;0.6010913848876953;0.44348815083503723
01:00:0A:00:00:00:00;1723335224;11/08/24;00:13:44;0.78;-0.426;0.342;0.9712756872177124;-0.23579397797584534;-1.1007791757583618
01:00:0A:00:00:00:00;1723335225;11/08/24;00:13:45;0.65;-0.777;0.002;0.9101892113685608;-0.8478808999061584;0.1661553531885147
01:00:0A:00:00:00:00;1723335226;11/08/24;00:13:46;0.784;-0.538;0.127;1.5943583250045776;-1.6163493394851685;-0.9761626720428467
01:00:0A:00:00:00:00;1723335227;11/08/24;00:13:47;0.899;-0.031;-0.052;0.6927211880683899;1.3072515726089478;0.7929030656814575
01:00:0A:00:00:00:00;1723335228;11/08/24;00:13:48;0.937;-0.423;0.157;0.16249015927314758;0.3078760802745819;-1.3512338399887085
01:00:0A:00:00:00:00;1723335229;11/08/24;00:13:49;0.531;-0.694;-0.222;0.05497787147760391;-0.4349360466003418;-2.2687535285949707
01:00:0A:00:00:00:00;1723335230;11/08/24;00:13:50;0.577;-0.517;-0.065;-1.1716395616531372;-0.09896016865968704;3.964515447616577
01:00:0A:00:00:00:00;1723335231;11/08/24;00:13:51;0.674;-0.414;0.366;1.3536773920059204;2.0977110862731934;1.6774358749389648
01:00:0A:00:00:00:00;1723335232;11/08/24;00:13:52;1.077;-0.076;0.133;0.8112289905548096;-0.8662068843841553;-0.3677408695220947
01:00:0A:00:00:00:00;1723335233;11/08/24;00:13:53;0.834;-0.023;0.682;-1.2473868131637573;-0.5558874011039734;0.25534167885780334
01:00:0A:00:00:00:00;1723335234;11/08/24;00:13:54;0.591;-0.79;0.089;-1.205847978591919;-1.350012183189392;-0.1918116807937622
01:00:0A:00:00:00:00;1723335235;11/08/24;00:13:55;0.697;-0.705;0.228;1.7165312767028809;-0.05497787147760391;1.888795256614685
01:00:0A:00:00:00:00;1723335236;11/08/24;00:13:56;0.616;-0.747;0.363;1.6578881740570068;-1.8973474502563477;0.7440338730812073
01:00:0A:00:00:00:00;1723335237;11/08/24;00:13:57;0.858;-0.644;0.275;2.4862215518951416;-1.3561208248138428;-0.06841690838336945
01:00:0A:00:00:00:00;1723335238;11/08/24;00:13:58;0.901;-0.387;-0.002;3.004235029220581;0.251676470041275;-0.5436700582504272
01:00:0A:00:00:00:00;1723335239;11/08/24;00:13:59;0.991;0.109;-0.148;2.5949556827545166;0.19303341209888458;-0.26145032048225403
01:00:0A:00:00:00:00;1723335240;11/08/24;00:14:00;0.927;0.056;-0.412;2.450791358947754;0.7440338730812073;-1.0311404466629028
01:00:0A:00:00:00:00;1723335241;11/08/24;00:14:01;0.642;0.736;-0.192;-0.3323107063770294;0.6939429044723511;1.0189231634140015
01:00:0A:00:00:00:00;1723335242;11/08/24;00:14:02;0.967;0.04;0.466;-0.7244861721992493;-0.29688048362731934;1.1911872625350952
01:00:0A:00:00:00:00;1723335243;11/08/24;00:14:03;0.664;-0.069;-0.824;-0.7806857824325562;-2.8930578231811523;-1.0873401165008545
01:00:0A:00:00:00:00;1723335244;11/08/24;00:14:04;0.92;0.075;-0.369;0.34208452701568604;1.3634511232376099;0.2577851116657257
01:00:0A:00:00:00:00;1723335245;11/08/24;00:14:05;0.872;-0.147;0.425;0.3628539443016052;0.3604104816913605;0.294437050819397
01:00:0A:00:00:00:00;1723335246;11/08/24;00:14:06;0.963;-0.213;0.184;0.0036651913542300463;-1.0067058801651;-0.16249015927314758
01:00:0A:00:00:00:00;1723335247;11/08/24;00:14:07;0.906;0.059;-0.444;0.3029891550540924;-0.05619959905743599;-0.1966986060142517
01:00:0A:00:00:00:00;1723335248;11/08/24;00:14:08;1.025;0.036;-0.289;0.6084217429161072;0.4056144952774048;-0.07819075137376785
01:00:0A:00:00:00:00;1723335249;11/08/24;00:14:09;0.991;0.26;0.136;0.5962044596672058;0.44715335965156555;-0.3286454975605011
01:00:0A:00:00:00:00;1723335250;11/08/24;00:14:10;0.867;0.166;0.481;0.24556782841682434;0.8014551997184753;0.5106833577156067
01:00:0A:00:00:00:00;1723335251;11/08/24;00:14:11;0.61;-0.684;0.475;-0.4105014204978943;-0.8148941993713379;1.235169529914856
01:00:0A:00:00:00:00;1723335252;11/08/24;00:14:12;0.778;-0.625;-0.092;0.21868975460529327;-0.28588491678237915;-0.9993755221366882
01:00:0A:00:00:00:00;1723335253;11/08/24;00:14:13;1.075;0.141;-0.106;0.4031710624694824;-0.4300491213798523;-0.5497786998748779
01:00:0A:00:00:00:00;1723335254;11/08/24;00:14:14;1.049;-0.115;-0.199;0.5326744914054871;0.05619959905743599;-0.051312677562236786
01:00:0A:00:00:00:00;1723335255;11/08/24;00:14:15;0.393;0.463;0.92;-1.5308282375335693;0.05864306166768074;1.23394775390625
01:00:0A:00:00:00:00;1723335256;11/08/24;00:14:16;0.985;0.128;-0.093;-0.6230825185775757;-0.05009094998240471;-1.8338173627853394
01:00:0A:00:00:00:00;1723335257;11/08/24;00:14:17;0.704;0.293;0.674;-1.0054842233657837;0.2993239760398865;0.20402899384498596
01:00:0A:00:00:00:00;1723335258;11/08/24;00:14:18;1.015;-0.096;-0.075;-0.9639453291893005;-0.5827654600143433;-0.6475171446800232
01:00:0A:00:00:00:00;1723335259;11/08/24;00:14:19;0.919;0.409;0.115;-0.9150761365890503;0.2321287840604782;0.08918632566928864
01:00:0A:00:00:00:00;1723335260;11/08/24;00:14:20;1.0;-0.24;0.19;-1.0299187898635864;-0.5180137157440186;0.3591887652873993
01:00:0A:00:00:00:00;1723335261;11/08/24;00:14:21;0.949;0.098;-0.374;-0.4899139106273651;0.08185594528913498;-0.3433062732219696
01:00:0A:00:00:00:00;1723335262;11/08/24;00:14:22;0.997;0.076;0.226;-0.4948008358478546;0.46792274713516235;0.3579670488834381
01:00:0A:00:00:00:00;1723335263;11/08/24;00:14:23;0.988;-0.149;0.051;-0.43249258399009705;-0.36163222789764404;-0.14905111491680145
01:00:0A:00:00:00:00;1723335264;11/08/24;00:14:24;0.973;0.152;0.031;-0.3042108714580536;0.06352998316287994;-0.2125810980796814
01:00:0A:00:00:00:00;1723335265;11/08/24;00:14:25;0.999;0.033;0.135;-0.533896267414093;-0.20647244155406952;0.4495967924594879
01:00:0A:00:00:00:00;1723335266;11/08/24;00:14:26;0.961;-0.351;0.049;-0.2272418737411499;0.34086278080940247;-0.17837265133857727
01:00:0A:00:00:00:00;1723335267;11/08/24;00:14:27;0.603;0.916;-0.021;-1.470963478088379;-0.5314527750015259;0.14782939851284027
01:00:0A:00:00:00:00;1723335268;11/08/24;00:14:28;0.919;0.25;0.361;-1.6566665172576904;-1.164309024810791;0.8808676600456238
01:00:0A:00:00:00:00;1723335269;11/08/24;00:14:29;0.832;-0.034;-0.341;-0.8148941993713379;0.6340781450271606;-0.05375614017248154
01:00:0A:00:00:00:00;1723335270;11/08/24;00:14:30;0.912;-0.268;-0.069;0.042760565876960754;-0.2015855312347412;0.6524040699005127
01:00:0A:00:00:00:00;1723335271;11/08/24;00:14:31;0.861;-0.214;-0.433;0.7611380815505981;-0.8833111524581909;-1.1423180103302002
01:00:0A:00:00:00:00;1723335272;11/08/24;00:14:32;0.714;-0.062;-0.691;0.8772024512290955;0.533896267414093;-0.5265658497810364
01:00:0A:00:00:00:00;1723335273;11/08/24;00:14:33;1.014;-0.055;0.175;1.0958921909332275;0.9920451641082764;-0.7452555894851685
01:00:0A:00:00:00:00;1723335274;11/08/24;00:14:34;0.896;0.481;0.098;0.4153883755207062;0.10506881773471832;0.322536826133728
01:00:0A:00:00:00:00;1723335275;11/08/24;00:14:35;1.043;-0.071;0.228;0.0757472887635231;-0.03176499158143997;-0.13561207056045532
01:00:0A:00:00:00:00;1723335276;11/08/24;00:14:36;0.991;0.257;-0.023;-0.4239404499530792;0.9077457189559937;0.21502456068992615
01:00:0A:00:00:00:00;1723335277;11/08/24;00:14:37;0.654;-0.672;-0.016;-0.5778785347938538;0.08552113175392151;1.2803735733032227
01:00:0A:00:00:00:00;1723335278;11/08/24;00:14:38;0.999;-0.016;0.237;-0.03298672288656235;1.0653489828109741;-0.5119050741195679
01:00:0A:00:00:00:00;1723335279;11/08/24;00:14:39;0.662;-0.691;0.321;-0.34574973583221436;-0.8112289905548096;1.067792534828186
01:00:0A:00:00:00:00;1723335280;11/08/24;00:14:40;0.875;-0.386;-0.335;0.4605923891067505;-0.4752531349658966;-0.9370672702789307
01:00:0A:00:00:00:00;1723335281;11/08/24;00:14:41;0.916;0.41;0.06;0.6597344279289246;0.6133087277412415;-0.4190535545349121
01:00:0A:00:00:00:00;1723335282;11/08/24;00:14:42;1.01;0.162;0.077;0.20525071024894714;-0.028099799528717995;0.9334021210670471
01:00:0A:00:00:00:00;1723335283;11/08/24;00:14:43;0.876;-0.533;-0.084;0.6707300543785095;-0.3689626157283783;-0.028099799528717995
01:00:0A:00:00:00:00;1723335284;11/08/24;00:14:44;0.997;0.167;0.018;0.988379955291748;0.16982054710388184;-0.6230825185775757
01:00:0A:00:00:00:00;1723335285;11/08/24;00:14:45;0.766;-0.099;0.395;-0.5656611919403076;3.1447341442108154;1.8081611394882202
01:00:0A:00:00:00:00;1723335286;11/08/24;00:14:46;0.959;-0.355;0.358;0.48258352279663086;-1.0604619979858398;0.5277875661849976
01:00:0A:00:00:00:00;1723335287;11/08/24;00:14:47;0.867;0.087;-0.533;0.8197811245918274;-0.7220427393913269;-0.6181955933570862
01:00:0A:00:00:00:00;1723335288;11/08/24;00:14:48;0.854;0.374;-0.014;-1.1838568449020386;-0.8991935849189758;-1.3316861391067505
01:00:0A:00:00:00:00;1723335289;11/08/24;00:14:49;0.73;0.115;0.635;-2.0891592502593994;-0.22602014243602753;2.096489429473877
01:00:0A:00:00:00:00;1723335290;11/08/24;00:14:50;0.945;-0.092;0.366;1.2082914113998413;-0.09773843735456467;0.4349360466003418
01:00:0A:00:00:00:00;1723335291;11/08/24;00:14:51;1.013;-0.07;0.151;1.8264870643615723;-0.08918632566928864;0.3152064383029938
01:00:0A:00:00:00:00;1723335292;11/08/24;00:14:52;1.008;-0.076;-0.057;1.850921630859375;-0.2834414541721344;0.17104226350784302
01:00:0A:00:00:00:00;1723335293;11/08/24;00:14:53;0.8;-0.447;0.535;3.076317310333252;-0.375071257352829;0.29565879702568054
01:00:0A:00:00:00:00;1723335294;11/08/24;00:14:54;0.977;-0.023;0.268;2.068389654159546;-0.36529743671417236;1.0103710889816284
01:00:0A:00:00:00:00;1723335295;11/08/24;00:14:55;0.964;-0.031;0.274;1.5943583250045776;-0.3127630054950714;0.23457224667072296
01:00:0A:00:00:00:00;1723335296;11/08/24;00:14:56;1.002;-0.152;0.1;1.379333734512329;-0.17837265133857727;0.06475171446800232
01:00:0A:00:00:00:00;1723335297;11/08/24;00:14:57;1.032;-0.036;0.039;1.2583823204040527;-0.21135938167572021;-0.09773843735456467
01:00:0A:00:00:00:00;1723335298;11/08/24;00:14:58;1.05;-0.115;0.027;1.1826351881027222;0.09651670604944229;-0.08429940044879913
01:00:0A:00:00:00:00;1723335299;11/08/24;00:14:59;1.028;0.132;0.08;0.9321803450584412;0.04886921867728233;0.0659734457731247
01:00:0A:00:00:00:00;1723335300;11/08/24;00:15:00;1.008;-0.14;0.139;0.7733554244041443;0.07819075137376785;0.3384193480014801
01:00:0A:00:00:00:00;1723335301;11/08/24;00:15:01;1.018;-0.022;0.089;0.750142514705658;-0.22968533635139465;-0.013439035043120384
01:00:0A:00:00:00:00;1723335302;11/08/24;00:15:02;0.97;-0.024;0.02;0.6866125464439392;0.03420845419168472;0.07819075137376785
01:00:0A:00:00:00:00;1723335303;11/08/24;00:15:03;0.943;0.009;0.122;0.6230825185775757;-0.0073303827084600925;-0.00855211354792118
01:00:0A:00:00:00:00;1723335304;11/08/24;00:15:04;1.01;-0.051;0.079;0.32620203495025635;-0.1258382350206375;-0.14538592100143433
01:00:0A:00:00:00:00;1723335305;11/08/24;00:15:05;1.021;0.167;0.018;0.5351179242134094;-0.10018189996480942;-0.16249015927314758
01:00:0A:00:00:00:00;1723335306;11/08/24;00:15:06;0.964;0.097;-0.299;0.5009095072746277;-0.21624629199504852;0.0
01:00:0A:00:00:00:00;1723335307;11/08/24;00:15:07;0.918;-0.262;-0.35;0.6120869517326355;0.02687807008624077;0.06230825558304787
01:00:0A:00:00:00:00;1723335308;11/08/24;00:15:08;0.88;-0.43;-0.165;0.3445279896259308;0.21013763546943665;-0.13072516024112701
01:00:0A:00:00:00:00;1723335309;11/08/24;00:15:09;0.926;-0.433;0.107;0.6707300543785095;-0.006108652334660292;-0.16004669666290283
01:00:0A:00:00:00:00;1723335310;11/08/24;00:15:10;1.009;-0.086;0.136;1.137431025505066;-0.1417207270860672;-0.0024434609804302454
01:00:0A:00:00:00:00;1723335311;11/08/24;00:15:11;1.016;-0.034;0.052;1.0836749076843262;0.028099799528717995;0.05009094998240471
01:00:0A:00:00:00:00;1723335312;11/08/24;00:15:12;1.003;0.009;0.144;0.9126326441764832;-0.0024434609804302454;0.05619959905743599
01:00:0A:00:00:00:00;1723335313;11/08/24;00:15:13;0.983;-0.098;0.09;0.7867944240570068;-0.09651670604944229;0.27122414112091064
01:00:0A:00:00:00:00;1723335314;11/08/24;00:15:14;0.991;-0.043;0.115;0.8539896011352539;-0.15271630883216858;-0.21624629199504852
01:00:0A:00:00:00:00;1723335315;11/08/24;00:15:15;1.025;0.033;0.011;0.7122688889503479;0.08796459436416626;0.1111774742603302
