Source;Epoch timestamp (UTC);Date;Time (UTC);Accel X (G);Accel Y (G);Accel Z (G);Gyro X (rad/s);Gyro Y (rad/s);Gyro Z (rad/s)
01:00:0A:00:00:00:00;1724457603;24/08/24;00:00:03;0.956;0.069;-0.028;0.025656338781118393;0.8002334833145142;0.14416420459747314
01:00:0A:00:00:00:00;1724457604;24/08/24;00:00:04;0.945;-0.097;0.206;-0.2028072476387024;-0.5277875661849976;0.0708603635430336
01:00:0A:00:00:00:00;1724457605;24/08/24;00:00:05;1.016;-0.008;-0.1;-0.02321287989616394;0.22479839622974396;-0.0757472887635231
01:00:0A:00:00:00:00;1724457606;24/08/24;00:00:06;1.016;0.018;0.289;-0.16371189057826996;0.19058994948863983;0.13927726447582245
01:00:0A:00:00:00:00;1724457607;24/08/24;00:00:07;1.013;-0.237;0.034;-0.17592918872833252;-0.14538592100143433;-0.03176499158143997
01:00:0A:00:00:00:00;1724457608;24/08/24;00:00:08;0.975;0.208;0.073;-0.08307767659425735;0.025656338781118393;-0.5571090579032898
01:00:0A:00:00:00:00;1724457609;24/08/24;00:00:09;0.978;-0.051;0.055;-0.4251621961593628;-0.31154125928878784;0.48380526900291443
01:00:0A:00:00:00:00;1724457610;24/08/24;00:00:10;0.967;-0.08;0.063;-0.13561207056045532;0.40194931626319885;-0.46792274713516235
01:00:0A:00:00:00:00;1724457611;24/08/24;00:00:11;0.964;0.033;0.264;-0.6487389206886292;-0.31154125928878784;0.27977627515792847
01:00:0A:00:00:00:00;1724457612;24/08/24;00:00:12;1.042;-0.229;-0.037;-0.6365215182304382;-0.14782939851284027;0.11972958594560623
01:00:0A:00:00:00:00;1724457613;24/08/24;00:00:13;1.057;-0.22;0.065;-0.29565879702568054;0.37262779474258423;-0.059864792972803116
01:00:0A:00:00:00:00;1724457614;24/08/24;00:00:14;0.951;0.07;0.409;-0.46181410551071167;0.3579670488834381;-0.15393804013729095
01:00:0A:00:00:00:00;1724457615;24/08/24;00:00:15;0.968;-0.074;0.063;-0.6658430695533752;-0.3604104816913605;-0.16249015927314758
01:00:0A:00:00:00:00;1724457616;24/08/24;00:00:16;0.943;0.064;0.182;-0.6890559792518616;0.22479839622974396;-0.07941248267889023
01:00:0A:00:00:00:00;1724457617;24/08/24;00:00:17;0.973;0.145;0.201;-0.9749408960342407;-0.6524040699005127;-0.3274237811565399
01:00:0A:00:00:00:00;1724457618;24/08/24;00:00:18;0.99;0.224;0.187;-1.2498303651809692;-0.09529497474431992;0.4349360466003418
01:00:0A:00:00:00:00;1724457619;24/08/24;00:00:19;1.074;-0.148;-0.083;-1.0189231634140015;-0.22113320231437683;-0.11972958594560623
01:00:0A:00:00:00:00;1724457620;24/08/24;00:00:20;1.022;0.057;0.374;-0.9370672702789307;0.22846359014511108;-0.13805554807186127
01:00:0A:00:00:00:00;1724457621;24/08/24;00:00:21;0.98;0.251;0.068;-1.016479730606079;-0.37629297375679016;-0.6890559792518616
01:00:0A:00:00:00:00;1724457622;24/08/24;00:00:22;0.908;0.209;-0.006;-1.3353514671325684;-0.817337691783905;0.09407324343919754
01:00:0A:00:00:00:00;1724457623;24/08/24;00:00:23;0.932;-0.031;-0.027;-1.4330898523330688;-0.34574973583221436;0.9089674949645996
01:00:0A:00:00:00:00;1724457624;24/08/24;00:00:24;0.983;-0.13;0.012;-0.8710938096046448;0.7049384713172913;-0.5900958180427551
01:00:0A:00:00:00:00;1724457625;24/08/24;00:00:25;0.944;0.289;0.091;-1.7776178121566772;-1.108109474182129;0.6230825185775757
01:00:0A:00:00:00:00;1724457626;24/08/24;00:00:26;0.924;0.366;-0.206;-1.5357152223587036;-0.1270599663257599;0.31642818450927734
01:00:0A:00:00:00:00;1724457627;24/08/24;00:00:27;1.013;-0.25;-0.009;-1.5015066862106323;-0.322536826133728;0.40683624148368835
01:00:0A:00:00:00:00;1724457628;24/08/24;00:00:28;0.99;0.047;-0.06;-1.0311404466629028;0.29688048362731934;-0.2590068578720093
01:00:0A:00:00:00:00;1724457629;24/08/24;00:00:29;0.942;-0.031;0.16;-1.1032226085662842;-0.20525071024894714;-0.09407324343919754
01:00:0A:00:00:00:00;1724457630;24/08/24;00:00:30;1.005;0.01;0.109;-1.0335839986801147;-0.04642575979232788;-0.1918116807937622
01:00:0A:00:00:00:00;1724457631;24/08/24;00:00:31;1.066;0.018;0.079;-1.2082914113998413;-0.3152064383029938;-0.11362093687057495
01:00:0A:00:00:00:00;1724457632;24/08/24;00:00:32;1.102;0.17;-0.011;-1.1801916360855103;-0.0012217304902151227;0.03298672288656235
01:00:0A:00:00:00:00;1724457633;24/08/24;00:00:33;1.023;-0.386;-0.027;-1.0409142971038818;-0.012217304669320583;0.5619960427284241
01:00:0A:00:00:00:00;1724457634;24/08/24;00:00:34;0.871;0.336;0.476;-0.8698720932006836;0.5314527750015259;-0.7623597979545593
01:00:0A:00:00:00:00;1724457635;24/08/24;00:00:35;0.974;0.034;-0.261;-1.2400563955307007;-1.1215485334396362;0.02932153083384037
01:00:0A:00:00:00:00;1724457636;24/08/24;00:00:36;0.967;0.165;0.107;-1.0286970138549805;0.4715879559516907;0.3640756905078888
01:00:0A:00:00:00:00;1724457637;24/08/24;00:00:37;0.984;-0.15;-0.064;-0.8588765263557434;-0.2871066629886627;-0.14905111491680145
01:00:0A:00:00:00:00;1724457638;24/08/24;00:00:38;1.021;0.168;0.073;-0.6194173693656921;0.3689626157283783;-0.12461651116609573
01:00:0A:00:00:00:00;1724457639;24/08/24;00:00:39;1.015;-0.303;0.205;-0.6670648455619812;-0.18325956165790558;0.1258382350206375
01:00:0A:00:00:00:00;1724457640;24/08/24;00:00:40;1.022;0.203;-0.039;-0.4764748811721802;0.04764748737215996;-0.4239404499530792
01:00:0A:00:00:00:00;1724457641;24/08/24;00:00:41;0.964;-0.159;0.066;-0.6194173693656921;-0.05497787147760391;0.6291911602020264
01:00:0A:00:00:00:00;1724457642;24/08/24;00:00:42;0.914;0.119;0.078;-0.39217546582221985;0.16493360698223114;-0.8271114826202393
01:00:0A:00:00:00:00;1724457643;24/08/24;00:00:43;0.939;-0.035;-0.054;-0.8503243923187256;-0.6866125464439392;0.8833111524581909
01:00:0A:00:00:00:00;1724457644;24/08/24;00:00:44;0.943;-0.033;-0.236;-0.3042108714580536;0.6023131012916565;-0.14294245839118958
01:00:0A:00:00:00:00;1724457645;24/08/24;00:00:45;1.016;-0.09;0.237;-0.313984751701355;0.2724458873271942;0.10751228034496307
01:00:0A:00:00:00:00;1724457646;24/08/24;00:00:46;0.985;-0.332;0.359;-0.3433062732219696;-0.03787364438176155;-0.4544837474822998
01:00:0A:00:00:00:00;1724457647;24/08/24;00:00:47;1.003;0.339;0.131;-0.6316346526145935;-0.17348572611808777;-0.05864306166768074
01:00:0A:00:00:00:00;1724457648;24/08/24;00:00:48;0.99;-0.27;0.112;-0.7599163055419922;-0.19792033731937408;0.34697145223617554
01:00:0A:00:00:00:00;1724457649;24/08/24;00:00:49;0.98;0.081;0.142;-0.4789183437824249;0.21013763546943665;-0.436157763004303
01:00:0A:00:00:00:00;1724457650;24/08/24;00:00:50;0.956;0.124;0.011;-0.8063421249389648;-0.616973876953125;0.2822197377681732
01:00:0A:00:00:00:00;1724457651;24/08/24;00:00:51;0.966;0.175;-0.167;-0.6633996367454529;0.27977627515792847;0.2541199326515198
01:00:0A:00:00:00:00;1724457652;24/08/24;00:00:52;1.066;-0.088;0.041;-0.5815436840057373;0.05253440886735916;0.23335053026676178
01:00:0A:00:00:00:00;1724457653;24/08/24;00:00:53;1.047;-0.346;-0.043;-0.3090977966785431;0.5900958180427551;-0.0036651913542300463
01:00:0A:00:00:00:00;1724457654;24/08/24;00:00:54;0.898;0.249;0.6;-0.5668829083442688;0.25045475363731384;-0.46181410551071167
01:00:0A:00:00:00:00;1724457655;24/08/24;00:00:55;1.026;0.124;-0.081;-1.0005972385406494;-0.6756169199943542;-0.26022857427597046
01:00:0A:00:00:00:00;1724457656;24/08/24;00:00:56;0.954;0.029;0.286;-1.1814132928848267;0.1820378452539444;0.26633724570274353
01:00:0A:00:00:00:00;1724457657;24/08/24;00:00:57;0.942;0.179;-0.144;-1.1496483087539673;-0.6438519358634949;-0.4715879559516907
01:00:0A:00:00:00:00;1724457658;24/08/24;00:00:58;0.95;0.175;-0.048;-1.2486084699630737;0.2895500957965851;1.2473868131637573
01:00:0A:00:00:00:00;1724457659;24/08/24;00:00:59;0.929;-0.389;0.102;-0.8319984674453735;0.5546656250953674;-0.42638394236564636
01:00:0A:00:00:00:00;1724457660;24/08/24;00:01:00;1.043;-0.044;0.163;-0.9578366875648499;-0.2993239760398865;-0.26633724570274353
01:00:0A:00:00:00:00;1724457661;24/08/24;00:01:01;1.047;-0.01;0.04;-0.9419541358947754;-0.018325956538319588;0.17104226350784302
01:00:0A:00:00:00:00;1724457662;24/08/24;00:01:02;0.97;-0.076;0.052;-0.8271114826202393;0.08796459436416626;0.09162978082895279
01:00:0A:00:00:00:00;1724457663;24/08/24;00:01:03;0.939;0.081;0.059;-0.7232644557952881;0.07452555745840073;-0.24434609711170197
01:00:0A:00:00:00:00;1724457664;24/08/24;00:01:04;0.974;0.013;0.156;-0.949284553527832;-0.2431243658065796;0.49846604466438293
01:00:0A:00:00:00:00;1724457665;24/08/24;00:01:05;0.983;-0.22;-0.042;-0.5082398653030396;0.5326744914054871;-0.3286454975605011
01:00:0A:00:00:00:00;1724457666;24/08/24;00:01:06;0.991;-0.077;0.375;-0.6010913848876953;-0.3323107063770294;-0.21380282938480377
01:00:0A:00:00:00:00;1724457667;24/08/24;00:01:07;1.057;0.055;-0.184;-0.5742133259773254;-0.16371189057826996;-0.10262535512447357
01:00:0A:00:00:00:00;1724457668;24/08/24;00:01:08;1.029;-0.084;0.245;-0.5571090579032898;0.19303341209888458;0.08918632566928864
01:00:0A:00:00:00:00;1724457669;24/08/24;00:01:09;1.002;-0.132;-0.024;-0.45326200127601624;-0.2919935882091522;-0.17348572611808777
01:00:0A:00:00:00:00;1724457670;24/08/24;00:01:10;0.983;0.0;0.114;-0.32498031854629517;0.34697145223617554;0.018325956538319588
01:00:0A:00:00:00:00;1724457671;24/08/24;00:01:11;0.988;-0.102;0.127;-0.48258352279663086;-0.3946189284324646;0.17592918872833252
01:00:0A:00:00:00:00;1724457672;24/08/24;00:01:12;1.03;-0.024;-0.01;-0.2993239760398865;-0.019547687843441963;-0.07330382615327835
01:00:0A:00:00:00:00;1724457673;24/08/24;00:01:13;1.028;0.013;0.247;-0.3152064383029938;0.11239919811487198;0.06719517707824707
01:00:0A:00:00:00:00;1724457674;24/08/24;00:01:14;1.016;-0.132;-0.012;-0.2736676335334778;-0.21380282938480377;0.1270599663257599
01:00:0A:00:00:00:00;1724457675;24/08/24;00:01:15;0.916;0.048;-0.017;0.656069278717041;0.019547687843441963;-0.2590068578720093
01:00:0A:00:00:00:00;1724457676;24/08/24;00:01:16;0.919;0.015;0.159;0.6230825185775757;0.587652325630188;0.2993239760398865
01:00:0A:00:00:00:00;1724457677;24/08/24;00:01:17;0.923;0.047;0.183;0.10384709388017654;-1.3426817655563354;0.051312677562236786
01:00:0A:00:00:00:00;1724457678;24/08/24;00:01:18;0.939;-0.078;-0.241;0.46670106053352356;0.9101892113685608;-0.39828410744667053
01:00:0A:00:00:00:00;1724457679;24/08/24;00:01:19;0.959;0.156;0.291;0.1111774742603302;-0.39217546582221985;0.20891590416431427
01:00:0A:00:00:00:00;1724457680;24/08/24;00:01:20;1.042;-0.158;-0.069;0.04764748737215996;-0.2272418737411499;0.06108652427792549
01:00:0A:00:00:00:00;1724457681;24/08/24;00:01:21;1.046;0.043;0.008;0.22968533635139465;0.24678954482078552;-0.030543262138962746
01:00:0A:00:00:00:00;1724457682;24/08/24;00:01:22;1.001;0.129;0.151;0.10018189996480942;0.1918116807937622;0.16859880089759827
01:00:0A:00:00:00:00;1724457683;24/08/24;00:01:23;1.018;-0.022;-0.02;0.0708603635430336;-0.07452555745840073;0.07696902006864548
01:00:0A:00:00:00:00;1724457684;24/08/24;00:01:24;1.036;0.056;-0.023;0.19792033731937408;0.0659734457731247;-0.14294245839118958
01:00:0A:00:00:00:00;1724457685;24/08/24;00:01:25;1.033;0.079;0.174;0.1062905490398407;0.0;0.12339477241039276
01:00:0A:00:00:00:00;1724457686;24/08/24;00:01:26;1.036;-0.115;0.077;0.06963863223791122;-0.1111774742603302;0.15271630883216858
01:00:0A:00:00:00:00;1724457687;24/08/24;00:01:27;0.987;0.115;0.095;0.15393804013729095;0.1319468915462494;-0.3066543638706207
01:00:0A:00:00:00:00;1724457688;24/08/24;00:01:28;0.958;-0.025;0.105;-0.04398229718208313;0.059864792972803116;0.294437050819397
01:00:0A:00:00:00:00;1724457689;24/08/24;00:01:29;0.935;-0.025;0.083;0.010995574295520782;-0.14294245839118958;-0.39217546582221985
01:00:0A:00:00:00:00;1724457690;24/08/24;00:01:30;0.96;-0.004;0.088;-0.18081611394882202;0.015882495790719986;0.4288274049758911
01:00:0A:00:00:00:00;1724457691;24/08/24;00:01:31;1.008;-0.221;0.127;-0.0036651913542300463;-0.1417207270860672;-0.5693264007568359
01:00:0A:00:00:00:00;1724457692;24/08/24;00:01:32;1.001;0.251;0.036;-0.26022857427597046;0.12095131725072861;0.7562511563301086
01:00:0A:00:00:00:00;1724457693;24/08/24;00:01:33;0.96;-0.509;0.162;-0.06108652427792549;0.02321287989616394;-0.17837265133857727
01:00:0A:00:00:00:00;1724457694;24/08/24;00:01:34;1.042;0.295;0.039;0.021991148591041565;-0.08918632566928864;-0.3543018400669098
01:00:0A:00:00:00:00;1724457695;24/08/24;00:01:35;1.028;-0.281;0.136;-0.10018189996480942;0.1111774742603302;0.39828410744667053
01:00:0A:00:00:00:00;1724457696;24/08/24;00:01:36;0.99;0.023;0.079;0.07452555745840073;-0.09285151958465576;-0.49724429845809937
01:00:0A:00:00:00:00;1724457697;24/08/24;00:01:37;0.959;-0.085;0.089;-0.10873401165008545;0.039095375686883926;0.4288274049758911
01:00:0A:00:00:00:00;1724457698;24/08/24;00:01:38;0.983;-0.141;0.103;0.06719517707824707;-0.1014036238193512;-0.38606682419776917
01:00:0A:00:00:00:00;1724457699;24/08/24;00:01:39;1.031;0.113;0.068;-0.05864306166768074;0.05619959905743599;0.26511549949645996
01:00:0A:00:00:00:00;1724457700;24/08/24;00:01:40;1.05;-0.255;0.138;-0.004886921960860491;0.019547687843441963;0.08307767659425735
01:00:0A:00:00:00:00;1724457701;24/08/24;00:01:41;1.039;0.211;0.003;0.028099799528717995;-0.07452555745840073;-0.23945917189121246
01:00:0A:00:00:00:00;1724457702;24/08/24;00:01:42;0.967;-0.203;0.136;-0.07941248267889023;0.21135938167572021;0.5937609672546387
01:00:0A:00:00:00:00;1724457703;24/08/24;00:01:43;0.954;0.036;0.013;0.12339477241039276;-0.3127630054950714;-0.6536257863044739
01:00:0A:00:00:00:00;1724457704;24/08/24;00:01:44;0.965;0.019;0.06;-0.04642575979232788;0.3078760802745819;0.5387831330299377
01:00:0A:00:00:00:00;1724457705;24/08/24;00:01:45;0.969;-0.167;0.166;0.036651913076639175;-0.30543261766433716;-0.34086278080940247
01:00:0A:00:00:00:00;1724457706;24/08/24;00:01:46;1.016;0.082;0.0;0.042760565876960754;0.0073303827084600925;-0.030543262138962746
01:00:0A:00:00:00:00;1724457707;24/08/24;00:01:47;1.026;-0.041;0.136;-0.014660765416920185;0.15882496535778046;0.17959438264369965
01:00:0A:00:00:00:00;1724457708;24/08/24;00:01:48;0.999;-0.101;0.107;-0.024434609338641167;-0.10751228034496307;-0.03176499158143997
01:00:0A:00:00:00:00;1724457709;24/08/24;00:01:49;0.978;0.01;0.015;0.0036651913542300463;-0.12217304855585098;-0.08429940044879913
01:00:0A:00:00:00:00;1724457710;24/08/24;00:01:50;0.995;-0.042;0.074;-0.024434609338641167;0.015882495790719986;0.21135938167572021
01:00:0A:00:00:00:00;1724457711;24/08/24;00:01:51;1.042;-0.148;0.171;0.02687807008624077;-0.18081611394882202;-0.14416420459747314
01:00:0A:00:00:00:00;1724457712;24/08/24;00:01:52;1.062;0.164;-0.068;0.0354301817715168;0.03298672288656235;0.04642575979232788
01:00:0A:00:00:00:00;1724457713;24/08/24;00:01:53;1.013;-0.193;0.305;0.00855211354792118;0.34697145223617554;0.2932153046131134
01:00:0A:00:00:00:00;1724457714;24/08/24;00:01:54;0.98;0.125;-0.116;0.05742133408784866;-0.5143485069274902;-0.4495967924594879
01:00:0A:00:00:00:00;1724457715;24/08/24;00:01:55;0.966;-0.068;0.165;0.051312677562236786;0.5729915499687195;0.32620203495025635
01:00:0A:00:00:00:00;1724457716;24/08/24;00:01:56;0.948;-0.109;0.18;-0.01710422709584236;-0.5057964324951172;-0.294437050819397
01:00:0A:00:00:00:00;1724457717;24/08/24;00:01:57;0.992;0.016;0.002;0.02687807008624077;0.2981022298336029;0.13805554807186127
01:00:0A:00:00:00:00;1724457718;24/08/24;00:01:58;1.033;-0.074;0.243;-0.02932153083384037;0.05375614017248154;0.11850785464048386
01:00:0A:00:00:00:00;1724457719;24/08/24;00:01:59;1.079;-0.041;-0.003;-0.004886921960860491;0.01710422709584236;0.024434609338641167
01:00:0A:00:00:00:00;1724457720;24/08/24;00:02:00;1.045;0.075;0.085;-0.012217304669320583;0.11362093687057495;-0.0708603635430336
01:00:0A:00:00:00:00;1724457721;24/08/24;00:02:01;0.962;-0.105;0.026;-0.08796459436416626;-0.23579397797584534;0.21868975460529327
01:00:0A:00:00:00:00;1724457722;24/08/24;00:02:02;0.934;0.026;0.103;0.06963863223791122;0.025656338781118393;-0.43737950921058655
01:00:0A:00:00:00:00;1724457723;24/08/24;00:02:03;0.962;-0.047;0.12;-0.21868975460529327;-0.25045475363731384;0.5619960427284241
01:00:0A:00:00:00:00;1724457724;24/08/24;00:02:04;0.98;-0.193;0.05;0.19547687470912933;0.18325956165790558;-0.7086036801338196
01:00:0A:00:00:00:00;1724457725;24/08/24;00:02:05;0.993;0.302;0.144;-0.14294245839118958;-0.06963863223791122;0.5057964324951172
01:00:0A:00:00:00:00;1724457726;24/08/24;00:02:06;1.005;-0.396;0.017;0.03420845419168472;0.028099799528717995;-0.16493360698223114
01:00:0A:00:00:00:00;1724457727;24/08/24;00:02:07;1.031;0.233;0.071;0.11850785464048386;0.045204028487205505;-0.3787364363670349
01:00:0A:00:00:00:00;1724457728;24/08/24;00:02:08;1.016;-0.167;0.081;-0.10384709388017654;0.030543262138962746;0.49846604466438293
01:00:0A:00:00:00:00;1724457729;24/08/24;00:02:09;0.978;-0.04;0.031;0.07819075137376785;-0.11362093687057495;-0.2895500957965851
01:00:0A:00:00:00:00;1724457730;24/08/24;00:02:10;0.984;0.057;0.056;-0.009773843921720982;0.018325956538319588;0.17470745742321014
01:00:0A:00:00:00:00;1724457731;24/08/24;00:02:11;1.013;-0.083;0.117;-0.02687807008624077;-0.1514945775270462;0.004886921960860491
01:00:0A:00:00:00:00;1724457732;24/08/24;00:02:12;1.039;-0.048;0.07;0.051312677562236786;-0.04153883829712868;-0.13439035415649414
01:00:0A:00:00:00:00;1724457733;24/08/24;00:02:13;1.033;0.033;0.122;0.01710422709584236;0.09651670604944229;0.03420845419168472
01:00:0A:00:00:00:00;1724457734;24/08/24;00:02:14;1.022;-0.095;0.103;-0.012217304669320583;0.06841690838336945;0.1368338167667389
01:00:0A:00:00:00:00;1724457735;24/08/24;00:02:15;1.027;-0.013;0.036;0.05497787147760391;0.019547687843441963;-0.09162978082895279
01:00:0A:00:00:00:00;1724457736;24/08/24;00:02:16;1.006;0.024;0.043;0.02321287989616394;0.02321287989616394;0.019547687843441963
01:00:0A:00:00:00:00;1724457737;24/08/24;00:02:17;0.981;-0.038;0.072;-0.00855211354792118;-0.059864792972803116;0.045204028487205505
01:00:0A:00:00:00:00;1724457738;24/08/24;00:02:18;0.967;-0.004;0.075;0.03298672288656235;-0.0757472887635231;-0.1966986060142517
01:00:0A:00:00:00:00;1724457739;24/08/24;00:02:19;1.003;0.005;0.081;-0.04153883829712868;0.02321287989616394;0.10995574295520782
01:00:0A:00:00:00:00;1724457740;24/08/24;00:02:20;1.022;-0.108;0.111;-0.02321287989616394;-0.08185594528913498;-0.13439035415649414
01:00:0A:00:00:00:00;1724457741;24/08/24;00:02:21;1.052;0.033;0.047;-0.05742133408784866;-0.01710422709584236;0.06963863223791122
01:00:0A:00:00:00:00;1724457742;24/08/24;00:02:22;1.046;-0.086;0.118;-0.08307767659425735;0.006108652334660292;0.11362093687057495
01:00:0A:00:00:00:00;1724457743;24/08/24;00:02:23;1.038;-0.012;0.086;-0.07452555745840073;-0.05742133408784866;-0.010995574295520782
01:00:0A:00:00:00:00;1724457744;24/08/24;00:02:24;1.017;0.014;0.093;-0.10506881773471832;0.004886921960860491;0.06963863223791122
01:00:0A:00:00:00:00;1724457745;24/08/24;00:02:25;0.99;-0.034;0.117;-0.1160643920302391;0.03176499158143997;0.06108652427792549
01:00:0A:00:00:00:00;1724457746;24/08/24;00:02:26;0.996;-0.005;0.103;-0.09773843735456467;0.0;-0.09040805697441101
01:00:0A:00:00:00:00;1724457747;24/08/24;00:02:27;1.014;0.001;0.087;-0.13439035415649414;0.045204028487205505;0.051312677562236786
01:00:0A:00:00:00:00;1724457748;24/08/24;00:02:28;1.029;-0.056;0.083;-0.12950342893600464;0.036651913076639175;0.02687807008624077
01:00:0A:00:00:00:00;1724457749;24/08/24;00:02:29;1.031;0.0;0.061;-0.10995574295520782;0.02321287989616394;-0.036651913076639175
01:00:0A:00:00:00:00;1724457750;24/08/24;00:02:30;1.007;0.002;0.057;-0.1368338167667389;-0.039095375686883926;0.004886921960860491
01:00:0A:00:00:00:00;1724457751;24/08/24;00:02:31;0.996;-0.031;0.055;-0.11850785464048386;-0.05497787147760391;-0.042760565876960754
01:00:0A:00:00:00:00;1724457752;24/08/24;00:02:32;0.995;-0.034;0.072;-0.09285151958465576;-0.04153883829712868;-0.08429940044879913
01:00:0A:00:00:00:00;1724457753;24/08/24;00:02:33;1.005;-0.041;0.082;-0.1111774742603302;-0.05253440886735916;0.004886921960860491
01:00:0A:00:00:00:00;1724457754;24/08/24;00:02:34;1.019;-0.064;0.087;-0.09651670604944229;-0.051312677562236786;0.0024434609804302454
01:00:0A:00:00:00:00;1724457755;24/08/24;00:02:35;1.028;-0.03;0.099;-0.08185594528913498;-0.02932153083384037;0.018325956538319588
01:00:0A:00:00:00:00;1724457756;24/08/24;00:02:36;1.036;-0.021;0.098;-0.08429940044879913;-0.006108652334660292;0.04886921867728233
01:00:0A:00:00:00:00;1724457757;24/08/24;00:02:37;1.044;-0.038;0.078;-0.06230825558304787;0.018325956538319588;0.012217304669320583
01:00:0A:00:00:00:00;1724457758;24/08/24;00:02:38;1.05;-0.013;0.093;-0.05497787147760391;0.015882495790719986;-0.013439035043120384
01:00:0A:00:00:00:00;1724457759;24/08/24;00:02:39;1.026;-0.034;0.092;-0.06352998316287994;0.004886921960860491;0.02687807008624077
01:00:0A:00:00:00:00;1724457760;24/08/24;00:02:40;0.992;-0.027;0.1;-0.05009094998240471;0.04642575979232788;-0.006108652334660292
01:00:0A:00:00:00:00;1724457761;24/08/24;00:02:41;0.932;-0.018;0.077;-0.05375614017248154;0.01710422709584236;-0.013439035043120384
01:00:0A:00:00:00:00;1724457762;24/08/24;00:02:42;0.938;-0.02;0.078;-0.04398229718208313;0.04764748737215996;-0.05742133408784866
01:00:0A:00:00:00:00;1724457763;24/08/24;00:02:43;1.015;-0.033;0.071;-0.07941248267889023;-0.11239919811487198;-0.024434609338641167
01:00:0A:00:00:00:00;1724457764;24/08/24;00:02:44;1.057;-0.044;0.032;-0.05009094998240471;0.03176499158143997;0.006108652334660292
01:00:0A:00:00:00:00;1724457765;24/08/24;00:02:45;1.063;-0.027;0.182;-0.09651670604944229;-0.07941248267889023;0.04153883829712868
01:00:0A:00:00:00:00;1724457766;24/08/24;00:02:46;1.036;-0.013;0.004;-0.08307767659425735;-0.13927726447582245;0.018325956538319588
01:00:0A:00:00:00:00;1724457767;24/08/24;00:02:47;0.995;-0.017;0.177;-0.028099799528717995;0.3042108714580536;0.0354301817715168
01:00:0A:00:00:00:00;1724457768;24/08/24;00:02:48;0.975;-0.014;0.052;-0.09407324343919754;-0.21991148591041565;-0.07330382615327835
01:00:0A:00:00:00:00;1724457769;24/08/24;00:02:49;0.979;-0.001;0.009;-0.00855211354792118;0.2223549485206604;0.0
01:00:0A:00:00:00:00;1724457770;24/08/24;00:02:50;1.003;-0.038;0.125;-0.05864306166768074;-0.12095131725072861;-0.009773843921720982
01:00:0A:00:00:00:00;1724457771;24/08/24;00:02:51;1.026;-0.04;0.04;-0.05375614017248154;-0.14049901068210602;-0.051312677562236786
01:00:0A:00:00:00:00;1724457772;24/08/24;00:02:52;1.027;-0.013;0.079;-0.02076941914856434;0.05742133408784866;0.0354301817715168
01:00:0A:00:00:00:00;1724457773;24/08/24;00:02:53;1.008;-0.049;0.152;-0.04886921867728233;0.013439035043120384;0.059864792972803116
01:00:0A:00:00:00:00;1724457774;24/08/24;00:02:54;1.007;-0.015;0.056;-0.04642575979232788;-0.05375614017248154;-0.01710422709584236
01:00:0A:00:00:00:00;1724457775;24/08/24;00:02:55;1.021;0.011;0.037;-0.025656338781118393;0.06352998316287994;0.024434609338641167
01:00:0A:00:00:00:00;1724457776;24/08/24;00:02:56;1.027;-0.041;0.122;-0.051312677562236786;-0.08552113175392151;-0.028099799528717995
01:00:0A:00:00:00:00;1724457777;24/08/24;00:02:57;1.039;-0.018;0.061;-0.04764748737215996;-0.12217304855585098;-0.07330382615327835
01:00:0A:00:00:00:00;1724457778;24/08/24;00:02:58;1.028;-0.025;0.109;-0.039095375686883926;0.02076941914856434;0.0024434609804302454
01:00:0A:00:00:00:00;1724457779;24/08/24;00:02:59;0.997;-0.061;0.133;-0.05864306166768074;0.013439035043120384;0.039095375686883926
01:00:0A:00:00:00:00;1724457780;24/08/24;00:03:00;0.982;-0.019;0.08;-0.04764748737215996;-0.013439035043120384;-0.04642575979232788
01:00:0A:00:00:00:00;1724457781;24/08/24;00:03:01;0.979;-0.011;0.066;-0.051312677562236786;0.07452555745840073;0.04153883829712868
01:00:0A:00:00:00:00;1724457782;24/08/24;00:03:02;0.998;-0.034;0.079;-0.05864306166768074;-0.09896016865968704;-0.07696902006864548
01:00:0A:00:00:00:00;1724457783;24/08/24;00:03:03;1.043;-0.003;0.045;-0.05375614017248154;-0.0354301817715168;-0.018325956538319588
01:00:0A:00:00:00:00;1724457784;24/08/24;00:03:04;1.057;-0.051;0.121;-0.059864792972803116;0.0;0.030543262138962746
01:00:0A:00:00:00:00;1724457785;24/08/24;00:03:05;1.051;-0.031;0.076;-0.05742133408784866;-0.02932153083384037;0.012217304669320583
01:00:0A:00:00:00:00;1724457786;24/08/24;00:03:06;0.997;-0.005;0.092;-0.05497787147760391;0.02321287989616394;0.030543262138962746
01:00:0A:00:00:00:00;1724457787;24/08/24;00:03:07;0.965;-0.014;0.099;-0.06719517707824707;-0.025656338781118393;0.009773843921720982
01:00:0A:00:00:00:00;1724457788;24/08/24;00:03:08;0.978;-0.014;0.095;-0.05497787147760391;0.013439035043120384;-0.05009094998240471
01:00:0A:00:00:00:00;1724457789;24/08/24;00:03:09;1.015;-0.019;0.104;-0.07452555745840073;0.013439035043120384;-0.0036651913542300463
01:00:0A:00:00:00:00;1724457790;24/08/24;00:03:10;1.059;-0.042;0.091;-0.07696902006864548;0.03176499158143997;-0.0024434609804302454
01:00:0A:00:00:00:00;1724457791;24/08/24;00:03:11;1.067;0.0;0.08;-0.08429940044879913;0.030543262138962746;0.02932153083384037
01:00:0A:00:00:00:00;1724457792;24/08/24;00:03:12;1.034;-0.032;0.067;-0.07819075137376785;-0.00855211354792118;0.04642575979232788
01:00:0A:00:00:00:00;1724457793;24/08/24;00:03:13;0.977;0.005;0.067;-0.045204028487205505;-0.0354301817715168;-0.08674286305904388
01:00:0A:00:00:00:00;1724457794;24/08/24;00:03:14;0.965;-0.022;0.069;-0.06352998316287994;-0.06108652427792549;0.014660765416920185
01:00:0A:00:00:00:00;1724457795;24/08/24;00:03:15;0.993;-0.053;0.081;-0.02076941914856434;-0.05009094998240471;-0.10506881773471832
01:00:0A:00:00:00:00;1724457796;24/08/24;00:03:16;1.024;-0.027;0.094;-0.042760565876960754;-0.028099799528717995;0.03787364438176155
01:00:0A:00:00:00:00;1724457797;24/08/24;00:03:17;1.048;-0.07;0.087;-0.0354301817715168;-0.0024434609804302454;0.06719517707824707
01:00:0A:00:00:00:00;1724457798;24/08/24;00:03:18;1.042;-0.013;0.093;-0.021991148591041565;0.009773843921720982;0.05009094998240471
01:00:0A:00:00:00:00;1724457799;24/08/24;00:03:19;1.011;0.0;0.094;-0.02932153083384037;0.00855211354792118;0.04642575979232788
01:00:0A:00:00:00:00;1724457800;24/08/24;00:03:20;0.999;-0.014;0.085;-0.009773843921720982;0.01710422709584236;-0.015882495790719986
01:00:0A:00:00:00:00;1724457801;24/08/24;00:03:21;1.0;-0.014;0.081;-0.0036651913542300463;-0.0024434609804302454;-0.06475171446800232
01:00:0A:00:00:00:00;1724457802;24/08/24;00:03:22;1.024;-0.033;0.082;-0.028099799528717995;-0.036651913076639175;0.0
01:00:0A:00:00:00:00;1724457803;24/08/24;00:03:23;1.038;-0.056;0.081;-0.025656338781118393;-0.021991148591041565;0.028099799528717995
01:00:0A:00:00:00:00;1724457804;24/08/24;00:03:24;1.03;-0.006;0.101;-0.02687807008624077;0.0024434609804302454;0.028099799528717995
01:00:0A:00:00:00:00;1724457805;24/08/24;00:03:25;1.01;0.0;0.091;-0.04398229718208313;-0.004886921960860491;0.0354301817715168
01:00:0A:00:00:00:00;1724457806;24/08/24;00:03:26;0.986;0.0;0.09;-0.028099799528717995;0.02687807008624077;-0.05742133408784866
01:00:0A:00:00:00:00;1724457807;24/08/24;00:03:27;0.988;-0.012;0.095;-0.040317103266716;0.014660765416920185;-0.06230825558304787
01:00:0A:00:00:00:00;1724457808;24/08/24;00:03:28;1.007;-0.044;0.081;-0.05619959905743599;-0.009773843921720982;-0.045204028487205505
01:00:0A:00:00:00:00;1724457809;24/08/24;00:03:29;1.016;-0.054;0.069;-0.05742133408784866;-0.012217304669320583;-0.01710422709584236
01:00:0A:00:00:00:00;1724457810;24/08/24;00:03:30;1.032;-0.04;0.086;-0.06841690838336945;-0.04886921867728233;0.04764748737215996
01:00:0A:00:00:00:00;1724457811;24/08/24;00:03:31;1.04;-0.022;0.092;-0.06352998316287994;-0.030543262138962746;0.045204028487205505
01:00:0A:00:00:00:00;1724457812;24/08/24;00:03:32;1.033;-0.007;0.097;-0.04886921867728233;0.00855211354792118;0.02687807008624077
01:00:0A:00:00:00:00;1724457813;24/08/24;00:03:33;0.998;-0.006;0.089;-0.040317103266716;0.039095375686883926;-0.014660765416920185
01:00:0A:00:00:00:00;1724457814;24/08/24;00:03:34;0.985;-0.026;0.069;-0.03420845419168472;0.00855211354792118;-0.03298672288656235
01:00:0A:00:00:00:00;1724457815;24/08/24;00:03:35;0.992;-0.038;0.064;-0.021991148591041565;-0.0073303827084600925;-0.0354301817715168
01:00:0A:00:00:00:00;1724457816;24/08/24;00:03:36;1.013;-0.037;0.088;-0.03298672288656235;-0.05742133408784866;-0.010995574295520782
01:00:0A:00:00:00:00;1724457817;24/08/24;00:03:37;1.041;-0.041;0.081;-0.030543262138962746;-0.02687807008624077;0.015882495790719986
01:00:0A:00:00:00:00;1724457818;24/08/24;00:03:38;1.046;-0.029;0.09;-0.02321287989616394;0.01710422709584236;0.02687807008624077
01:00:0A:00:00:00:00;1724457819;24/08/24;00:03:39;1.023;-0.02;0.089;-0.025656338781118393;0.014660765416920185;0.04153883829712868
01:00:0A:00:00:00:00;1724457820;24/08/24;00:03:40;0.994;-0.01;0.064;-0.015882495790719986;-0.02076941914856434;-0.010995574295520782
01:00:0A:00:00:00:00;1724457821;24/08/24;00:03:41;0.99;-0.013;0.076;-0.009773843921720982;-0.02687807008624077;-0.02321287989616394
01:00:0A:00:00:00:00;1724457822;24/08/24;00:03:42;1.019;-0.031;0.091;-0.018325956538319588;-0.05864306166768074;-0.021991148591041565
01:00:0A:00:00:00:00;1724457823;24/08/24;00:03:43;1.045;-0.035;0.081;-0.010995574295520782;-0.00855211354792118;0.0024434609804302454
01:00:0A:00:00:00:00;1724457824;24/08/24;00:03:44;1.029;-0.031;0.096;-0.012217304669320583;0.02932153083384037;0.030543262138962746
01:00:0A:00:00:00:00;1724457825;24/08/24;00:03:45;0.999;-0.025;0.066;-0.02932153083384037;-0.036651913076639175;0.045204028487205505
01:00:0A:00:00:00:00;1724457826;24/08/24;00:03:46;0.956;-0.019;0.075;-0.021991148591041565;-0.021991148591041565;0.024434609338641167
01:00:0A:00:00:00:00;1724457827;24/08/24;00:03:47;0.967;-0.019;0.086;-0.025656338781118393;-0.07819075137376785;-0.012217304669320583
01:00:0A:00:00:00:00;1724457828;24/08/24;00:03:48;1.025;-0.018;0.093;-0.010995574295520782;0.0073303827084600925;-0.024434609338641167
01:00:0A:00:00:00:00;1724457829;24/08/24;00:03:49;1.064;-0.028;0.106;-0.018325956538319588;0.0073303827084600925;-0.018325956538319588
01:00:0A:00:00:00:00;1724457830;24/08/24;00:03:50;1.069;-0.027;0.06;-0.013439035043120384;0.018325956538319588;0.0024434609804302454
01:00:0A:00:00:00:00;1724457831;24/08/24;00:03:51;1.031;-0.037;0.088;-0.00855211354792118;0.036651913076639175;0.021991148591041565
01:00:0A:00:00:00:00;1724457832;24/08/24;00:03:52;0.998;-0.027;0.048;-0.012217304669320583;-0.08185594528913498;-0.006108652334660292
01:00:0A:00:00:00:00;1724457833;24/08/24;00:03:53;0.962;-0.039;0.076;0.013439035043120384;0.0036651913542300463;-0.0024434609804302454
01:00:0A:00:00:00:00;1724457834;24/08/24;00:03:54;0.977;-0.044;0.092;0.0073303827084600925;-0.10384709388017654;-0.00855211354792118
01:00:0A:00:00:00:00;1724457835;24/08/24;00:03:55;1.021;-0.038;0.081;0.03176499158143997;-0.0036651913542300463;0.014660765416920185
01:00:0A:00:00:00:00;1724457836;24/08/24;00:03:56;1.037;-0.038;0.114;0.042760565876960754;-0.0073303827084600925;0.021991148591041565
01:00:0A:00:00:00:00;1724457837;24/08/24;00:03:57;1.037;-0.023;0.087;0.04886921867728233;-0.0036651913542300463;0.021991148591041565
01:00:0A:00:00:00:00;1724457838;24/08/24;00:03:58;1.016;-0.018;0.08;0.06475171446800232;0.02687807008624077;0.0
01:00:0A:00:00:00:00;1724457839;24/08/24;00:03:59;1.006;-0.019;0.094;0.06108652427792549;0.015882495790719986;-0.024434609338641167
01:00:0A:00:00:00:00;1724457840;24/08/24;00:04:00;1.003;-0.025;0.076;0.04886921867728233;-0.03176499158143997;-0.030543262138962746
01:00:0A:00:00:00:00;1724457841;24/08/24;00:04:01;1.005;-0.031;0.077;0.05253440886735916;0.004886921960860491;-0.025656338781118393
01:00:0A:00:00:00:00;1724457842;24/08/24;00:04:02;1.02;-0.039;0.097;0.036651913076639175;-0.02932153083384037;-0.0012217304902151227
01:00:0A:00:00:00:00;1724457843;24/08/24;00:04:03;1.03;-0.039;0.081;0.03176499158143997;-0.021991148591041565;0.018325956538319588
01:00:0A:00:00:00:00;1724457844;24/08/24;00:04:04;1.026;-0.031;0.081;0.036651913076639175;0.015882495790719986;0.036651913076639175
01:00:0A:00:00:00:00;1724457845;24/08/24;00:04:05;1.019;-0.02;0.085;0.02687807008624077;0.0024434609804302454;0.036651913076639175
01:00:0A:00:00:00:00;1724457846;24/08/24;00:04:06;1.016;-0.016;0.073;0.02321287989616394;-0.030543262138962746;0.02076941914856434
01:00:0A:00:00:00:00;1724457847;24/08/24;00:04:07;1.015;-0.015;0.082;0.03298672288656235;0.0012217304902151227;-0.006108652334660292
01:00:0A:00:00:00:00;1724457848;24/08/24;00:04:08;1.007;-0.012;0.086;0.02687807008624077;-0.0036651913542300463;-0.006108652334660292
01:00:0A:00:00:00:00;1724457849;24/08/24;00:04:09;0.996;-0.024;0.075;0.02687807008624077;-0.030543262138962746;-0.013439035043120384
01:00:0A:00:00:00:00;1724457850;24/08/24;00:04:10;0.997;-0.031;0.073;0.03787364438176155;-0.013439035043120384;-0.021991148591041565
01:00:0A:00:00:00:00;1724457851;24/08/24;00:04:11;1.023;-0.034;0.088;0.025656338781118393;-0.030543262138962746;-0.004886921960860491
01:00:0A:00:00:00:00;1724457852;24/08/24;00:04:12;1.041;-0.034;0.082;0.015882495790719986;-0.036651913076639175;0.01710422709584236
01:00:0A:00:00:00:00;1724457853;24/08/24;00:04:13;1.049;-0.024;0.09;0.013439035043120384;-0.01710422709584236;0.03787364438176155
01:00:0A:00:00:00:00;1724457854;24/08/24;00:04:14;1.038;-0.014;0.103;0.006108652334660292;-0.0036651913542300463;0.03176499158143997
01:00:0A:00:00:00:00;1724457855;24/08/24;00:04:15;1.002;-0.012;0.088;0.004886921960860491;0.004886921960860491;0.015882495790719986
01:00:0A:00:00:00:00;1724457856;24/08/24;00:04:16;0.967;-0.019;0.079;0.015882495790719986;0.015882495790719986;-0.004886921960860491
01:00:0A:00:00:00:00;1724457857;24/08/24;00:04:17;0.971;-0.022;0.076;0.013439035043120384;-0.03420845419168472;-0.012217304669320583
01:00:0A:00:00:00:00;1724457858;24/08/24;00:04:18;1.016;-0.027;0.075;0.018325956538319588;-0.025656338781118393;-0.009773843921720982
01:00:0A:00:00:00:00;1724457859;24/08/24;00:04:19;1.041;-0.032;0.087;0.024434609338641167;-0.039095375686883926;-0.0012217304902151227
01:00:0A:00:00:00:00;1724457860;24/08/24;00:04:20;1.056;-0.02;0.089;0.03176499158143997;-0.019547687843441963;0.02076941914856434
01:00:0A:00:00:00:00;1724457861;24/08/24;00:04:21;1.044;-0.018;0.095;0.04398229718208313;0.00855211354792118;0.019547687843441963
01:00:0A:00:00:00:00;1724457862;24/08/24;00:04:22;1.004;-0.02;0.089;0.051312677562236786;0.021991148591041565;-0.006108652334660292
01:00:0A:00:00:00:00;1724457863;24/08/24;00:04:23;0.982;-0.029;0.077;0.05375614017248154;0.0036651913542300463;-0.00855211354792118
01:00:0A:00:00:00:00;1724457864;24/08/24;00:04:24;0.979;-0.041;0.075;0.05864306166768074;0.006108652334660292;0.010995574295520782
01:00:0A:00:00:00:00;1724457865;24/08/24;00:04:25;1.016;-0.033;0.079;0.05619959905743599;-0.040317103266716;0.010995574295520782
01:00:0A:00:00:00:00;1724457866;24/08/24;00:04:26;1.036;-0.022;0.08;0.05619959905743599;-0.036651913076639175;0.025656338781118393
01:00:0A:00:00:00:00;1724457867;24/08/24;00:04:27;1.045;-0.02;0.099;0.06230825558304787;0.0024434609804302454;0.02076941914856434
01:00:0A:00:00:00:00;1724457868;24/08/24;00:04:28;1.028;-0.015;0.091;0.06719517707824707;0.009773843921720982;-0.004886921960860491
01:00:0A:00:00:00:00;1724457869;24/08/24;00:04:29;0.996;-0.023;0.074;0.06841690838336945;0.0024434609804302454;-0.021991148591041565
01:00:0A:00:00:00:00;1724457870;24/08/24;00:04:30;0.988;-0.038;0.071;0.06841690838336945;-0.018325956538319588;-0.019547687843441963
01:00:0A:00:00:00:00;1724457871;24/08/24;00:04:31;1.005;-0.041;0.079;0.06230825558304787;-0.05253440886735916;0.0012217304902151227
01:00:0A:00:00:00:00;1724457872;24/08/24;00:04:32;1.026;-0.034;0.084;0.059864792972803116;-0.03420845419168472;0.01710422709584236
01:00:0A:00:00:00:00;1724457873;24/08/24;00:04:33;1.038;-0.027;0.098;0.05619959905743599;-0.009773843921720982;0.03420845419168472
01:00:0A:00:00:00:00;1724457874;24/08/24;00:04:34;1.019;-0.018;0.09;0.05864306166768074;0.010995574295520782;0.014660765416920185
01:00:0A:00:00:00:00;1724457875;24/08/24;00:04:35;1.003;-0.02;0.084;0.059864792972803116;0.019547687843441963;-0.0012217304902151227
01:00:0A:00:00:00:00;1724457876;24/08/24;00:04:36;0.989;-0.033;0.076;0.05619959905743599;-0.0036651913542300463;-0.0036651913542300463
01:00:0A:00:00:00:00;1724457877;24/08/24;00:04:37;1.0;-0.033;0.071;0.05375614017248154;-0.03176499158143997;-0.00855211354792118
01:00:0A:00:00:00:00;1724457878;24/08/24;00:04:38;1.029;-0.026;0.081;0.05009094998240471;-0.039095375686883926;0.014660765416920185
01:00:0A:00:00:00:00;1724457879;24/08/24;00:04:39;1.035;-0.028;0.095;0.05375614017248154;-0.025656338781118393;0.021991148591041565
01:00:0A:00:00:00:00;1724457880;24/08/24;00:04:40;1.025;-0.018;0.092;0.06352998316287994;0.00855211354792118;-0.0036651913542300463
01:00:0A:00:00:00:00;1724457881;24/08/24;00:04:41;1.009;-0.022;0.084;0.06963863223791122;0.018325956538319588;-0.015882495790719986
01:00:0A:00:00:00:00;1724457882;24/08/24;00:04:42;0.991;-0.042;0.083;0.06841690838336945;-0.0036651913542300463;-0.012217304669320583
01:00:0A:00:00:00:00;1724457883;24/08/24;00:04:43;1.002;-0.047;0.086;0.06475171446800232;-0.010995574295520782;0.009773843921720982
01:00:0A:00:00:00:00;1724457884;24/08/24;00:04:44;1.023;-0.042;0.086;0.06108652427792549;-0.0036651913542300463;0.0354301817715168
01:00:0A:00:00:00:00;1724457885;24/08/24;00:04:45;1.041;-0.028;0.088;0.05864306166768074;0.0073303827084600925;0.05742133408784866
01:00:0A:00:00:00:00;1724457886;24/08/24;00:04:46;1.034;-0.01;0.079;0.05864306166768074;0.0;0.040317103266716
01:00:0A:00:00:00:00;1724457887;24/08/24;00:04:47;1.008;-0.003;0.077;0.06230825558304787;-0.00855211354792118;-0.013439035043120384
01:00:0A:00:00:00:00;1724457888;24/08/24;00:04:48;0.996;-0.017;0.081;0.059864792972803116;-0.021991148591041565;-0.0354301817715168
01:00:0A:00:00:00:00;1724457889;24/08/24;00:04:49;0.994;-0.034;0.089;0.05742133408784866;-0.02687807008624077;-0.04153883829712868
01:00:0A:00:00:00:00;1724457890;24/08/24;00:04:50;1.003;-0.04;0.093;0.051312677562236786;-0.010995574295520782;-0.014660765416920185
01:00:0A:00:00:00:00;1724457891;24/08/24;00:04:51;1.027;-0.04;0.094;0.04398229718208313;0.0024434609804302454;0.009773843921720982
01:00:0A:00:00:00:00;1724457892;24/08/24;00:04:52;1.034;-0.033;0.081;0.039095375686883926;0.010995574295520782;0.036651913076639175
01:00:0A:00:00:00:00;1724457893;24/08/24;00:04:53;1.028;-0.027;0.077;0.03787364438176155;0.010995574295520782;0.0354301817715168
01:00:0A:00:00:00:00;1724457894;24/08/24;00:04:54;1.009;-0.016;0.074;0.036651913076639175;-0.019547687843441963;0.009773843921720982
01:00:0A:00:00:00:00;1724457895;24/08/24;00:04:55;0.999;-0.013;0.079;0.036651913076639175;-0.03420845419168472;-0.010995574295520782
01:00:0A:00:00:00:00;1724457896;24/08/24;00:04:56;1.001;-0.02;0.087;0.03787364438176155;-0.019547687843441963;-0.021991148591041565
01:00:0A:00:00:00:00;1724457897;24/08/24;00:04:57;1.016;-0.022;0.086;0.0354301817715168;-0.021991148591041565;-0.01710422709584236
01:00:0A:00:00:00:00;1724457898;24/08/24;00:04:58;1.028;-0.031;0.083;0.03420845419168472;-0.015882495790719986;-0.00855211354792118
01:00:0A:00:00:00:00;1724457899;24/08/24;00:04:59;1.029;-0.032;0.085;0.03420845419168472;-0.0073303827084600925;-0.0036651913542300463
01:00:0A:00:00:00:00;1724457900;24/08/24;00:05:00;1.021;-0.037;0.081;0.030543262138962746;-0.006108652334660292;0.009773843921720982
01:00:0A:00:00:00:00;1724457901;24/08/24;00:05:01;1.008;-0.04;0.081;0.028099799528717995;-0.012217304669320583;0.03176499158143997
01:00:0A:00:00:00:00;1724457902;24/08/24;00:05:02;1.0;-0.039;0.082;0.03176499158143997;-0.013439035043120384;0.021991148591041565
01:00:0A:00:00:00:00;1724457903;24/08/24;00:05:03;0.994;-0.029;0.084;0.03298672288656235;-0.014660765416920185;0.015882495790719986
01:00:0A:00:00:00:00;1724457904;24/08/24;00:05:04;0.998;-0.025;0.082;0.03298672288656235;-0.010995574295520782;0.00855211354792118
01:00:0A:00:00:00:00;1724457905;24/08/24;00:05:05;1.014;-0.027;0.083;0.03420845419168472;-0.01710422709584236;-0.009773843921720982
01:00:0A:00:00:00:00;1724457906;24/08/24;00:05:06;1.024;-0.026;0.085;0.03298672288656235;-0.01710422709584236;-0.0073303827084600925
01:00:0A:00:00:00:00;1724457907;24/08/24;00:05:07;1.038;-0.033;0.086;0.03298672288656235;-0.00855211354792118;-0.009773843921720982
01:00:0A:00:00:00:00;1724457908;24/08/24;00:05:08;1.046;-0.037;0.085;0.03298672288656235;-0.0024434609804302454;0.0024434609804302454
01:00:0A:00:00:00:00;1724457909;24/08/24;00:05:09;1.028;-0.037;0.082;0.02932153083384037;0.0073303827084600925;0.036651913076639175
01:00:0A:00:00:00:00;1724457910;24/08/24;00:05:10;0.985;-0.025;0.074;0.02687807008624077;-0.0073303827084600925;0.040317103266716
01:00:0A:00:00:00:00;1724457911;24/08/24;00:05:11;0.962;-0.022;0.07;0.028099799528717995;-0.030543262138962746;0.019547687843441963
01:00:0A:00:00:00:00;1724457912;24/08/24;00:05:12;0.978;-0.021;0.079;0.03298672288656235;-0.04886921867728233;-0.025656338781118393
01:00:0A:00:00:00:00;1724457913;24/08/24;00:05:13;1.007;-0.027;0.088;0.0354301817715168;-0.040317103266716;-0.02687807008624077
01:00:0A:00:00:00:00;1724457914;24/08/24;00:05:14;1.052;-0.032;0.094;0.0354301817715168;-0.0036651913542300463;-0.0036651913542300463
01:00:0A:00:00:00:00;1724457915;24/08/24;00:05:15;1.068;-0.031;0.088;0.03787364438176155;0.019547687843441963;0.0036651913542300463
01:00:0A:00:00:00:00;1724457916;24/08/24;00:05:16;1.057;-0.03;0.075;0.040317103266716;0.03787364438176155;0.025656338781118393
01:00:0A:00:00:00:00;1724457917;24/08/24;00:05:17;1.027;-0.033;0.065;0.04153883829712868;0.025656338781118393;0.039095375686883926
01:00:0A:00:00:00:00;1724457918;24/08/24;00:05:18;0.971;-0.022;0.065;0.04153883829712868;-0.021991148591041565;0.01710422709584236
01:00:0A:00:00:00:00;1724457919;24/08/24;00:05:19;0.972;-0.021;0.076;0.042760565876960754;-0.03787364438176155;-0.00855211354792118
01:00:0A:00:00:00:00;1724457920;24/08/24;00:05:20;1.001;-0.028;0.082;0.042760565876960754;-0.039095375686883926;-0.015882495790719986
01:00:0A:00:00:00:00;1724457921;24/08/24;00:05:21;1.042;-0.033;0.09;0.040317103266716;-0.01710422709584236;0.0024434609804302454
01:00:0A:00:00:00:00;1724457922;24/08/24;00:05:22;1.046;-0.034;0.09;0.0354301817715168;0.0036651913542300463;0.021991148591041565
01:00:0A:00:00:00:00;1724457923;24/08/24;00:05:23;1.028;-0.029;0.081;0.03176499158143997;0.0012217304902151227;0.02076941914856434
01:00:0A:00:00:00:00;1724457924;24/08/24;00:05:24;1.01;-0.03;0.081;0.028099799528717995;-0.012217304669320583;0.013439035043120384
01:00:0A:00:00:00:00;1724457925;24/08/24;00:05:25;0.997;-0.036;0.09;0.02687807008624077;-0.02076941914856434;0.004886921960860491
01:00:0A:00:00:00:00;1724457926;24/08/24;00:05:26;0.997;-0.035;0.093;0.024434609338641167;-0.0073303827084600925;0.0073303827084600925
01:00:0A:00:00:00:00;1724457927;24/08/24;00:05:27;1.007;-0.031;0.086;0.02321287989616394;0.009773843921720982;0.0036651913542300463
01:00:0A:00:00:00:00;1724457928;24/08/24;00:05:28;1.02;-0.031;0.075;0.01710422709584236;-0.010995574295520782;0.006108652334660292
01:00:0A:00:00:00:00;1724457929;24/08/24;00:05:29;1.026;-0.029;0.073;0.009773843921720982;-0.02687807008624077;0.01710422709584236
01:00:0A:00:00:00:00;1724457930;24/08/24;00:05:30;1.028;-0.024;0.082;0.004886921960860491;-0.036651913076639175;0.012217304669320583
01:00:0A:00:00:00:00;1724457931;24/08/24;00:05:31;1.024;-0.024;0.09;0.0036651913542300463;-0.03420845419168472;-0.0012217304902151227
01:00:0A:00:00:00:00;1724457932;24/08/24;00:05:32;1.015;-0.039;0.099;0.004886921960860491;-0.004886921960860491;0.0024434609804302454
01:00:0A:00:00:00:00;1724457933;24/08/24;00:05:33;1.008;-0.039;0.095;0.006108652334660292;0.018325956538319588;0.013439035043120384
01:00:0A:00:00:00:00;1724457934;24/08/24;00:05:34;0.996;-0.03;0.08;0.004886921960860491;0.0073303827084600925;0.015882495790719986
01:00:0A:00:00:00:00;1724457935;24/08/24;00:05:35;1.0;-0.03;0.076;0.004886921960860491;-0.012217304669320583;-0.0012217304902151227
01:00:0A:00:00:00:00;1724457936;24/08/24;00:05:36;1.019;-0.033;0.079;0.004886921960860491;-0.02932153083384037;-0.0073303827084600925
01:00:0A:00:00:00:00;1724457937;24/08/24;00:05:37;1.035;-0.031;0.088;0.0;-0.024434609338641167;0.013439035043120384
01:00:0A:00:00:00:00;1724457938;24/08/24;00:05:38;1.036;-0.033;0.088;0.0;-0.010995574295520782;0.015882495790719986
01:00:0A:00:00:00:00;1724457939;24/08/24;00:05:39;1.015;-0.028;0.088;0.0012217304902151227;0.0073303827084600925;0.01710422709584236
01:00:0A:00:00:00:00;1724457940;24/08/24;00:05:40;1.0;-0.029;0.083;-0.0012217304902151227;0.004886921960860491;0.010995574295520782
01:00:0A:00:00:00:00;1724457941;24/08/24;00:05:41;0.992;-0.032;0.075;0.0012217304902151227;-0.018325956538319588;-0.010995574295520782
01:00:0A:00:00:00:00;1724457942;24/08/24;00:05:42;1.002;-0.029;0.079;0.0024434609804302454;-0.028099799528717995;-0.014660765416920185
01:00:0A:00:00:00:00;1724457943;24/08/24;00:05:43;1.028;-0.03;0.091;-0.0036651913542300463;-0.03298672288656235;0.0024434609804302454
01:00:0A:00:00:00:00;1724457944;24/08/24;00:05:44;1.034;-0.037;0.093;-0.0024434609804302454;-0.014660765416920185;0.010995574295520782
01:00:0A:00:00:00:00;1724457945;24/08/24;00:05:45;1.029;-0.025;0.092;0.0;0.010995574295520782;0.013439035043120384
01:00:0A:00:00:00:00;1724457946;24/08/24;00:05:46;1.007;-0.022;0.084;-0.006108652334660292;0.00855211354792118;0.019547687843441963
01:00:0A:00:00:00:00;1724457947;24/08/24;00:05:47;0.997;-0.023;0.08;-0.006108652334660292;-0.0036651913542300463;0.0036651913542300463
01:00:0A:00:00:00:00;1724457948;24/08/24;00:05:48;0.992;-0.023;0.081;-0.004886921960860491;-0.012217304669320583;-0.012217304669320583
01:00:0A:00:00:00:00;1724457949;24/08/24;00:05:49;1.001;-0.028;0.081;-0.010995574295520782;-0.030543262138962746;-0.0012217304902151227
01:00:0A:00:00:00:00;1724457950;24/08/24;00:05:50;1.023;-0.035;0.086;-0.009773843921720982;-0.019547687843441963;-0.010995574295520782
01:00:0A:00:00:00:00;1724457951;24/08/24;00:05:51;1.028;-0.03;0.09;-0.00855211354792118;-0.006108652334660292;-0.00855211354792118
01:00:0A:00:00:00:00;1724457952;24/08/24;00:05:52;1.026;-0.032;0.087;-0.013439035043120384;-0.004886921960860491;0.00855211354792118
01:00:0A:00:00:00:00;1724457953;24/08/24;00:05:53;1.022;-0.032;0.083;-0.012217304669320583;-0.0073303827084600925;0.006108652334660292
01:00:0A:00:00:00:00;1724457954;24/08/24;00:05:54;1.015;-0.026;0.083;-0.010995574295520782;-0.0024434609804302454;0.0024434609804302454
01:00:0A:00:00:00:00;1724457955;24/08/24;00:05:55;1.011;-0.027;0.082;-0.015882495790719986;-0.0073303827084600925;0.012217304669320583
01:00:0A:00:00:00:00;1724457956;24/08/24;00:05:56;1.006;-0.029;0.079;-0.012217304669320583;-0.004886921960860491;0.0073303827084600925
01:00:0A:00:00:00:00;1724457957;24/08/24;00:05:57;1.002;-0.026;0.08;-0.009773843921720982;-0.00855211354792118;-0.0012217304902151227
01:00:0A:00:00:00:00;1724457958;24/08/24;00:05:58;1.005;-0.027;0.08;-0.013439035043120384;-0.02076941914856434;-0.0012217304902151227
01:00:0A:00:00:00:00;1724457959;24/08/24;00:05:59;1.017;-0.03;0.08;-0.009773843921720982;-0.024434609338641167;-0.009773843921720982
01:00:0A:00:00:00:00;1724457960;24/08/24;00:06:00;1.023;-0.025;0.087;-0.00855211354792118;-0.01710422709584236;-0.009773843921720982
01:00:0A:00:00:00:00;1724457961;24/08/24;00:06:01;1.026;-0.027;0.086;-0.010995574295520782;-0.013439035043120384;-0.006108652334660292
01:00:0A:00:00:00:00;1724457962;24/08/24;00:06:02;1.026;-0.032;0.081;-0.0073303827084600925;-0.00855211354792118;-0.006108652334660292
01:00:0A:00:00:00:00;1724457963;24/08/24;00:06:03;1.021;-0.028;0.083;-0.00855211354792118;-0.012217304669320583;0.0
01:00:0A:00:00:00:00;1724457964;24/08/24;00:06:04;1.016;-0.028;0.082;-0.013439035043120384;-0.024434609338641167;0.004886921960860491
01:00:0A:00:00:00:00;1724457965;24/08/24;00:06:05;1.01;-0.031;0.082;-0.010995574295520782;-0.019547687843441963;0.004886921960860491
01:00:0A:00:00:00:00;1724457966;24/08/24;00:06:06;1.01;-0.027;0.088;-0.009773843921720982;-0.006108652334660292;0.0073303827084600925
01:00:0A:00:00:00:00;1724457967;24/08/24;00:06:07;1.011;-0.026;0.084;-0.013439035043120384;-0.0024434609804302454;0.019547687843441963
01:00:0A:00:00:00:00;1724457968;24/08/24;00:06:08;1.007;-0.022;0.075;-0.009773843921720982;0.0012217304902151227;0.00855211354792118
01:00:0A:00:00:00:00;1724457969;24/08/24;00:06:09;1.006;-0.017;0.076;-0.0073303827084600925;-0.010995574295520782;-0.009773843921720982
01:00:0A:00:00:00:00;1724457970;24/08/24;00:06:10;1.017;-0.024;0.08;-0.010995574295520782;-0.030543262138962746;-0.018325956538319588
01:00:0A:00:00:00:00;1724457971;24/08/24;00:06:11;1.022;-0.032;0.081;-0.0073303827084600925;-0.02076941914856434;-0.018325956538319588
01:00:0A:00:00:00:00;1724457972;24/08/24;00:06:12;1.023;-0.033;0.089;-0.00855211354792118;-0.010995574295520782;0.004886921960860491
01:00:0A:00:00:00:00;1724457973;24/08/24;00:06:13;1.02;-0.03;0.089;-0.010995574295520782;0.0012217304902151227;0.02321287989616394
01:00:0A:00:00:00:00;1724457974;24/08/24;00:06:14;1.017;-0.031;0.084;-0.006108652334660292;0.00855211354792118;0.021991148591041565
01:00:0A:00:00:00:00;1724457975;24/08/24;00:06:15;1.015;-0.022;0.081;-0.004886921960860491;-0.0036651913542300463;0.014660765416920185
01:00:0A:00:00:00:00;1724457976;24/08/24;00:06:16;1.013;-0.023;0.082;-0.00855211354792118;-0.015882495790719986;0.015882495790719986
01:00:0A:00:00:00:00;1724457977;24/08/24;00:06:17;1.009;-0.024;0.082;-0.0024434609804302454;-0.004886921960860491;0.0012217304902151227
01:00:0A:00:00:00:00;1724457978;24/08/24;00:06:18;1.009;-0.023;0.084;0.0;-0.0036651913542300463;-0.004886921960860491
01:00:0A:00:00:00:00;1724457979;24/08/24;00:06:19;1.01;-0.026;0.079;-0.0036651913542300463;-0.012217304669320583;0.006108652334660292
01:00:0A:00:00:00:00;1724457980;24/08/24;00:06:20;1.01;-0.026;0.075;0.0012217304902151227;-0.00855211354792118;-0.0036651913542300463
01:00:0A:00:00:00:00;1724457981;24/08/24;00:06:21;1.015;-0.023;0.079;0.0024434609804302454;-0.02321287989616394;-0.015882495790719986
01:00:0A:00:00:00:00;1724457982;24/08/24;00:06:22;1.022;-0.029;0.081;-0.0012217304902151227;-0.03420845419168472;-0.0073303827084600925
01:00:0A:00:00:00:00;1724457983;24/08/24;00:06:23;1.023;-0.036;0.085;0.0012217304902151227;-0.02321287989616394;-0.0012217304902151227
01:00:0A:00:00:00:00;1724457984;24/08/24;00:06:24;1.021;-0.029;0.093;0.0024434609804302454;-0.004886921960860491;0.014660765416920185
01:00:0A:00:00:00:00;1724457985;24/08/24;00:06:25;1.021;-0.026;0.09;0.0;-0.0024434609804302454;0.021991148591041565
01:00:0A:00:00:00:00;1724457986;24/08/24;00:06:26;1.019;-0.024;0.08;0.004886921960860491;0.014660765416920185;0.013439035043120384
01:00:0A:00:00:00:00;1724457987;24/08/24;00:06:27;1.016;-0.021;0.08;0.0073303827084600925;0.006108652334660292;0.00855211354792118
01:00:0A:00:00:00:00;1724457988;24/08/24;00:06:28;1.004;-0.023;0.077;0.0024434609804302454;-0.019547687843441963;0.0036651913542300463
01:00:0A:00:00:00:00;1724457989;24/08/24;00:06:29;0.998;-0.025;0.077;0.0073303827084600925;-0.02321287989616394;-0.010995574295520782
01:00:0A:00:00:00:00;1724457990;24/08/24;00:06:30;1.004;-0.028;0.083;0.009773843921720982;-0.024434609338641167;-0.013439035043120384
01:00:0A:00:00:00:00;1724457991;24/08/24;00:06:31;1.015;-0.031;0.089;0.004886921960860491;-0.024434609338641167;-0.0073303827084600925
01:00:0A:00:00:00:00;1724457992;24/08/24;00:06:32;1.03;-0.035;0.09;0.00855211354792118;-0.010995574295520782;0.0012217304902151227
01:00:0A:00:00:00:00;1724457993;24/08/24;00:06:33;1.031;-0.03;0.089;0.012217304669320583;0.0073303827084600925;0.006108652334660292
01:00:0A:00:00:00:00;1724457994;24/08/24;00:06:34;1.022;-0.031;0.089;0.012217304669320583;0.0073303827084600925;0.014660765416920185
01:00:0A:00:00:00:00;1724457995;24/08/24;00:06:35;1.006;-0.03;0.081;0.013439035043120384;-0.0012217304902151227;0.010995574295520782
01:00:0A:00:00:00:00;1724457996;24/08/24;00:06:36;1.003;-0.024;0.084;0.014660765416920185;-0.0012217304902151227;0.0036651913542300463
01:00:0A:00:00:00:00;1724457997;24/08/24;00:06:37;1.006;-0.023;0.086;0.010995574295520782;-0.012217304669320583;-0.0012217304902151227
01:00:0A:00:00:00:00;1724457998;24/08/24;00:06:38;1.014;-0.026;0.081;0.012217304669320583;-0.010995574295520782;-0.004886921960860491
01:00:0A:00:00:00:00;1724457999;24/08/24;00:06:39;1.017;-0.029;0.083;0.013439035043120384;-0.006108652334660292;-0.0024434609804302454
01:00:0A:00:00:00:00;1724458000;24/08/24;00:06:40;1.014;-0.029;0.085;0.009773843921720982;-0.012217304669320583;0.006108652334660292
01:00:0A:00:00:00:00;1724458001;24/08/24;00:06:41;1.012;-0.028;0.078;0.010995574295520782;-0.010995574295520782;0.0
01:00:0A:00:00:00:00;1724458002;24/08/24;00:06:42;1.015;-0.028;0.08;0.013439035043120384;-0.015882495790719986;-0.006108652334660292
01:00:0A:00:00:00:00;1724458003;24/08/24;00:06:43;1.019;-0.027;0.081;0.00855211354792118;-0.025656338781118393;0.0
01:00:0A:00:00:00:00;1724458004;24/08/24;00:06:44;1.024;-0.028;0.084;0.009773843921720982;-0.015882495790719986;0.0024434609804302454
01:00:0A:00:00:00:00;1724458005;24/08/24;00:06:45;1.023;-0.028;0.087;0.013439035043120384;-0.0012217304902151227;0.0
01:00:0A:00:00:00:00;1724458006;24/08/24;00:06:46;1.016;-0.03;0.082;0.009773843921720982;-0.004886921960860491;0.009773843921720982
01:00:0A:00:00:00:00;1724458007;24/08/24;00:06:47;1.013;-0.031;0.079;0.010995574295520782;-0.004886921960860491;0.012217304669320583
01:00:0A:00:00:00:00;1724458008;24/08/24;00:06:48;1.009;-0.024;0.082;0.012217304669320583;-0.0073303827084600925;0.009773843921720982
01:00:0A:00:00:00:00;1724458009;24/08/24;00:06:49;1.009;-0.022;0.083;0.009773843921720982;-0.013439035043120384;0.006108652334660292
01:00:0A:00:00:00:00;1724458010;24/08/24;00:06:50;1.011;-0.027;0.081;0.010995574295520782;-0.0073303827084600925;0.0024434609804302454
01:00:0A:00:00:00:00;1724458011;24/08/24;00:06:51;1.013;-0.025;0.081;0.012217304669320583;-0.006108652334660292;0.0012217304902151227
01:00:0A:00:00:00:00;1724458012;24/08/24;00:06:52;1.014;-0.021;0.078;0.00855211354792118;-0.018325956538319588;0.0024434609804302454
01:00:0A:00:00:00:00;1724458013;24/08/24;00:06:53;1.017;-0.026;0.078;0.010995574295520782;-0.024434609338641167;-0.013439035043120384
01:00:0A:00:00:00:00;1724458014;24/08/24;00:06:54;1.019;-0.027;0.082;0.012217304669320583;-0.018325956538319588;-0.013439035043120384
01:00:0A:00:00:00:00;1724458015;24/08/24;00:06:55;1.024;-0.03;0.088;0.006108652334660292;-0.01710422709584236;0.004886921960860491
01:00:0A:00:00:00:00;1724458016;24/08/24;00:06:56;1.023;-0.033;0.086;0.0073303827084600925;-0.0036651913542300463;0.00855211354792118
01:00:0A:00:00:00:00;1724458017;24/08/24;00:06:57;1.019;-0.027;0.086;0.009773843921720982;0.013439035043120384;0.012217304669320583
01:00:0A:00:00:00:00;1724458018;24/08/24;00:06:58;1.013;-0.023;0.077;0.0073303827084600925;0.0024434609804302454;0.014660765416920185
01:00:0A:00:00:00:00;1724458019;24/08/24;00:06:59;1.008;-0.025;0.074;0.009773843921720982;-0.0036651913542300463;0.00855211354792118
01:00:0A:00:00:00:00;1724458020;24/08/24;00:07:00;1.003;-0.022;0.079;0.010995574295520782;-0.015882495790719986;-0.006108652334660292
01:00:0A:00:00:00:00;1724458021;24/08/24;00:07:01;1.005;-0.023;0.081;0.0073303827084600925;-0.02321287989616394;-0.006108652334660292
01:00:0A:00:00:00:00;1724458022;24/08/24;00:07:02;1.012;-0.031;0.081;0.00855211354792118;-0.015882495790719986;-0.00855211354792118
01:00:0A:00:00:00:00;1724458023;24/08/24;00:07:03;1.016;-0.029;0.085;0.00855211354792118;-0.015882495790719986;-0.004886921960860491
01:00:0A:00:00:00:00;1724458024;24/08/24;00:07:04;1.024;-0.027;0.086;0.0036651913542300463;-0.01710422709584236;0.0036651913542300463
01:00:0A:00:00:00:00;1724458025;24/08/24;00:07:05;1.026;-0.03;0.084;0.006108652334660292;-0.010995574295520782;0.0
01:00:0A:00:00:00:00;1724458026;24/08/24;00:07:06;1.02;-0.029;0.089;0.0073303827084600925;-0.0024434609804302454;0.0024434609804302454
01:00:0A:00:00:00:00;1724458027;24/08/24;00:07:07;1.012;-0.029;0.085;0.0024434609804302454;-0.004886921960860491;0.014660765416920185
01:00:0A:00:00:00:00;1724458028;24/08/24;00:07:08;1.009;-0.026;0.082;0.0036651913542300463;0.004886921960860491;0.012217304669320583
01:00:0A:00:00:00:00;1724458029;24/08/24;00:07:09;1.006;-0.024;0.08;0.006108652334660292;0.0024434609804302454;-0.0012217304902151227
01:00:0A:00:00:00:00;1724458030;24/08/24;00:07:10;1.008;-0.024;0.074;0.0036651913542300463;-0.014660765416920185;0.0
01:00:0A:00:00:00:00;1724458031;24/08/24;00:07:11;1.01;-0.027;0.075;0.006108652334660292;-0.024434609338641167;-0.006108652334660292
01:00:0A:00:00:00:00;1724458032;24/08/24;00:07:12;1.011;-0.026;0.082;0.0073303827084600925;-0.028099799528717995;-0.00855211354792118
01:00:0A:00:00:00:00;1724458033;24/08/24;00:07:13;1.016;-0.03;0.086;0.006108652334660292;-0.021991148591041565;-0.0036651913542300463
01:00:0A:00:00:00:00;1724458034;24/08/24;00:07:14;1.022;-0.036;0.086;0.00855211354792118;-0.0073303827084600925;0.0
01:00:0A:00:00:00:00;1724458035;24/08/24;00:07:15;1.027;-0.032;0.09;0.0073303827084600925;0.0012217304902151227;0.014660765416920185
01:00:0A:00:00:00:00;1724458036;24/08/24;00:07:16;1.02;-0.026;0.083;0.004886921960860491;-0.0024434609804302454;0.01710422709584236
01:00:0A:00:00:00:00;1724458037;24/08/24;00:07:17;1.015;-0.029;0.08;0.0073303827084600925;-0.0012217304902151227;0.012217304669320583
01:00:0A:00:00:00:00;1724458038;24/08/24;00:07:18;1.001;-0.029;0.08;0.00855211354792118;-0.010995574295520782;0.0036651913542300463
01:00:0A:00:00:00:00;1724458039;24/08/24;00:07:19;0.999;-0.027;0.079;0.006108652334660292;-0.024434609338641167;0.006108652334660292
01:00:0A:00:00:00:00;1724458040;24/08/24;00:07:20;1.007;-0.03;0.081;0.009773843921720982;-0.021991148591041565;-0.004886921960860491
01:00:0A:00:00:00:00;1724458041;24/08/24;00:07:21;1.016;-0.026;0.085;0.010995574295520782;-0.02321287989616394;-0.010995574295520782
01:00:0A:00:00:00:00;1724458042;24/08/24;00:07:22;1.027;-0.028;0.082;0.006108652334660292;-0.021991148591041565;0.0024434609804302454
01:00:0A:00:00:00:00;1724458043;24/08/24;00:07:23;1.026;-0.03;0.081;0.006108652334660292;-0.015882495790719986;0.0073303827084600925
01:00:0A:00:00:00:00;1724458044;24/08/24;00:07:24;1.017;-0.027;0.086;0.004886921960860491;-0.010995574295520782;0.00855211354792118
01:00:0A:00:00:00:00;1724458045;24/08/24;00:07:25;1.01;-0.025;0.083;0.0012217304902151227;-0.012217304669320583;0.014660765416920185
01:00:0A:00:00:00:00;1724458046;24/08/24;00:07:26;1.011;-0.028;0.081;0.0036651913542300463;-0.006108652334660292;0.010995574295520782
01:00:0A:00:00:00:00;1724458047;24/08/24;00:07:27;1.016;-0.023;0.082;0.004886921960860491;-0.00855211354792118;0.004886921960860491
01:00:0A:00:00:00:00;1724458048;24/08/24;00:07:28;1.016;-0.021;0.081;0.0024434609804302454;-0.010995574295520782;0.00855211354792118
01:00:0A:00:00:00:00;1724458049;24/08/24;00:07:29;1.014;-0.026;0.079;0.0036651913542300463;-0.009773843921720982;0.0024434609804302454
01:00:0A:00:00:00:00;1724458050;24/08/24;00:07:30;1.011;-0.027;0.082;0.004886921960860491;-0.012217304669320583;0.0
01:00:0A:00:00:00:00;1724458051;24/08/24;00:07:31;1.007;-0.026;0.081;0.0;-0.02076941914856434;0.00855211354792118
01:00:0A:00:00:00:00;1724458052;24/08/24;00:07:32;1.008;-0.028;0.082;0.0024434609804302454;-0.01710422709584236;0.0036651913542300463
01:00:0A:00:00:00:00;1724458053;24/08/24;00:07:33;1.016;-0.024;0.085;0.004886921960860491;-0.010995574295520782;-0.0073303827084600925
01:00:0A:00:00:00:00;1724458054;24/08/24;00:07:34;1.023;-0.028;0.082;0.0012217304902151227;-0.009773843921720982;0.006108652334660292
01:00:0A:00:00:00:00;1724458055;24/08/24;00:07:35;1.021;-0.031;0.081;0.0012217304902151227;-0.009773843921720982;0.00855211354792118
01:00:0A:00:00:00:00;1724458056;24/08/24;00:07:36;1.017;-0.027;0.082;0.0036651913542300463;-0.00855211354792118;0.0073303827084600925
01:00:0A:00:00:00:00;1724458057;24/08/24;00:07:37;1.017;-0.028;0.081;0.0;-0.010995574295520782;0.010995574295520782
01:00:0A:00:00:00:00;1724458058;24/08/24;00:07:38;1.017;-0.03;0.079;0.0036651913542300463;-0.009773843921720982;0.009773843921720982
01:00:0A:00:00:00:00;1724458059;24/08/24;00:07:39;1.014;-0.026;0.081;0.004886921960860491;-0.009773843921720982;0.0073303827084600925
01:00:0A:00:00:00:00;1724458060;24/08/24;00:07:40;1.01;-0.023;0.081;0.0036651913542300463;-0.013439035043120384;0.010995574295520782
01:00:0A:00:00:00:00;1724458061;24/08/24;00:07:41;1.005;-0.028;0.079;0.006108652334660292;-0.014660765416920185;0.0012217304902151227
01:00:0A:00:00:00:00;1724458062;24/08/24;00:07:42;1.005;-0.028;0.08;0.009773843921720982;-0.018325956538319588;-0.006108652334660292
01:00:0A:00:00:00:00;1724458063;24/08/24;00:07:43;1.016;-0.029;0.082;0.006108652334660292;-0.024434609338641167;0.004886921960860491
01:00:0A:00:00:00:00;1724458064;24/08/24;00:07:44;1.023;-0.032;0.083;0.009773843921720982;-0.015882495790719986;0.004886921960860491
01:00:0A:00:00:00:00;1724458065;24/08/24;00:07:45;1.028;-0.028;0.085;0.010995574295520782;-0.004886921960860491;0.00855211354792118
01:00:0A:00:00:00:00;1724458066;24/08/24;00:07:46;1.023;-0.029;0.084;0.00855211354792118;-0.006108652334660292;0.015882495790719986
01:00:0A:00:00:00:00;1724458067;24/08/24;00:07:47;1.013;-0.028;0.081;0.00855211354792118;-0.006108652334660292;0.014660765416920185
01:00:0A:00:00:00:00;1724458068;24/08/24;00:07:48;1.007;-0.024;0.081;0.010995574295520782;-0.0073303827084600925;0.0036651913542300463
01:00:0A:00:00:00:00;1724458069;24/08/24;00:07:49;1.006;-0.024;0.081;0.00855211354792118;-0.018325956538319588;0.0
01:00:0A:00:00:00:00;1724458070;24/08/24;00:07:50;1.01;-0.028;0.081;0.010995574295520782;-0.01710422709584236;-0.0036651913542300463
01:00:0A:00:00:00:00;1724458071;24/08/24;00:07:51;1.016;-0.026;0.084;0.012217304669320583;-0.015882495790719986;-0.0012217304902151227
01:00:0A:00:00:00:00;1724458072;24/08/24;00:07:52;1.017;-0.024;0.085;0.009773843921720982;-0.015882495790719986;0.0036651913542300463
01:00:0A:00:00:00:00;1724458073;24/08/24;00:07:53;1.018;-0.028;0.082;0.013439035043120384;-0.012217304669320583;-0.0024434609804302454
01:00:0A:00:00:00:00;1724458074;24/08/24;00:07:54;1.021;-0.028;0.083;0.014660765416920185;-0.00855211354792118;0.0
01:00:0A:00:00:00:00;1724458075;24/08/24;00:07:55;1.023;-0.026;0.085;0.010995574295520782;-0.009773843921720982;0.009773843921720982
01:00:0A:00:00:00:00;1724458076;24/08/24;00:07:56;1.019;-0.029;0.081;0.012217304669320583;-0.0024434609804302454;0.01710422709584236
01:00:0A:00:00:00:00;1724458077;24/08/24;00:07:57;1.014;-0.026;0.083;0.015882495790719986;0.0024434609804302454;0.012217304669320583
01:00:0A:00:00:00:00;1724458078;24/08/24;00:07:58;1.003;-0.02;0.075;0.025656338781118393;-0.013439035043120384;0.006108652334660292
01:00:0A:00:00:00:00;1724458079;24/08/24;00:07:59;1.002;-0.024;0.076;0.04642575979232788;-0.024434609338641167;0.0
01:00:0A:00:00:00:00;1724458080;24/08/24;00:08:00;1.01;-0.027;0.083;0.04764748737215996;-0.014660765416920185;-0.009773843921720982
01:00:0A:00:00:00:00;1724458081;24/08/24;00:08:01;1.025;-0.034;0.094;0.040317103266716;-0.024434609338641167;-0.004886921960860491
01:00:0A:00:00:00:00;1724458082;24/08/24;00:08:02;1.029;-0.033;0.081;0.036651913076639175;-0.013439035043120384;0.010995574295520782
01:00:0A:00:00:00:00;1724458083;24/08/24;00:08:03;1.022;-0.03;0.084;0.039095375686883926;0.0073303827084600925;0.021991148591041565
01:00:0A:00:00:00:00;1724458084;24/08/24;00:08:04;1.012;-0.024;0.087;0.03298672288656235;-0.0012217304902151227;0.019547687843441963
01:00:0A:00:00:00:00;1724458085;24/08/24;00:08:05;1.004;-0.024;0.078;0.03176499158143997;-0.021991148591041565;0.0073303827084600925
01:00:0A:00:00:00:00;1724458086;24/08/24;00:08:06;1.006;-0.026;0.078;0.0354301817715168;-0.012217304669320583;0.0012217304902151227
01:00:0A:00:00:00:00;1724458087;24/08/24;00:08:07;1.013;-0.023;0.087;0.03298672288656235;-0.018325956538319588;0.0036651913542300463
01:00:0A:00:00:00:00;1724458088;24/08/24;00:08:08;1.018;-0.025;0.083;0.030543262138962746;-0.019547687843441963;0.004886921960860491
01:00:0A:00:00:00:00;1724458089;24/08/24;00:08:09;1.016;-0.027;0.08;0.03420845419168472;-0.0073303827084600925;0.0
01:00:0A:00:00:00:00;1724458090;24/08/24;00:08:10;1.015;-0.026;0.084;0.03176499158143997;-0.0073303827084600925;0.006108652334660292
01:00:0A:00:00:00:00;1724458091;24/08/24;00:08:11;1.012;-0.029;0.082;0.028099799528717995;-0.018325956538319588;0.010995574295520782
01:00:0A:00:00:00:00;1724458092;24/08/24;00:08:12;1.015;-0.026;0.081;0.03298672288656235;-0.015882495790719986;0.0
01:00:0A:00:00:00:00;1724458093;24/08/24;00:08:13;1.022;-0.024;0.085;0.03176499158143997;-0.012217304669320583;0.0024434609804302454
01:00:0A:00:00:00:00;1724458094;24/08/24;00:08:14;1.025;-0.03;0.085;0.028099799528717995;-0.00855211354792118;0.012217304669320583
01:00:0A:00:00:00:00;1724458095;24/08/24;00:08:15;1.021;-0.028;0.082;0.03176499158143997;0.0;0.009773843921720982
01:00:0A:00:00:00:00;1724458096;24/08/24;00:08:16;1.009;-0.022;0.081;0.03176499158143997;-0.0012217304902151227;0.00855211354792118
01:00:0A:00:00:00:00;1724458097;24/08/24;00:08:17;1.003;-0.024;0.081;0.02932153083384037;-0.01710422709584236;0.004886921960860491
01:00:0A:00:00:00:00;1724458098;24/08/24;00:08:18;1.007;-0.028;0.08;0.03176499158143997;-0.019547687843441963;-0.006108652334660292
01:00:0A:00:00:00:00;1724458099;24/08/24;00:08:19;1.017;-0.025;0.083;0.030543262138962746;-0.018325956538319588;0.0024434609804302454
01:00:0A:00:00:00:00;1724458100;24/08/24;00:08:20;1.023;-0.028;0.086;0.02932153083384037;-0.015882495790719986;0.004886921960860491
01:00:0A:00:00:00:00;1724458101;24/08/24;00:08:21;1.025;-0.031;0.084;0.03176499158143997;-0.0073303827084600925;0.0036651913542300463
01:00:0A:00:00:00:00;1724458102;24/08/24;00:08:22;1.021;-0.027;0.083;0.030543262138962746;-0.0024434609804302454;0.009773843921720982
01:00:0A:00:00:00:00;1724458103;24/08/24;00:08:23;1.011;-0.027;0.081;0.02932153083384037;-0.0036651913542300463;0.018325956538319588
01:00:0A:00:00:00:00;1724458104;24/08/24;00:08:24;1.007;-0.025;0.081;0.03176499158143997;-0.009773843921720982;0.0012217304902151227
01:00:0A:00:00:00:00;1724458105;24/08/24;00:08:25;1.008;-0.02;0.079;0.03176499158143997;-0.01710422709584236;-0.0036651913542300463
01:00:0A:00:00:00:00;1724458106;24/08/24;00:08:26;1.014;-0.027;0.082;0.030543262138962746;-0.01710422709584236;0.0024434609804302454
01:00:0A:00:00:00:00;1724458107;24/08/24;00:08:27;1.014;-0.029;0.082;0.03176499158143997;-0.015882495790719986;-0.0024434609804302454
01:00:0A:00:00:00:00;1724458108;24/08/24;00:08:28;1.016;-0.024;0.083;0.030543262138962746;-0.014660765416920185;0.0036651913542300463
01:00:0A:00:00:00:00;1724458109;24/08/24;00:08:29;1.017;-0.03;0.083;0.02932153083384037;-0.013439035043120384;0.009773843921720982
01:00:0A:00:00:00:00;1724458110;24/08/24;00:08:30;1.02;-0.029;0.084;0.030543262138962746;-0.010995574295520782;0.006108652334660292
01:00:0A:00:00:00:00;1724458111;24/08/24;00:08:31;1.02;-0.023;0.082;0.030543262138962746;-0.006108652334660292;0.010995574295520782
01:00:0A:00:00:00:00;1724458112;24/08/24;00:08:32;1.014;-0.025;0.081;0.02932153083384037;-0.004886921960860491;0.012217304669320583
01:00:0A:00:00:00:00;1724458113;24/08/24;00:08:33;1.014;-0.027;0.082;0.03176499158143997;-0.009773843921720982;0.0012217304902151227
01:00:0A:00:00:00:00;1724458114;24/08/24;00:08:34;1.012;-0.023;0.081;0.030543262138962746;-0.013439035043120384;0.0012217304902151227
01:00:0A:00:00:00:00;1724458115;24/08/24;00:08:35;1.012;-0.027;0.081;0.028099799528717995;-0.014660765416920185;0.0073303827084600925
01:00:0A:00:00:00:00;1724458116;24/08/24;00:08:36;1.015;-0.026;0.084;0.036651913076639175;-0.014660765416920185;-0.004886921960860491
01:00:0A:00:00:00:00;1724458117;24/08/24;00:08:37;1.019;-0.021;0.083;0.02932153083384037;-0.02076941914856434;0.0036651913542300463
01:00:0A:00:00:00:00;1724458118;24/08/24;00:08:38;1.02;-0.031;0.081;0.030543262138962746;-0.00855211354792118;0.009773843921720982
01:00:0A:00:00:00:00;1724458119;24/08/24;00:08:39;1.016;-0.026;0.084;0.03420845419168472;-0.0036651913542300463;0.0012217304902151227
01:00:0A:00:00:00:00;1724458120;24/08/24;00:08:40;1.014;-0.022;0.081;0.028099799528717995;-0.014660765416920185;0.006108652334660292
01:00:0A:00:00:00:00;1724458121;24/08/24;00:08:41;1.015;-0.029;0.081;0.028099799528717995;-0.012217304669320583;0.009773843921720982
01:00:0A:00:00:00:00;1724458122;24/08/24;00:08:42;1.016;-0.029;0.084;0.03298672288656235;-0.00855211354792118;0.0
01:00:0A:00:00:00:00;1724458123;24/08/24;00:08:43;1.016;-0.022;0.081;0.028099799528717995;-0.009773843921720982;0.0073303827084600925
01:00:0A:00:00:00:00;1724458124;24/08/24;00:08:44;1.012;-0.027;0.079;0.02687807008624077;-0.010995574295520782;0.012217304669320583
01:00:0A:00:00:00:00;1724458125;24/08/24;00:08:45;1.011;-0.027;0.082;0.03176499158143997;-0.012217304669320583;-0.0012217304902151227
01:00:0A:00:00:00:00;1724458126;24/08/24;00:08:46;1.014;-0.024;0.082;0.02932153083384037;-0.015882495790719986;0.0024434609804302454
01:00:0A:00:00:00:00;1724458127;24/08/24;00:08:47;1.016;-0.028;0.082;0.02687807008624077;-0.012217304669320583;0.009773843921720982
01:00:0A:00:00:00:00;1724458128;24/08/24;00:08:48;1.017;-0.027;0.082;0.030543262138962746;-0.009773843921720982;0.0024434609804302454
01:00:0A:00:00:00:00;1724458129;24/08/24;00:08:49;1.017;-0.025;0.083;0.02932153083384037;-0.00855211354792118;0.004886921960860491
01:00:0A:00:00:00:00;1724458130;24/08/24;00:08:50;1.013;-0.027;0.081;0.02687807008624077;-0.0073303827084600925;0.013439035043120384
01:00:0A:00:00:00:00;1724458131;24/08/24;00:08:51;1.009;-0.027;0.081;0.030543262138962746;-0.010995574295520782;0.0012217304902151227
01:00:0A:00:00:00:00;1724458132;24/08/24;00:08:52;1.01;-0.023;0.081;0.030543262138962746;-0.018325956538319588;0.0
01:00:0A:00:00:00:00;1724458133;24/08/24;00:08:53;1.017;-0.029;0.083;0.028099799528717995;-0.015882495790719986;0.0073303827084600925
01:00:0A:00:00:00:00;1724458134;24/08/24;00:08:54;1.023;-0.029;0.086;0.030543262138962746;-0.010995574295520782;0.0036651913542300463
01:00:0A:00:00:00:00;1724458135;24/08/24;00:08:55;1.018;-0.025;0.082;0.030543262138962746;-0.0024434609804302454;0.0073303827084600925
01:00:0A:00:00:00:00;1724458136;24/08/24;00:08:56;1.013;-0.026;0.082;0.02932153083384037;-0.0012217304902151227;0.014660765416920185
01:00:0A:00:00:00:00;1724458137;24/08/24;00:08:57;1.008;-0.028;0.081;0.030543262138962746;-0.015882495790719986;0.0024434609804302454
01:00:0A:00:00:00:00;1724458138;24/08/24;00:08:58;1.009;-0.024;0.079;0.03176499158143997;-0.01710422709584236;0.0
01:00:0A:00:00:00:00;1724458139;24/08/24;00:08:59;1.016;-0.025;0.082;0.030543262138962746;-0.014660765416920185;0.006108652334660292
01:00:0A:00:00:00:00;1724458140;24/08/24;00:09:00;1.02;-0.027;0.084;0.030543262138962746;-0.01710422709584236;0.0012217304902151227
01:00:0A:00:00:00:00;1724458141;24/08/24;00:09:01;1.02;-0.026;0.081;0.03176499158143997;-0.009773843921720982;0.0036651913542300463
01:00:0A:00:00:00:00;1724458142;24/08/24;00:09:02;1.016;-0.027;0.083;0.030543262138962746;0.0;0.010995574295520782
01:00:0A:00:00:00:00;1724458143;24/08/24;00:09:03;1.012;-0.027;0.081;0.03176499158143997;-0.0073303827084600925;0.0073303827084600925
01:00:0A:00:00:00:00;1724458144;24/08/24;00:09:04;1.008;-0.024;0.078;0.03298672288656235;-0.015882495790719986;0.0024434609804302454
01:00:0A:00:00:00:00;1724458145;24/08/24;00:09:05;1.014;-0.021;0.083;0.04153883829712868;-0.010995574295520782;0.004886921960860491
01:00:0A:00:00:00:00;1724458146;24/08/24;00:09:06;1.017;-0.028;0.083;0.0354301817715168;-0.01710422709584236;0.012217304669320583
01:00:0A:00:00:00:00;1724458147;24/08/24;00:09:07;1.017;-0.029;0.08;0.040317103266716;-0.010995574295520782;0.0012217304902151227
01:00:0A:00:00:00:00;1724458148;24/08/24;00:09:08;1.013;-0.023;0.082;0.04153883829712868;-0.0036651913542300463;0.004886921960860491
01:00:0A:00:00:00:00;1724458149;24/08/24;00:09:09;1.011;-0.026;0.083;0.03420845419168472;-0.01710422709584236;0.013439035043120384
01:00:0A:00:00:00:00;1724458150;24/08/24;00:09:10;1.014;-0.029;0.079;0.039095375686883926;-0.013439035043120384;0.0024434609804302454
01:00:0A:00:00:00:00;1724458151;24/08/24;00:09:11;1.015;-0.025;0.082;0.04153883829712868;-0.006108652334660292;0.0012217304902151227
01:00:0A:00:00:00:00;1724458152;24/08/24;00:09:12;1.016;-0.027;0.084;0.03420845419168472;-0.014660765416920185;0.009773843921720982
01:00:0A:00:00:00:00;1724458153;24/08/24;00:09:13;1.017;-0.03;0.078;0.036651913076639175;-0.012217304669320583;0.006108652334660292
01:00:0A:00:00:00:00;1724458154;24/08/24;00:09:14;1.015;-0.024;0.082;0.039095375686883926;-0.0036651913542300463;0.0036651913542300463
01:00:0A:00:00:00:00;1724458155;24/08/24;00:09:15;1.01;-0.025;0.081;0.03420845419168472;-0.014660765416920185;0.009773843921720982
01:00:0A:00:00:00:00;1724458156;24/08/24;00:09:16;1.011;-0.029;0.077;0.036651913076639175;-0.015882495790719986;0.004886921960860491
01:00:0A:00:00:00:00;1724458157;24/08/24;00:09:17;1.015;-0.025;0.081;0.040317103266716;-0.012217304669320583;0.0012217304902151227
01:00:0A:00:00:00:00;1724458158;24/08/24;00:09:18;1.018;-0.026;0.085;0.0354301817715168;-0.015882495790719986;0.00855211354792118
01:00:0A:00:00:00:00;1724458159;24/08/24;00:09:19;1.019;-0.03;0.081;0.036651913076639175;-0.009773843921720982;0.006108652334660292
01:00:0A:00:00:00:00;1724458160;24/08/24;00:09:20;1.015;-0.027;0.081;0.040317103266716;-0.0012217304902151227;0.0036651913542300463
01:00:0A:00:00:00:00;1724458161;24/08/24;00:09:21;1.013;-0.026;0.082;0.0354301817715168;-0.009773843921720982;0.00855211354792118
01:00:0A:00:00:00:00;1724458162;24/08/24;00:09:22;1.012;-0.027;0.078;0.036651913076639175;-0.010995574295520782;0.006108652334660292
01:00:0A:00:00:00:00;1724458163;24/08/24;00:09:23;1.013;-0.026;0.081;0.040317103266716;-0.009773843921720982;0.0
01:00:0A:00:00:00:00;1724458164;24/08/24;00:09:24;1.015;-0.026;0.083;0.0354301817715168;-0.019547687843441963;0.006108652334660292
01:00:0A:00:00:00:00;1724458165;24/08/24;00:09:25;1.019;-0.029;0.081;0.03787364438176155;-0.012217304669320583;0.006108652334660292
01:00:0A:00:00:00:00;1724458166;24/08/24;00:09:26;1.02;-0.027;0.083;0.040317103266716;-0.0073303827084600925;0.0036651913542300463
01:00:0A:00:00:00:00;1724458167;24/08/24;00:09:27;1.017;-0.026;0.083;0.036651913076639175;-0.013439035043120384;0.00855211354792118
01:00:0A:00:00:00:00;1724458168;24/08/24;00:09:28;1.013;-0.027;0.08;0.03787364438176155;-0.00855211354792118;0.0073303827084600925
01:00:0A:00:00:00:00;1724458169;24/08/24;00:09:29;1.012;-0.027;0.081;0.04153883829712868;-0.004886921960860491;0.0024434609804302454
01:00:0A:00:00:00:00;1724458170;24/08/24;00:09:30;1.013;-0.025;0.081;0.036651913076639175;-0.015882495790719986;0.006108652334660292
01:00:0A:00:00:00:00;1724458171;24/08/24;00:09:31;1.014;-0.028;0.079;0.039095375686883926;-0.014660765416920185;0.006108652334660292
01:00:0A:00:00:00:00;1724458172;24/08/24;00:09:32;1.015;-0.027;0.083;0.04153883829712868;-0.00855211354792118;0.0024434609804302454
01:00:0A:00:00:00:00;1724458173;24/08/24;00:09:33;1.018;-0.026;0.083;0.03787364438176155;-0.015882495790719986;0.0073303827084600925
01:00:0A:00:00:00:00;1724458174;24/08/24;00:09:34;1.018;-0.029;0.08;0.039095375686883926;-0.010995574295520782;0.0073303827084600925
01:00:0A:00:00:00:00;1724458175;24/08/24;00:09:35;1.015;-0.027;0.083;0.04153883829712868;-0.006108652334660292;0.006108652334660292
01:00:0A:00:00:00:00;1724458176;24/08/24;00:09:36;1.013;-0.026;0.081;0.036651913076639175;-0.013439035043120384;0.009773843921720982
01:00:0A:00:00:00:00;1724458177;24/08/24;00:09:37;1.01;-0.028;0.078;0.039095375686883926;-0.012217304669320583;0.006108652334660292
01:00:0A:00:00:00:00;1724458178;24/08/24;00:09:38;1.012;-0.026;0.082;0.040317103266716;-0.012217304669320583;0.0024434609804302454
01:00:0A:00:00:00:00;1724458179;24/08/24;00:09:39;1.015;-0.025;0.082;0.036651913076639175;-0.019547687843441963;0.006108652334660292
01:00:0A:00:00:00:00;1724458180;24/08/24;00:09:40;1.018;-0.028;0.081;0.039095375686883926;-0.010995574295520782;0.004886921960860491
01:00:0A:00:00:00:00;1724458181;24/08/24;00:09:41;1.019;-0.027;0.083;0.040317103266716;-0.006108652334660292;0.0024434609804302454
01:00:0A:00:00:00:00;1724458182;24/08/24;00:09:42;1.016;-0.028;0.082;0.036651913076639175;-0.013439035043120384;0.010995574295520782
01:00:0A:00:00:00:00;1724458183;24/08/24;00:09:43;1.014;-0.027;0.081;0.03787364438176155;-0.010995574295520782;0.009773843921720982
01:00:0A:00:00:00:00;1724458184;24/08/24;00:09:44;1.013;-0.024;0.084;0.039095375686883926;-0.009773843921720982;0.0024434609804302454
01:00:0A:00:00:00:00;1724458185;24/08/24;00:09:45;1.016;-0.026;0.083;0.0354301817715168;-0.014660765416920185;0.006108652334660292
01:00:0A:00:00:00:00;1724458186;24/08/24;00:09:46;1.016;-0.03;0.081;0.03787364438176155;-0.010995574295520782;0.006108652334660292
01:00:0A:00:00:00:00;1724458187;24/08/24;00:09:47;1.014;-0.025;0.084;0.03787364438176155;-0.0073303827084600925;0.004886921960860491
01:00:0A:00:00:00:00;1724458188;24/08/24;00:09:48;1.012;-0.024;0.082;0.03420845419168472;-0.012217304669320583;0.0073303827084600925
01:00:0A:00:00:00:00;1724458189;24/08/24;00:09:49;1.012;-0.027;0.08;0.036651913076639175;-0.009773843921720982;0.0012217304902151227
01:00:0A:00:00:00:00;1724458190;24/08/24;00:09:50;1.013;-0.025;0.083;0.036651913076639175;-0.013439035043120384;0.0012217304902151227
01:00:0A:00:00:00:00;1724458191;24/08/24;00:09:51;1.019;-0.026;0.083;0.03298672288656235;-0.015882495790719986;0.006108652334660292
01:00:0A:00:00:00:00;1724458192;24/08/24;00:09:52;1.02;-0.028;0.083;0.0354301817715168;-0.0073303827084600925;0.0024434609804302454
01:00:0A:00:00:00:00;1724458193;24/08/24;00:09:53;1.018;-0.027;0.084;0.0354301817715168;-0.004886921960860491;0.006108652334660292
01:00:0A:00:00:00:00;1724458194;24/08/24;00:09:54;1.013;-0.026;0.082;0.03176499158143997;-0.010995574295520782;0.013439035043120384
01:00:0A:00:00:00:00;1724458195;24/08/24;00:09:55;1.008;-0.025;0.081;0.03420845419168472;-0.00855211354792118;0.006108652334660292
01:00:0A:00:00:00:00;1724458196;24/08/24;00:09:56;1.009;-0.023;0.082;0.03420845419168472;-0.013439035043120384;-0.0024434609804302454
01:00:0A:00:00:00:00;1724458197;24/08/24;00:09:57;1.016;-0.026;0.082;0.03176499158143997;-0.01710422709584236;0.0012217304902151227
01:00:0A:00:00:00:00;1724458198;24/08/24;00:09:58;1.019;-0.028;0.082;0.03298672288656235;-0.010995574295520782;0.0024434609804302454
01:00:0A:00:00:00:00;1724458199;24/08/24;00:09:59;1.019;-0.027;0.085;0.03176499158143997;-0.009773843921720982;0.006108652334660292
01:00:0A:00:00:00:00;1724458200;24/08/24;00:10:00;1.016;-0.026;0.082;0.02932153083384037;-0.009773843921720982;0.010995574295520782
01:00:0A:00:00:00:00;1724458201;24/08/24;00:10:01;1.013;-0.027;0.081;0.03176499158143997;-0.0073303827084600925;0.006108652334660292
01:00:0A:00:00:00:00;1724458202;24/08/24;00:10:02;1.011;-0.025;0.081;0.030543262138962746;-0.012217304669320583;0.004886921960860491
01:00:0A:00:00:00:00;1724458203;24/08/24;00:10:03;1.013;-0.027;0.081;0.028099799528717995;-0.01710422709584236;0.0073303827084600925
01:00:0A:00:00:00:00;1724458204;24/08/24;00:10:04;1.017;-0.026;0.082;0.030543262138962746;-0.010995574295520782;0.0024434609804302454
01:00:0A:00:00:00:00;1724458205;24/08/24;00:10:05;1.016;-0.025;0.085;0.02932153083384037;-0.00855211354792118;0.004886921960860491
01:00:0A:00:00:00:00;1724458206;24/08/24;00:10:06;1.014;-0.026;0.082;0.02687807008624077;-0.009773843921720982;0.009773843921720982
01:00:0A:00:00:00:00;1724458207;24/08/24;00:10:07;1.011;-0.024;0.081;0.02932153083384037;-0.00855211354792118;0.0024434609804302454
01:00:0A:00:00:00:00;1724458208;24/08/24;00:10:08;1.011;-0.023;0.081;0.028099799528717995;-0.012217304669320583;0.0012217304902151227
01:00:0A:00:00:00:00;1724458209;24/08/24;00:10:09;1.015;-0.027;0.081;0.02687807008624077;-0.015882495790719986;0.0012217304902151227
01:00:0A:00:00:00:00;1724458210;24/08/24;00:10:10;1.017;-0.028;0.082;0.02687807008624077;-0.013439035043120384;0.0
01:00:0A:00:00:00:00;1724458211;24/08/24;00:10:11;1.017;-0.025;0.084;0.025656338781118393;-0.010995574295520782;0.006108652334660292
01:00:0A:00:00:00:00;1724458212;24/08/24;00:10:12;1.016;-0.027;0.082;0.025656338781118393;-0.00855211354792118;0.0073303827084600925
01:00:0A:00:00:00:00;1724458213;24/08/24;00:10:13;1.013;-0.026;0.081;0.02687807008624077;-0.00855211354792118;0.0024434609804302454
01:00:0A:00:00:00:00;1724458214;24/08/24;00:10:14;1.012;-0.024;0.081;0.025656338781118393;-0.013439035043120384;0.004886921960860491
01:00:0A:00:00:00:00;1724458215;24/08/24;00:10:15;1.013;-0.026;0.081;0.024434609338641167;-0.014660765416920185;0.004886921960860491
01:00:0A:00:00:00:00;1724458216;24/08/24;00:10:16;1.016;-0.027;0.082;0.025656338781118393;-0.012217304669320583;0.0
01:00:0A:00:00:00:00;1724458217;24/08/24;00:10:17;1.016;-0.027;0.082;0.024434609338641167;-0.012217304669320583;0.0024434609804302454
01:00:0A:00:00:00:00;1724458218;24/08/24;00:10:18;1.015;-0.028;0.081;0.024434609338641167;-0.010995574295520782;0.006108652334660292
01:00:0A:00:00:00:00;1724458219;24/08/24;00:10:19;1.015;-0.027;0.081;0.024434609338641167;-0.009773843921720982;0.0036651913542300463
01:00:0A:00:00:00:00;1724458220;24/08/24;00:10:20;1.016;-0.025;0.081;0.02321287989616394;-0.013439035043120384;0.0036651913542300463
01:00:0A:00:00:00:00;1724458221;24/08/24;00:10:21;1.016;-0.028;0.081;0.02321287989616394;-0.012217304669320583;0.004886921960860491
01:00:0A:00:00:00:00;1724458222;24/08/24;00:10:22;1.016;-0.027;0.083;0.024434609338641167;-0.010995574295520782;0.0024434609804302454
01:00:0A:00:00:00:00;1724458223;24/08/24;00:10:23;1.016;-0.026;0.081;0.02321287989616394;-0.010995574295520782;0.004886921960860491
01:00:0A:00:00:00:00;1724458224;24/08/24;00:10:24;1.016;-0.028;0.081;0.02321287989616394;-0.009773843921720982;0.004886921960860491
01:00:0A:00:00:00:00;1724458225;24/08/24;00:10:25;1.013;-0.027;0.081;0.02321287989616394;-0.009773843921720982;0.0036651913542300463
01:00:0A:00:00:00:00;1724458226;24/08/24;00:10:26;1.014;-0.026;0.081;0.021991148591041565;-0.012217304669320583;0.006108652334660292
01:00:0A:00:00:00:00;1724458227;24/08/24;00:10:27;1.015;-0.027;0.082;0.021991148591041565;-0.010995574295520782;0.006108652334660292
01:00:0A:00:00:00:00;1724458228;24/08/24;00:10:28;1.014;-0.027;0.081;0.02321287989616394;-0.012217304669320583;0.0036651913542300463
01:00:0A:00:00:00:00;1724458229;24/08/24;00:10:29;1.016;-0.026;0.081;0.021991148591041565;-0.013439035043120384;0.004886921960860491
01:00:0A:00:00:00:00;1724458230;24/08/24;00:10:30;1.015;-0.028;0.081;0.02076941914856434;-0.010995574295520782;0.004886921960860491
01:00:0A:00:00:00:00;1724458231;24/08/24;00:10:31;1.016;-0.026;0.083;0.02076941914856434;-0.010995574295520782;0.0036651913542300463
01:00:0A:00:00:00:00;1724458232;24/08/24;00:10:32;1.015;-0.026;0.082;0.02076941914856434;-0.010995574295520782;0.004886921960860491
01:00:0A:00:00:00:00;1724458233;24/08/24;00:10:33;1.014;-0.027;0.081;0.02076941914856434;-0.009773843921720982;0.004886921960860491
01:00:0A:00:00:00:00;1724458234;24/08/24;00:10:34;1.011;-0.027;0.081;0.02076941914856434;-0.010995574295520782;0.0024434609804302454
01:00:0A:00:00:00:00;1724458235;24/08/24;00:10:35;1.013;-0.026;0.081;0.019547687843441963;-0.012217304669320583;0.0036651913542300463
01:00:0A:00:00:00:00;1724458236;24/08/24;00:10:36;1.015;-0.026;0.081;0.019547687843441963;-0.012217304669320583;0.0024434609804302454
01:00:0A:00:00:00:00;1724458237;24/08/24;00:10:37;1.016;-0.026;0.083;0.019547687843441963;-0.013439035043120384;0.0024434609804302454
01:00:0A:00:00:00:00;1724458238;24/08/24;00:10:38;1.017;-0.027;0.083;0.018325956538319588;-0.010995574295520782;0.004886921960860491
01:00:0A:00:00:00:00;1724458239;24/08/24;00:10:39;1.017;-0.028;0.082;0.018325956538319588;-0.00855211354792118;0.004886921960860491
01:00:0A:00:00:00:00;1724458240;24/08/24;00:10:40;1.016;-0.026;0.082;0.018325956538319588;-0.009773843921720982;0.0036651913542300463
01:00:0A:00:00:00:00;1724458241;24/08/24;00:10:41;1.013;-0.027;0.081;0.018325956538319588;-0.012217304669320583;0.004886921960860491
01:00:0A:00:00:00:00;1724458242;24/08/24;00:10:42;1.014;-0.027;0.082;0.018325956538319588;-0.012217304669320583;0.0036651913542300463
01:00:0A:00:00:00:00;1724458243;24/08/24;00:10:43;1.016;-0.026;0.082;0.018325956538319588;-0.013439035043120384;0.004886921960860491
01:00:0A:00:00:00:00;1724458244;24/08/24;00:10:44;1.017;-0.028;0.083;0.01710422709584236;-0.012217304669320583;0.004886921960860491
01:00:0A:00:00:00:00;1724458245;24/08/24;00:10:45;1.016;-0.027;0.082;0.018325956538319588;-0.00855211354792118;0.004886921960860491
01:00:0A:00:00:00:00;1724458246;24/08/24;00:10:46;1.015;-0.027;0.082;0.018325956538319588;-0.00855211354792118;0.006108652334660292
01:00:0A:00:00:00:00;1724458247;24/08/24;00:10:47;1.013;-0.027;0.081;0.01710422709584236;-0.010995574295520782;0.006108652334660292
01:00:0A:00:00:00:00;1724458248;24/08/24;00:10:48;1.014;-0.027;0.081;0.018325956538319588;-0.012217304669320583;0.0036651913542300463
01:00:0A:00:00:00:00;1724458249;24/08/24;00:10:49;1.015;-0.026;0.081;0.01710422709584236;-0.014660765416920185;0.004886921960860491
01:00:0A:00:00:00:00;1724458250;24/08/24;00:10:50;1.017;-0.026;0.084;0.01710422709584236;-0.012217304669320583;0.006108652334660292
01:00:0A:00:00:00:00;1724458251;24/08/24;00:10:51;1.017;-0.027;0.083;0.018325956538319588;-0.00855211354792118;0.006108652334660292
01:00:0A:00:00:00:00;1724458252;24/08/24;00:10:52;1.015;-0.026;0.081;0.018325956538319588;-0.0073303827084600925;0.006108652334660292
01:00:0A:00:00:00:00;1724458253;24/08/24;00:10:53;1.014;-0.027;0.08;0.018325956538319588;-0.009773843921720982;0.006108652334660292
01:00:0A:00:00:00:00;1724458254;24/08/24;00:10:54;1.014;-0.026;0.081;0.018325956538319588;-0.012217304669320583;0.004886921960860491
01:00:0A:00:00:00:00;1724458255;24/08/24;00:10:55;1.015;-0.026;0.082;0.018325956538319588;-0.013439035043120384;0.004886921960860491
01:00:0A:00:00:00:00;1724458256;24/08/24;00:10:56;1.016;-0.027;0.082;0.018325956538319588;-0.012217304669320583;0.004886921960860491
01:00:0A:00:00:00:00;1724458257;24/08/24;00:10:57;1.016;-0.025;0.083;0.018325956538319588;-0.009773843921720982;0.004886921960860491
01:00:0A:00:00:00:00;1724458258;24/08/24;00:10:58;1.013;-0.026;0.082;0.018325956538319588;-0.00855211354792118;0.004886921960860491
01:00:0A:00:00:00:00;1724458259;24/08/24;00:10:59;1.013;-0.027;0.081;0.018325956538319588;-0.010995574295520782;0.004886921960860491
01:00:0A:00:00:00:00;1724458260;24/08/24;00:11:00;1.013;-0.026;0.081;0.018325956538319588;-0.013439035043120384;0.0036651913542300463
01:00:0A:00:00:00:00;1724458261;24/08/24;00:11:01;1.016;-0.027;0.082;0.018325956538319588;-0.014660765416920185;0.004886921960860491
01:00:0A:00:00:00:00;1724458262;24/08/24;00:11:02;1.016;-0.027;0.082;0.01710422709584236;-0.013439035043120384;0.004886921960860491
01:00:0A:00:00:00:00;1724458263;24/08/24;00:11:03;1.017;-0.027;0.083;0.018325956538319588;-0.00855211354792118;0.004886921960860491
01:00:0A:00:00:00:00;1724458264;24/08/24;00:11:04;1.016;-0.026;0.082;0.018325956538319588;-0.0073303827084600925;0.006108652334660292
01:00:0A:00:00:00:00;1724458265;24/08/24;00:11:05;1.012;-0.027;0.081;0.018325956538319588;-0.009773843921720982;0.004886921960860491
01:00:0A:00:00:00:00;1724458266;24/08/24;00:11:06;1.011;-0.028;0.08;0.018325956538319588;-0.012217304669320583;0.0036651913542300463
01:00:0A:00:00:00:00;1724458267;24/08/24;00:11:07;1.015;-0.027;0.081;0.01710422709584236;-0.014660765416920185;0.0036651913542300463
01:00:0A:00:00:00:00;1724458268;24/08/24;00:11:08;1.017;-0.028;0.083;0.01710422709584236;-0.012217304669320583;0.004886921960860491
01:00:0A:00:00:00:00;1724458269;24/08/24;00:11:09;1.016;-0.027;0.082;0.01710422709584236;-0.009773843921720982;0.004886921960860491
01:00:0A:00:00:00:00;1724458270;24/08/24;00:11:10;1.016;-0.027;0.082;0.01710422709584236;-0.00855211354792118;0.004886921960860491
01:00:0A:00:00:00:00;1724458271;24/08/24;00:11:11;1.015;-0.027;0.081;0.01710422709584236;-0.00855211354792118;0.006108652334660292
01:00:0A:00:00:00:00;1724458272;24/08/24;00:11:12;1.013;-0.027;0.081;0.01710422709584236;-0.010995574295520782;0.004886921960860491
01:00:0A:00:00:00:00;1724458273;24/08/24;00:11:13;1.014;-0.026;0.081;0.01710422709584236;-0.013439035043120384;0.004886921960860491
01:00:0A:00:00:00:00;1724458274;24/08/24;00:11:14;1.014;-0.027;0.081;0.015882495790719986;-0.013439035043120384;0.004886921960860491
01:00:0A:00:00:00:00;1724458275;24/08/24;00:11:15;1.016;-0.026;0.083;0.015882495790719986;-0.010995574295520782;0.0036651913542300463
01:00:0A:00:00:00:00;1724458276;24/08/24;00:11:16;1.015;-0.025;0.082;0.015882495790719986;-0.010995574295520782;0.0036651913542300463
01:00:0A:00:00:00:00;1724458277;24/08/24;00:11:17;1.014;-0.027;0.081;0.015882495790719986;-0.010995574295520782;0.0036651913542300463
01:00:0A:00:00:00:00;1724458278;24/08/24;00:11:18;1.014;-0.026;0.081;0.015882495790719986;-0.010995574295520782;0.0036651913542300463
01:00:0A:00:00:00:00;1724458279;24/08/24;00:11:19;1.015;-0.027;0.082;0.014660765416920185;-0.012217304669320583;0.004886921960860491
01:00:0A:00:00:00:00;1724458280;24/08/24;00:11:20;1.015;-0.026;0.082;0.014660765416920185;-0.010995574295520782;0.004886921960860491
01:00:0A:00:00:00:00;1724458281;24/08/24;00:11:21;1.014;-0.026;0.081;0.014660765416920185;-0.009773843921720982;0.0036651913542300463
01:00:0A:00:00:00:00;1724458282;24/08/24;00:11:22;1.015;-0.026;0.083;0.014660765416920185;-0.009773843921720982;0.0036651913542300463
01:00:0A:00:00:00:00;1724458283;24/08/24;00:11:23;1.014;-0.026;0.082;0.014660765416920185;-0.010995574295520782;0.0036651913542300463
01:00:0A:00:00:00:00;1724458284;24/08/24;00:11:24;1.015;-0.026;0.081;0.014660765416920185;-0.010995574295520782;0.0024434609804302454
01:00:0A:00:00:00:00;1724458285;24/08/24;00:11:25;1.013;-0.026;0.082;0.013439035043120384;-0.012217304669320583;0.0024434609804302454
01:00:0A:00:00:00:00;1724458286;24/08/24;00:11:26;1.016;-0.026;0.082;0.013439035043120384;-0.012217304669320583;0.0036651913542300463
01:00:0A:00:00:00:00;1724458287;24/08/24;00:11:27;1.016;-0.026;0.081;0.013439035043120384;-0.010995574295520782;0.0036651913542300463
01:00:0A:00:00:00:00;1724458288;24/08/24;00:11:28;1.016;-0.027;0.082;0.013439035043120384;-0.010995574295520782;0.0036651913542300463
01:00:0A:00:00:00:00;1724458289;24/08/24;00:11:29;1.014;-0.027;0.081;0.013439035043120384;-0.010995574295520782;0.004886921960860491
01:00:0A:00:00:00:00;1724458290;24/08/24;00:11:30;1.016;-0.026;0.082;0.014660765416920185;-0.010995574295520782;0.004886921960860491
01:00:0A:00:00:00:00;1724458291;24/08/24;00:11:31;1.015;-0.026;0.081;0.014660765416920185;-0.010995574295520782;0.0036651913542300463
01:00:0A:00:00:00:00;1724458292;24/08/24;00:11:32;1.013;-0.026;0.081;0.013439035043120384;-0.010995574295520782;0.004886921960860491
01:00:0A:00:00:00:00;1724458293;24/08/24;00:11:33;1.015;-0.025;0.081;0.014660765416920185;-0.012217304669320583;0.0024434609804302454
01:00:0A:00:00:00:00;1724458294;24/08/24;00:11:34;1.015;-0.025;0.081;0.010995574295520782;-0.010995574295520782;0.004886921960860491
01:00:0A:00:00:00:00;1724458295;24/08/24;00:11:35;1.016;-0.027;0.082;0.012217304669320583;-0.009773843921720982;0.0073303827084600925
01:00:0A:00:00:00:00;1724458296;24/08/24;00:11:36;1.016;-0.027;0.083;0.013439035043120384;-0.010995574295520782;0.004886921960860491
01:00:0A:00:00:00:00;1724458297;24/08/24;00:11:37;1.014;-0.025;0.081;0.013439035043120384;-0.010995574295520782;0.0036651913542300463
01:00:0A:00:00:00:00;1724458298;24/08/24;00:11:38;1.014;-0.026;0.081;0.012217304669320583;-0.00855211354792118;0.004886921960860491
01:00:0A:00:00:00:00;1724458299;24/08/24;00:11:39;1.013;-0.028;0.081;0.013439035043120384;-0.010995574295520782;0.0036651913542300463
01:00:0A:00:00:00:00;1724458300;24/08/24;00:11:40;1.015;-0.026;0.081;0.013439035043120384;-0.013439035043120384;0.0024434609804302454
01:00:0A:00:00:00:00;1724458301;24/08/24;00:11:41;1.015;-0.026;0.081;0.012217304669320583;-0.013439035043120384;0.004886921960860491
01:00:0A:00:00:00:00;1724458302;24/08/24;00:11:42;1.016;-0.027;0.082;0.013439035043120384;-0.010995574295520782;0.004886921960860491
01:00:0A:00:00:00:00;1724458303;24/08/24;00:11:43;1.016;-0.025;0.083;0.013439035043120384;-0.010995574295520782;0.0024434609804302454
01:00:0A:00:00:00:00;1724458304;24/08/24;00:11:44;1.015;-0.026;0.081;0.013439035043120384;-0.00855211354792118;0.004886921960860491
01:00:0A:00:00:00:00;1724458305;24/08/24;00:11:45;1.012;-0.027;0.081;0.013439035043120384;-0.009773843921720982;0.004886921960860491
01:00:0A:00:00:00:00;1724458306;24/08/24;00:11:46;1.015;-0.028;0.081;0.013439035043120384;-0.013439035043120384;0.0024434609804302454
01:00:0A:00:00:00:00;1724458307;24/08/24;00:11:47;1.016;-0.025;0.082;0.013439035043120384;-0.013439035043120384;0.0036651913542300463
01:00:0A:00:00:00:00;1724458308;24/08/24;00:11:48;1.016;-0.025;0.082;0.013439035043120384;-0.010995574295520782;0.004886921960860491
01:00:0A:00:00:00:00;1724458309;24/08/24;00:11:49;1.015;-0.027;0.082;0.013439035043120384;-0.010995574295520782;0.0024434609804302454
01:00:0A:00:00:00:00;1724458310;24/08/24;00:11:50;1.014;-0.026;0.081;0.013439035043120384;-0.010995574295520782;0.0036651913542300463
01:00:0A:00:00:00:00;1724458311;24/08/24;00:11:51;1.015;-0.026;0.081;0.013439035043120384;-0.010995574295520782;0.0036651913542300463
01:00:0A:00:00:00:00;1724458312;24/08/24;00:11:52;1.013;-0.027;0.083;0.013439035043120384;-0.012217304669320583;0.0036651913542300463
01:00:0A:00:00:00:00;1724458313;24/08/24;00:11:53;1.015;-0.027;0.081;0.012217304669320583;-0.013439035043120384;0.0036651913542300463
01:00:0A:00:00:00:00;1724458314;24/08/24;00:11:54;1.016;-0.026;0.081;0.013439035043120384;-0.012217304669320583;0.004886921960860491
01:00:0A:00:00:00:00;1724458315;24/08/24;00:11:55;1.016;-0.025;0.083;0.013439035043120384;-0.009773843921720982;0.0036651913542300463
01:00:0A:00:00:00:00;1724458316;24/08/24;00:11:56;1.016;-0.026;0.081;0.013439035043120384;-0.009773843921720982;0.0036651913542300463
01:00:0A:00:00:00:00;1724458317;24/08/24;00:11:57;1.014;-0.026;0.081;0.013439035043120384;-0.009773843921720982;0.0036651913542300463
01:00:0A:00:00:00:00;1724458318;24/08/24;00:11:58;1.013;-0.027;0.081;0.013439035043120384;-0.012217304669320583;0.0036651913542300463
01:00:0A:00:00:00:00;1724458319;24/08/24;00:11:59;1.015;-0.027;0.081;0.013439035043120384;-0.014660765416920185;0.004886921960860491
01:00:0A:00:00:00:00;1724458320;24/08/24;00:12:00;1.016;-0.026;0.081;0.014660765416920185;-0.012217304669320583;0.004886921960860491
01:00:0A:00:00:00:00;1724458321;24/08/24;00:12:01;1.016;-0.027;0.082;0.014660765416920185;-0.010995574295520782;0.004886921960860491
01:00:0A:00:00:00:00;1724458322;24/08/24;00:12:02;1.014;-0.026;0.082;0.014660765416920185;-0.009773843921720982;0.0036651913542300463
01:00:0A:00:00:00:00;1724458323;24/08/24;00:12:03;1.014;-0.027;0.081;0.014660765416920185;-0.009773843921720982;0.004886921960860491
01:00:0A:00:00:00:00;1724458324;24/08/24;00:12:04;1.013;-0.026;0.081;0.014660765416920185;-0.012217304669320583;0.0036651913542300463
01:00:0A:00:00:00:00;1724458325;24/08/24;00:12:05;1.014;-0.026;0.081;0.013439035043120384;-0.014660765416920185;0.004886921960860491
01:00:0A:00:00:00:00;1724458326;24/08/24;00:12:06;1.016;-0.027;0.081;0.014660765416920185;-0.013439035043120384;0.0036651913542300463
01:00:0A:00:00:00:00;1724458327;24/08/24;00:12:07;1.016;-0.027;0.082;0.014660765416920185;-0.010995574295520782;0.0036651913542300463
01:00:0A:00:00:00:00;1724458328;24/08/24;00:12:08;1.015;-0.026;0.081;0.014660765416920185;-0.009773843921720982;0.0036651913542300463
01:00:0A:00:00:00:00;1724458329;24/08/24;00:12:09;1.014;-0.027;0.081;0.014660765416920185;-0.010995574295520782;0.0036651913542300463
01:00:0A:00:00:00:00;1724458330;24/08/24;00:12:10;1.014;-0.027;0.081;0.014660765416920185;-0.010995574295520782;0.0024434609804302454
01:00:0A:00:00:00:00;1724458331;24/08/24;00:12:11;1.015;-0.026;0.081;0.014660765416920185;-0.013439035043120384;0.004886921960860491
01:00:0A:00:00:00:00;1724458332;24/08/24;00:12:12;1.016;-0.026;0.082;0.014660765416920185;-0.012217304669320583;0.0036651913542300463
01:00:0A:00:00:00:00;1724458333;24/08/24;00:12:13;1.015;-0.026;0.081;0.014660765416920185;-0.010995574295520782;0.0024434609804302454
01:00:0A:00:00:00:00;1724458334;24/08/24;00:12:14;1.015;-0.026;0.082;0.014660765416920185;-0.010995574295520782;0.0036651913542300463
01:00:0A:00:00:00:00;1724458335;24/08/24;00:12:15;1.015;-0.028;0.081;0.014660765416920185;-0.010995574295520782;0.0036651913542300463
01:00:0A:00:00:00:00;1724458336;24/08/24;00:12:16;1.015;-0.027;0.081;0.014660765416920185;-0.010995574295520782;0.0036651913542300463
01:00:0A:00:00:00:00;1724458337;24/08/24;00:12:17;1.014;-0.027;0.082;0.014660765416920185;-0.012217304669320583;0.004886921960860491
01:00:0A:00:00:00:00;1724458338;24/08/24;00:12:18;1.016;-0.026;0.082;0.014660765416920185;-0.012217304669320583;0.0036651913542300463
01:00:0A:00:00:00:00;1724458339;24/08/24;00:12:19;1.016;-0.027;0.082;0.014660765416920185;-0.010995574295520782;0.0036651913542300463
01:00:0A:00:00:00:00;1724458340;24/08/24;00:12:20;1.015;-0.028;0.081;0.014660765416920185;-0.010995574295520782;0.004886921960860491
01:00:0A:00:00:00:00;1724458341;24/08/24;00:12:21;1.013;-0.026;0.082;0.013439035043120384;-0.010995574295520782;0.0036651913542300463
01:00:0A:00:00:00:00;1724458342;24/08/24;00:12:22;1.015;-0.026;0.082;0.014660765416920185;-0.012217304669320583;0.0036651913542300463
01:00:0A:00:00:00:00;1724458343;24/08/24;00:12:23;1.016;-0.027;0.081;0.013439035043120384;-0.012217304669320583;0.004886921960860491
01:00:0A:00:00:00:00;1724458343;24/08/24;00:12:23;1.015;-0.027;0.082;0.013439035043120384;-0.010995574295520782;0.0036651913542300463
01:00:0A:00:00:00:00;1724458344;24/08/24;00:12:24;1.015;-0.026;0.081;0.013439035043120384;-0.010995574295520782;0.0036651913542300463
01:00:0A:00:00:00:00;1724458345;24/08/24;00:12:25;1.015;-0.026;0.082;0.013439035043120384;-0.012217304669320583;0.0036651913542300463
01:00:0A:00:00:00:00;1724458346;24/08/24;00:12:26;1.016;-0.027;0.081;0.013439035043120384;-0.010995574295520782;0.0036651913542300463
01:00:0A:00:00:00:00;1724458347;24/08/24;00:12:27;1.015;-0.026;0.082;0.013439035043120384;-0.010995574295520782;0.0036651913542300463
01:00:0A:00:00:00:00;1724458348;24/08/24;00:12:28;1.014;-0.026;0.081;0.012217304669320583;-0.010995574295520782;0.0036651913542300463
01:00:0A:00:00:00:00;1724458349;24/08/24;00:12:29;1.015;-0.027;0.081;0.012217304669320583;-0.010995574295520782;0.0036651913542300463
01:00:0A:00:00:00:00;1724458350;24/08/24;00:12:30;1.014;-0.027;0.081;0.012217304669320583;-0.010995574295520782;0.0036651913542300463
01:00:0A:00:00:00:00;1724458351;24/08/24;00:12:31;1.015;-0.026;0.081;0.012217304669320583;-0.012217304669320583;0.0036651913542300463
01:00:0A:00:00:00:00;1724458352;24/08/24;00:12:32;1.015;-0.026;0.081;0.012217304669320583;-0.012217304669320583;0.0036651913542300463
01:00:0A:00:00:00:00;1724458353;24/08/24;00:12:33;1.016;-0.026;0.083;0.012217304669320583;-0.012217304669320583;0.0036651913542300463
01:00:0A:00:00:00:00;1724458354;24/08/24;00:12:34;1.016;-0.027;0.081;0.010995574295520782;-0.010995574295520782;0.004886921960860491
01:00:0A:00:00:00:00;1724458355;24/08/24;00:12:35;1.015;-0.026;0.081;0.010995574295520782;-0.009773843921720982;0.0036651913542300463
01:00:0A:00:00:00:00;1724458356;24/08/24;00:12:36;1.014;-0.028;0.082;0.010995574295520782;-0.010995574295520782;0.0024434609804302454
01:00:0A:00:00:00:00;1724458357;24/08/24;00:12:37;1.015;-0.026;0.081;0.010995574295520782;-0.012217304669320583;0.0036651913542300463
01:00:0A:00:00:00:00;1724458358;24/08/24;00:12:38;1.015;-0.027;0.081;0.009773843921720982;-0.012217304669320583;0.0036651913542300463
01:00:0A:00:00:00:00;1724458359;24/08/24;00:12:39;1.016;-0.026;0.083;0.010995574295520782;-0.010995574295520782;0.0036651913542300463
01:00:0A:00:00:00:00;1724458360;24/08/24;00:12:40;1.016;-0.026;0.082;0.009773843921720982;-0.010995574295520782;0.0036651913542300463
01:00:0A:00:00:00:00;1724458361;24/08/24;00:12:41;1.015;-0.027;0.081;0.009773843921720982;-0.009773843921720982;0.0036651913542300463
01:00:0A:00:00:00:00;1724458362;24/08/24;00:12:42;1.015;-0.027;0.082;0.009773843921720982;-0.010995574295520782;0.0024434609804302454
01:00:0A:00:00:00:00;1724458363;24/08/24;00:12:43;1.013;-0.027;0.082;0.009773843921720982;-0.012217304669320583;0.0036651913542300463
01:00:0A:00:00:00:00;1724458364;24/08/24;00:12:44;1.015;-0.026;0.082;0.009773843921720982;-0.012217304669320583;0.0036651913542300463
01:00:0A:00:00:00:00;1724458365;24/08/24;00:12:45;1.016;-0.025;0.081;0.009773843921720982;-0.012217304669320583;0.0036651913542300463
01:00:0A:00:00:00:00;1724458366;24/08/24;00:12:46;1.016;-0.025;0.082;0.00855211354792118;-0.010995574295520782;0.004886921960860491
01:00:0A:00:00:00:00;1724458367;24/08/24;00:12:47;1.016;-0.026;0.081;0.00855211354792118;-0.009773843921720982;0.0036651913542300463
01:00:0A:00:00:00:00;1724458368;24/08/24;00:12:48;1.014;-0.026;0.081;0.00855211354792118;-0.010995574295520782;0.0024434609804302454
01:00:0A:00:00:00:00;1724458369;24/08/24;00:12:49;1.014;-0.027;0.081;0.004886921960860491;-0.012217304669320583;0.0036651913542300463
01:00:0A:00:00:00:00;1724458370;24/08/24;00:12:50;1.015;-0.026;0.081;0.0;-0.010995574295520782;0.0036651913542300463
01:00:0A:00:00:00:00;1724458371;24/08/24;00:12:51;1.016;-0.025;0.081;-0.0036651913542300463;-0.010995574295520782;0.0036651913542300463
01:00:0A:00:00:00:00;1724458372;24/08/24;00:12:52;1.015;-0.026;0.083;-0.0036651913542300463;-0.009773843921720982;0.0036651913542300463
01:00:0A:00:00:00:00;1724458373;24/08/24;00:12:53;1.015;-0.027;0.082;-0.0036651913542300463;-0.010995574295520782;0.0024434609804302454
01:00:0A:00:00:00:00;1724458374;24/08/24;00:12:54;1.015;-0.026;0.082;-0.0024434609804302454;-0.010995574295520782;0.0024434609804302454
01:00:0A:00:00:00:00;1724458375;24/08/24;00:12:55;1.014;-0.027;0.081;-0.0024434609804302454;-0.010995574295520782;0.0036651913542300463
01:00:0A:00:00:00:00;1724458376;24/08/24;00:12:56;1.013;-0.027;0.081;-0.0024434609804302454;-0.013439035043120384;0.0024434609804302454
01:00:0A:00:00:00:00;1724458377;24/08/24;00:12:57;1.016;-0.027;0.083;-0.0024434609804302454;-0.012217304669320583;0.0024434609804302454
01:00:0A:00:00:00:00;1724458378;24/08/24;00:12:58;1.016;-0.027;0.081;-0.0036651913542300463;-0.012217304669320583;0.0024434609804302454
01:00:0A:00:00:00:00;1724458379;24/08/24;00:12:59;1.015;-0.026;0.081;-0.0036651913542300463;-0.00855211354792118;0.0036651913542300463
01:00:0A:00:00:00:00;1724458380;24/08/24;00:13:00;1.015;-0.026;0.081;-0.004886921960860491;-0.009773843921720982;0.0024434609804302454
01:00:0A:00:00:00:00;1724458381;24/08/24;00:13:01;1.014;-0.027;0.081;-0.004886921960860491;-0.012217304669320583;0.0024434609804302454
01:00:0A:00:00:00:00;1724458382;24/08/24;00:13:02;1.016;-0.028;0.082;-0.004886921960860491;-0.012217304669320583;0.0024434609804302454
01:00:0A:00:00:00:00;1724458383;24/08/24;00:13:03;1.015;-0.027;0.082;-0.0036651913542300463;-0.010995574295520782;0.0024434609804302454
01:00:0A:00:00:00:00;1724458384;24/08/24;00:13:04;1.016;-0.027;0.083;-0.0036651913542300463;-0.010995574295520782;0.0036651913542300463
01:00:0A:00:00:00:00;1724458385;24/08/24;00:13:05;1.016;-0.026;0.082;-0.0036651913542300463;-0.009773843921720982;0.0024434609804302454
01:00:0A:00:00:00:00;1724458386;24/08/24;00:13:06;1.014;-0.027;0.081;-0.0036651913542300463;-0.009773843921720982;0.0036651913542300463
01:00:0A:00:00:00:00;1724458387;24/08/24;00:13:07;1.014;-0.026;0.081;-0.0024434609804302454;-0.010995574295520782;0.0036651913542300463
01:00:0A:00:00:00:00;1724458388;24/08/24;00:13:08;1.014;-0.027;0.081;-0.0036651913542300463;-0.010995574295520782;0.0036651913542300463
01:00:0A:00:00:00:00;1724458389;24/08/24;00:13:09;1.015;-0.026;0.082;-0.004886921960860491;-0.010995574295520782;0.0024434609804302454
01:00:0A:00:00:00:00;1724458390;24/08/24;00:13:10;1.016;-0.026;0.083;-0.004886921960860491;-0.010995574295520782;0.0036651913542300463
01:00:0A:00:00:00:00;1724458391;24/08/24;00:13:11;1.015;-0.027;0.081;-0.004886921960860491;-0.010995574295520782;0.0036651913542300463
01:00:0A:00:00:00:00;1724458392;24/08/24;00:13:12;1.013;-0.025;0.081;-0.0036651913542300463;-0.009773843921720982;0.0024434609804302454
01:00:0A:00:00:00:00;1724458393;24/08/24;00:13:13;1.014;-0.026;0.082;-0.004886921960860491;-0.010995574295520782;0.0024434609804302454
01:00:0A:00:00:00:00;1724458394;24/08/24;00:13:14;1.015;-0.026;0.081;-0.0036651913542300463;-0.012217304669320583;0.0024434609804302454
01:00:0A:00:00:00:00;1724458395;24/08/24;00:13:15;1.016;-0.027;0.082;-0.0036651913542300463;-0.010995574295520782;0.0024434609804302454
01:00:0A:00:00:00:00;1724458396;24/08/24;00:13:16;1.016;-0.025;0.081;-0.006108652334660292;-0.010995574295520782;0.0024434609804302454
01:00:0A:00:00:00:00;1724458397;24/08/24;00:13:17;1.016;-0.027;0.082;-0.006108652334660292;-0.009773843921720982;0.0036651913542300463
01:00:0A:00:00:00:00;1724458398;24/08/24;00:13:18;1.016;-0.027;0.082;-0.006108652334660292;-0.009773843921720982;0.0024434609804302454
01:00:0A:00:00:00:00;1724458399;24/08/24;00:13:19;1.014;-0.025;0.082;-0.006108652334660292;-0.010995574295520782;0.0036651913542300463
01:00:0A:00:00:00:00;1724458400;24/08/24;00:13:20;1.015;-0.026;0.081;-0.006108652334660292;-0.010995574295520782;0.0024434609804302454
01:00:0A:00:00:00:00;1724458401;24/08/24;00:13:21;1.015;-0.027;0.082;-0.006108652334660292;-0.010995574295520782;0.0024434609804302454
01:00:0A:00:00:00:00;1724458402;24/08/24;00:13:22;1.015;-0.026;0.083;-0.006108652334660292;-0.010995574295520782;0.0036651913542300463
01:00:0A:00:00:00:00;1724458403;24/08/24;00:13:23;1.014;-0.026;0.082;-0.006108652334660292;-0.010995574295520782;0.0036651913542300463
01:00:0A:00:00:00:00;1724458404;24/08/24;00:13:24;1.015;-0.027;0.082;-0.006108652334660292;-0.010995574295520782;0.0024434609804302454
01:00:0A:00:00:00:00;1724458405;24/08/24;00:13:25;1.016;-0.027;0.082;-0.006108652334660292;-0.010995574295520782;0.0024434609804302454
01:00:0A:00:00:00:00;1724458406;24/08/24;00:13:26;1.015;-0.026;0.082;-0.004886921960860491;-0.010995574295520782;0.0036651913542300463
01:00:0A:00:00:00:00;1724458407;24/08/24;00:13:27;1.015;-0.026;0.082;-0.004886921960860491;-0.010995574295520782;0.0024434609804302454
01:00:0A:00:00:00:00;1724458408;24/08/24;00:13:28;1.013;-0.027;0.082;-0.004886921960860491;-0.010995574295520782;0.0024434609804302454
01:00:0A:00:00:00:00;1724458409;24/08/24;00:13:29;1.015;-0.026;0.082;-0.004886921960860491;-0.010995574295520782;0.0024434609804302454
01:00:0A:00:00:00:00;1724458410;24/08/24;00:13:30;1.016;-0.026;0.082;-0.004886921960860491;-0.010995574295520782;0.0024434609804302454
01:00:0A:00:00:00:00;1724458411;24/08/24;00:13:31;1.016;-0.026;0.081;-0.004886921960860491;-0.010995574295520782;0.0036651913542300463
01:00:0A:00:00:00:00;1724458412;24/08/24;00:13:32;1.016;-0.027;0.082;-0.004886921960860491;-0.010995574295520782;0.0036651913542300463
01:00:0A:00:00:00:00;1724458413;24/08/24;00:13:33;1.015;-0.027;0.082;-0.004886921960860491;-0.010995574295520782;0.0024434609804302454
01:00:0A:00:00:00:00;1724458414;24/08/24;00:13:34;1.014;-0.026;0.082;-0.004886921960860491;-0.010995574295520782;0.0036651913542300463
01:00:0A:00:00:00:00;1724458415;24/08/24;00:13:35;1.014;-0.026;0.082;-0.004886921960860491;-0.010995574295520782;0.0036651913542300463
01:00:0A:00:00:00:00;1724458416;24/08/24;00:13:36;1.014;-0.027;0.082;-0.0036651913542300463;-0.012217304669320583;0.0024434609804302454
01:00:0A:00:00:00:00;1724458417;24/08/24;00:13:37;1.015;-0.026;0.082;-0.0036651913542300463;-0.010995574295520782;0.0024434609804302454
01:00:0A:00:00:00:00;1724458418;24/08/24;00:13:38;1.015;-0.027;0.083;-0.0036651913542300463;-0.010995574295520782;0.0036651913542300463
01:00:0A:00:00:00:00;1724458419;24/08/24;00:13:39;1.014;-0.026;0.082;-0.0036651913542300463;-0.009773843921720982;0.0036651913542300463
01:00:0A:00:00:00:00;1724458420;24/08/24;00:13:40;1.014;-0.026;0.082;-0.0036651913542300463;-0.010995574295520782;0.0024434609804302454
01:00:0A:00:00:00:00;1724458421;24/08/24;00:13:41;1.014;-0.027;0.081;-0.0036651913542300463;-0.010995574295520782;0.0024434609804302454
01:00:0A:00:00:00:00;1724458422;24/08/24;00:13:42;1.015;-0.026;0.082;-0.0024434609804302454;-0.010995574295520782;0.0024434609804302454
01:00:0A:00:00:00:00;1724458423;24/08/24;00:13:43;1.015;-0.027;0.082;-0.0024434609804302454;-0.012217304669320583;0.0036651913542300463
01:00:0A:00:00:00:00;1724458424;24/08/24;00:13:44;1.015;-0.027;0.083;-0.0036651913542300463;-0.010995574295520782;0.0036651913542300463
01:00:0A:00:00:00:00;1724458425;24/08/24;00:13:45;1.015;-0.026;0.082;-0.0024434609804302454;-0.009773843921720982;0.0036651913542300463
01:00:0A:00:00:00:00;1724458426;24/08/24;00:13:46;1.015;-0.026;0.082;-0.0024434609804302454;-0.010995574295520782;0.0036651913542300463
01:00:0A:00:00:00:00;1724458427;24/08/24;00:13:47;1.014;-0.027;0.081;-0.0024434609804302454;-0.012217304669320583;0.0024434609804302454
01:00:0A:00:00:00:00;1724458428;24/08/24;00:13:48;1.014;-0.026;0.082;-0.0012217304902151227;-0.012217304669320583;0.0024434609804302454
01:00:0A:00:00:00:00;1724458429;24/08/24;00:13:49;1.016;-0.027;0.081;-0.0012217304902151227;-0.012217304669320583;0.0036651913542300463
01:00:0A:00:00:00:00;1724458430;24/08/24;00:13:50;1.016;-0.027;0.081;-0.0012217304902151227;-0.010995574295520782;0.0036651913542300463
01:00:0A:00:00:00:00;1724458431;24/08/24;00:13:51;1.015;-0.025;0.082;-0.0012217304902151227;-0.009773843921720982;0.0036651913542300463
01:00:0A:00:00:00:00;1724458432;24/08/24;00:13:52;1.014;-0.026;0.081;-0.0012217304902151227;-0.010995574295520782;0.0036651913542300463
01:00:0A:00:00:00:00;1724458433;24/08/24;00:13:53;1.015;-0.026;0.081;-0.0012217304902151227;-0.010995574295520782;0.0024434609804302454
01:00:0A:00:00:00:00;1724458434;24/08/24;00:13:54;1.016;-0.027;0.081;0.0;-0.010995574295520782;0.0024434609804302454
01:00:0A:00:00:00:00;1724458435;24/08/24;00:13:55;1.016;-0.026;0.082;0.0;-0.012217304669320583;0.0036651913542300463
01:00:0A:00:00:00:00;1724458436;24/08/24;00:13:56;1.016;-0.027;0.081;0.0;-0.010995574295520782;0.0036651913542300463
01:00:0A:00:00:00:00;1724458437;24/08/24;00:13:57;1.016;-0.027;0.082;0.0;-0.009773843921720982;0.0036651913542300463
01:00:0A:00:00:00:00;1724458438;24/08/24;00:13:58;1.015;-0.025;0.082;0.0;-0.00855211354792118;0.0024434609804302454
01:00:0A:00:00:00:00;1724458439;24/08/24;00:13:59;1.018;-0.027;0.081;0.0;-0.00855211354792118;0.004886921960860491
01:00:0A:00:00:00:00;1724458440;24/08/24;00:14:00;1.022;-0.026;0.081;0.0;-0.0073303827084600925;0.00855211354792118
01:00:0A:00:00:00:00;1724458441;24/08/24;00:14:01;1.017;-0.026;0.082;-0.0036651913542300463;-0.006108652334660292;0.018325956538319588
01:00:0A:00:00:00:00;1724458442;24/08/24;00:14:02;0.998;-0.027;0.083;-0.0036651913542300463;-0.010995574295520782;0.00855211354792118
01:00:0A:00:00:00:00;1724458443;24/08/24;00:14:03;0.994;-0.025;0.084;-0.0024434609804302454;-0.014660765416920185;-0.009773843921720982
01:00:0A:00:00:00:00;1724458444;24/08/24;00:14:04;1.002;-0.024;0.082;-0.0073303827084600925;-0.021991148591041565;-0.013439035043120384
01:00:0A:00:00:00:00;1724458445;24/08/24;00:14:05;1.025;-0.032;0.086;-0.009773843921720982;-0.013439035043120384;-0.0073303827084600925
01:00:0A:00:00:00:00;1724458446;24/08/24;00:14:06;1.043;-0.041;0.09;-0.009773843921720982;-0.015882495790719986;0.0073303827084600925
01:00:0A:00:00:00:00;1724458447;24/08/24;00:14:07;1.04;-0.023;0.079;-0.0036651913542300463;-0.02076941914856434;0.009773843921720982
01:00:0A:00:00:00:00;1724458448;24/08/24;00:14:08;1.013;-0.022;0.079;0.0;0.0073303827084600925;0.04153883829712868
01:00:0A:00:00:00:00;1724458449;24/08/24;00:14:09;0.981;-0.032;0.103;0.009773843921720982;0.03787364438176155;0.00855211354792118
01:00:0A:00:00:00:00;1724458450;24/08/24;00:14:10;0.987;-0.045;0.102;0.0073303827084600925;-0.012217304669320583;0.010995574295520782
01:00:0A:00:00:00:00;1724458451;24/08/24;00:14:11;1.008;-0.035;0.025;0.05742133408784866;-0.05864306166768074;-0.14294245839118958
01:00:0A:00:00:00:00;1724458452;24/08/24;00:14:12;1.019;0.02;-0.041;0.07208210229873657;0.006108652334660292;0.06719517707824707
01:00:0A:00:00:00:00;1724458453;24/08/24;00:14:13;1.018;-0.108;0.023;0.10873401165008545;-0.07696902006864548;0.05497787147760391
01:00:0A:00:00:00:00;1724458454;24/08/24;00:14:14;1.017;-0.014;0.043;0.15027284622192383;-0.036651913076639175;-0.028099799528717995
01:00:0A:00:00:00:00;1724458455;24/08/24;00:14:15;1.008;0.04;-0.004;0.09896016865968704;0.0012217304902151227;0.07208210229873657
01:00:0A:00:00:00:00;1724458456;24/08/24;00:14:16;1.039;-0.07;0.076;0.1270599663257599;0.17470745742321014;0.07941248267889023
01:00:0A:00:00:00:00;1724458457;24/08/24;00:14:17;1.054;-0.041;0.204;0.05497787147760391;-0.17837265133857727;-0.09896016865968704
01:00:0A:00:00:00:00;1724458458;24/08/24;00:14:18;1.048;0.164;0.099;-0.23945917189121246;0.11728612333536148;-0.08307767659425735
01:00:0A:00:00:00:00;1724458459;24/08/24;00:14:19;1.007;-0.237;0.035;-0.2382374405860901;-0.07941248267889023;0.40194931626319885
01:00:0A:00:00:00:00;1724458460;24/08/24;00:14:20;0.935;0.166;0.085;-0.03787364438176155;0.11239919811487198;-0.7110471129417419
01:00:0A:00:00:00:00;1724458461;24/08/24;00:14:21;0.941;-0.064;0.052;-0.40194931626319885;-0.31642818450927734;0.8246681094169617
01:00:0A:00:00:00:00;1724458462;24/08/24;00:14:22;0.943;-0.121;0.119;0.05742133408784866;0.41783180832862854;-0.8002334833145142
01:00:0A:00:00:00:00;1724458463;24/08/24;00:14:23;0.998;0.101;0.185;-0.40194931626319885;-0.2895500957965851;0.5705481767654419
01:00:0A:00:00:00:00;1724458464;24/08/24;00:14:24;1.023;-0.272;0.015;-0.1563815027475357;0.2028072476387024;-0.35063666105270386
01:00:0A:00:00:00:00;1724458465;24/08/24;00:14:25;0.98;0.356;0.131;-0.36529743671417236;-0.1869247555732727;-0.19425514340400696
01:00:0A:00:00:00:00;1724458466;24/08/24;00:14:26;1.032;-0.048;0.024;0.9724974632263184;0.12095131725072861;-0.0036651913542300463
01:00:0A:00:00:00:00;1724458467;24/08/24;00:14:27;0.959;0.085;0.12;0.3066543638706207;0.2321287840604782;0.04642575979232788
01:00:0A:00:00:00:00;1724458468;24/08/24;00:14:28;0.954;-0.11;0.09;-0.13439035415649414;-0.09896016865968704;0.3127630054950714
01:00:0A:00:00:00:00;1724458469;24/08/24;00:14:29;1.012;-0.029;0.127;-0.22602014243602753;-0.4080579876899719;-0.44715335965156555
01:00:0A:00:00:00:00;1724458470;24/08/24;00:14:30;1.052;-0.03;0.268;-0.2736676335334778;0.17348572611808777;0.00855211354792118
01:00:0A:00:00:00:00;1724458471;24/08/24;00:14:31;1.084;-0.016;-0.109;-0.49724429845809937;-0.08674286305904388;0.2174680233001709
01:00:0A:00:00:00:00;1724458472;24/08/24;00:14:32;0.992;0.121;0.087;-0.6670648455619812;-0.07452555745840073;-0.1160643920302391
01:00:0A:00:00:00:00;1724458473;24/08/24;00:14:33;0.922;-0.149;-0.082;-0.8429940342903137;0.0024434609804302454;0.38728854060173035
01:00:0A:00:00:00:00;1724458474;24/08/24;00:14:34;0.918;0.185;0.125;-0.9040805697441101;-0.018325956538319588;-0.455705463886261
01:00:0A:00:00:00:00;1724458475;24/08/24;00:14:35;0.977;-0.055;0.008;-1.5638149976730347;-0.4605923891067505;0.8552113175392151
01:00:0A:00:00:00:00;1724458476;24/08/24;00:14:36;1.042;0.051;-0.055;-1.224173903465271;0.5693264007568359;0.2687807083129883
01:00:0A:00:00:00:00;1724458477;24/08/24;00:14:37;0.975;0.149;0.438;-1.6627751588821411;-0.19303341209888458;-0.8148941993713379
01:00:0A:00:00:00:00;1724458478;24/08/24;00:14:38;0.948;0.456;-0.05;-1.9633208513259888;-0.7147123217582703;-0.4703662395477295
01:00:0A:00:00:00:00;1724458479;24/08/24;00:14:39;1.013;0.152;-0.138;-2.1624629497528076;-0.6304128766059875;0.07819075137376785
01:00:0A:00:00:00:00;1724458480;24/08/24;00:14:40;0.972;-0.2;-0.059;-1.9327776432037354;0.24556782841682434;0.33719760179519653
01:00:0A:00:00:00:00;1724458481;24/08/24;00:14:41;0.954;0.039;0.16;-2.2369885444641113;-0.1258382350206375;0.1111774742603302
01:00:0A:00:00:00:00;1724458482;24/08/24;00:14:42;0.964;-0.16;-0.003;-1.841147780418396;0.9944885969161987;0.22479839622974396
01:00:0A:00:00:00:00;1724458483;24/08/24;00:14:43;0.916;-0.353;0.235;-1.379333734512329;0.3286454975605011;-1.3854423761367798
01:00:0A:00:00:00:00;1724458484;24/08/24;00:14:44;1.011;0.049;0.19;-1.569923758506775;-0.5021312236785889;-0.1062905490398407
01:00:0A:00:00:00:00;1724458485;24/08/24;00:14:45;1.034;-0.061;-0.081;-1.4721851348876953;-0.11728612333536148;-0.0024434609804302454
01:00:0A:00:00:00:00;1724458486;24/08/24;00:14:46;0.988;-0.175;0.183;-1.2913691997528076;0.32009339332580566;-0.22846359014511108
01:00:0A:00:00:00:00;1724458487;24/08/24;00:14:47;0.919;0.058;0.332;-1.3439035415649414;-0.07330382615327835;-0.9004153609275818
01:00:0A:00:00:00:00;1724458488;24/08/24;00:14:48;0.935;0.042;0.26;-1.7336355447769165;-0.7648032903671265;-0.6352998614311218
01:00:0A:00:00:00:00;1724458489;24/08/24;00:14:49;0.995;0.0;0.124;-1.841147780418396;-0.26022857427597046;0.21013763546943665
01:00:0A:00:00:00:00;1724458490;24/08/24;00:14:50;1.04;-0.012;-0.13;-1.4001030921936035;0.4288274049758911;-0.2076941877603531
01:00:0A:00:00:00:00;1724458491;24/08/24;00:14:51;0.994;-0.274;0.354;-1.320690631866455;0.0708603635430336;-0.21013763546943665
01:00:0A:00:00:00:00;1724458492;24/08/24;00:14:52;1.019;0.216;0.235;-1.2669343948364258;0.14049901068210602;-0.42760565876960754
01:00:0A:00:00:00:00;1724458493;24/08/24;00:14:53;0.973;-0.331;-0.136;-1.2473868131637573;-0.2993239760398865;0.34697145223617554
01:00:0A:00:00:00:00;1724458494;24/08/24;00:14:54;0.913;0.107;0.351;-0.8698720932006836;0.9077457189559937;-0.4642575681209564
01:00:0A:00:00:00:00;1724458495;24/08/24;00:14:55;0.902;-0.274;0.286;-1.1875219345092773;-0.21868975460529327;-0.2565633952617645
01:00:0A:00:00:00:00;1724458496;24/08/24;00:14:56;0.979;0.109;0.22;-0.9847148060798645;-0.040317103266716;-0.836885392665863
01:00:0A:00:00:00:00;1724458497;24/08/24;00:14:57;0.913;0.182;0.469;-1.57481050491333;-0.9749408960342407;-0.33108896017074585
01:00:0A:00:00:00:00;1724458498;24/08/24;00:14:58;1.008;0.288;0.073;-1.8680258989334106;-0.5962044596672058;0.00855211354792118
01:00:0A:00:00:00:00;1724458499;24/08/24;00:14:59;1.034;0.104;0.157;-2.0109684467315674;-0.2834414541721344;-0.35063666105270386
01:00:0A:00:00:00:00;1724458500;24/08/24;00:15:00;0.996;-0.027;0.12;-2.0134117603302;-0.18448130786418915;-0.3701843321323395
01:00:0A:00:00:00:00;1724458501;24/08/24;00:15:01;0.884;0.099;0.232;-1.940108060836792;0.32131510972976685;-0.48380526900291443
01:00:0A:00:00:00:00;1724458502;24/08/24;00:15:02;0.92;-0.006;0.179;-1.909564733505249;-0.4447098970413208;-1.1362093687057495
01:00:0A:00:00:00:00;1724458503;24/08/24;00:15:03;0.981;-0.016;0.089;-2.1172587871551514;-0.720820963382721;0.009773843921720982
01:00:0A:00:00:00:00;1724458504;24/08/24;00:15:04;1.025;0.055;-0.077;-1.8020524978637695;0.2431243658065796;0.14294245839118958
01:00:0A:00:00:00:00;1724458505;24/08/24;00:15:05;1.033;-0.301;0.043;-1.5063936710357666;-0.1673770695924759;-0.4312708377838135
01:00:0A:00:00:00:00;1724458506;24/08/24;00:15:06;0.941;0.226;0.397;-1.5222761631011963;0.2272418737411499;-0.5057964324951172
01:00:0A:00:00:00:00;1724458507;24/08/24;00:15:07;1.007;0.013;0.173;-1.792278528213501;-0.16249015927314758;-0.6023131012916565
01:00:0A:00:00:00:00;1724458508;24/08/24;00:15:08;0.88;-0.016;0.377;-1.843591332435608;0.13561207056045532;-0.6890559792518616
01:00:0A:00:00:00:00;1724458509;24/08/24;00:15:09;0.921;0.244;0.202;-2.03540301322937;-0.740368664264679;-1.1386528015136719
01:00:0A:00:00:00:00;1724458510;24/08/24;00:15:10;0.978;-0.008;0.228;-2.5057692527770996;-1.0140362977981567;-0.3604104816913605
01:00:0A:00:00:00:00;1724458511;24/08/24;00:15:11;1.014;0.114;0.155;-2.4837779998779297;-0.10262535512447357;-0.04398229718208313
01:00:0A:00:00:00:00;1724458512;24/08/24;00:15:12;1.041;-0.094;-0.101;-2.1844542026519775;0.18448130786418915;-0.3640756905078888
01:00:0A:00:00:00:00;1724458513;24/08/24;00:15:13;0.937;-0.22;0.473;-2.135585069656372;0.1673770695924759;-0.7012733221054077
01:00:0A:00:00:00:00;1724458514;24/08/24;00:15:14;0.978;0.177;0.286;-2.1844542026519775;-0.45326200127601624;-0.959058403968811
