Source;Epoch timestamp (UTC);Date;Time (UTC);Accel X (G);Accel Y (G);Accel Z (G);Gyro X (rad/s);Gyro Y (rad/s);Gyro Z (rad/s)
01:00:0A:00:00:00:00;1722613758;02/08/24;15:49:18;0.386;-0.197;-0.898;-0.025656338781118393;0.02076941914856434;0.006108652334660292
01:00:0A:00:00:00:00;1722613759;02/08/24;15:49:19;0.272;-0.232;-0.994;-0.025656338781118393;-0.0012217304902151227;0.03176499158143997
01:00:0A:00:00:00:00;1722613759;02/08/24;15:49:19;0.176;-0.136;-0.974;-0.039095375686883926;0.05009094998240471;0.20036379992961884
01:00:0A:00:00:00:00;1722613760;02/08/24;15:49:20;0.193;-0.141;-0.92;-0.07452555745840073;0.07941248267889023;0.22602014243602753
01:00:0A:00:00:00:00;1722613761;02/08/24;15:49:21;0.192;-0.14;-0.905;-0.02076941914856434;0.06230825558304787;0.24678954482078552
01:00:0A:00:00:00:00;1722613762;02/08/24;15:49:22;0.22;-0.157;-0.979;-0.05253440886735916;0.05253440886735916;0.2822197377681732
01:00:0A:00:00:00:00;1722613763;02/08/24;15:49:23;0.231;-0.14;-0.807;0.02076941914856434;-0.06475171446800232;0.10751228034496307
01:00:0A:00:00:00:00;1722613764;02/08/24;15:49:24;0.258;-0.305;-0.826;0.025656338781118393;0.004886921960860491;-0.02321287989616394
01:00:0A:00:00:00:00;1722613765;02/08/24;15:49:25;0.3;-0.289;-0.881;0.028099799528717995;0.009773843921720982;-0.014660765416920185
01:00:0A:00:00:00:00;1722613766;02/08/24;15:49:26;0.248;-0.209;-0.972;-0.059864792972803116;0.039095375686883926;0.1673770695924759
01:00:0A:00:00:00:00;1722613767;02/08/24;15:49:27;0.211;-0.287;-0.862;-0.006108652334660292;0.012217304669320583;0.08307767659425735
01:00:0A:00:00:00:00;1722613768;02/08/24;15:49:28;0.196;-0.306;-0.905;0.0;-0.0012217304902151227;-0.006108652334660292
01:00:0A:00:00:00:00;1722613769;02/08/24;15:49:29;0.14;-0.32;-0.894;0.009773843921720982;-0.0073303827084600925;0.0
01:00:0A:00:00:00:00;1722613770;02/08/24;15:49:30;0.221;-0.303;-0.922;0.012217304669320583;0.0;-0.0012217304902151227
01:00:0A:00:00:00:00;1722613771;02/08/24;15:49:31;0.263;-0.277;-0.916;0.0073303827084600925;-0.0036651913542300463;0.0
01:00:0A:00:00:00:00;1722613772;02/08/24;15:49:32;0.274;-0.277;-0.911;0.006108652334660292;-0.0036651913542300463;0.0
01:00:0A:00:00:00:00;1722613773;02/08/24;15:49:33;0.282;-0.271;-0.915;0.004886921960860491;-0.0036651913542300463;0.0012217304902151227
01:00:0A:00:00:00:00;1722613774;02/08/24;15:49:34;0.284;-0.271;-0.917;0.006108652334660292;-0.0036651913542300463;0.0012217304902151227
01:00:0A:00:00:00:00;1722613775;02/08/24;15:49:35;0.278;-0.27;-0.901;0.009773843921720982;-0.004886921960860491;0.0012217304902151227
01:00:0A:00:00:00:00;1722613776;02/08/24;15:49:36;0.287;-0.274;-0.901;0.0024434609804302454;-0.006108652334660292;0.0012217304902151227
01:00:0A:00:00:00:00;1722613777;02/08/24;15:49:37;0.288;-0.271;-0.897;0.009773843921720982;-0.0036651913542300463;-0.0024434609804302454
01:00:0A:00:00:00:00;1722613778;02/08/24;15:49:38;0.283;-0.272;-0.911;0.004886921960860491;-0.004886921960860491;0.0012217304902151227
01:00:0A:00:00:00:00;1722613779;02/08/24;15:49:39;0.283;-0.27;-0.911;0.0036651913542300463;-0.004886921960860491;0.0012217304902151227
01:00:0A:00:00:00:00;1722613780;02/08/24;15:49:40;0.284;-0.275;-0.908;0.0073303827084600925;-0.0036651913542300463;0.0012217304902151227
01:00:0A:00:00:00:00;1722613781;02/08/24;15:49:41;0.284;-0.274;-0.909;0.006108652334660292;-0.004886921960860491;0.0012217304902151227
01:00:0A:00:00:00:00;1722613782;02/08/24;15:49:42;0.274;-0.273;-0.94;-0.004886921960860491;-0.28466320037841797;0.09407324343919754
01:00:0A:00:00:00:00;1722613783;02/08/24;15:49:43;0.097;-0.276;-0.936;-0.02687807008624077;-0.13316862285137177;0.11728612333536148
01:00:0A:00:00:00:00;1722613784;02/08/24;15:49:44;0.06;-0.275;-0.959;0.0036651913542300463;-0.07696902006864548;0.09651670604944229
01:00:0A:00:00:00:00;1722613785;02/08/24;15:49:45;0.08;-0.298;-0.813;0.28588491678237915;-0.2272418737411499;0.45204028487205505
01:00:0A:00:00:00:00;1722613786;02/08/24;15:49:46;0.188;-0.26;-1.152;0.49724429845809937;-0.09651670604944229;-0.7244861721992493
01:00:0A:00:00:00:00;1722613787;02/08/24;15:49:47;0.08;-0.081;-1.031;0.13072516024112701;-0.051312677562236786;0.09285151958465576
01:00:0A:00:00:00:00;1722613788;02/08/24;15:49:48;-0.094;-0.192;-0.964;0.2932153046131134;0.045204028487205505;1.2913691997528076
01:00:0A:00:00:00:00;1722613789;02/08/24;15:49:49;0.123;-0.365;-0.824;0.09162978082895279;0.4605923891067505;0.9004153609275818
01:00:0A:00:00:00:00;1722613790;02/08/24;15:49:50;-0.048;-0.296;-0.808;0.3042108714580536;-0.07208210229873657;-0.21135938167572021
01:00:0A:00:00:00:00;1722613791;02/08/24;15:49:51;-0.003;-0.399;-0.877;-0.11972958594560623;0.17104226350784302;1.1423180103302002
01:00:0A:00:00:00:00;1722613792;02/08/24;15:49:52;-0.025;-0.423;-0.715;0.27122414112091064;0.20402899384498596;0.5583308339118958
01:00:0A:00:00:00:00;1722613793;02/08/24;15:49:53;0.049;-0.348;-0.884;-0.080634206533432;-0.080634206533432;-0.08796459436416626
01:00:0A:00:00:00:00;1722613794;02/08/24;15:49:54;-0.012;-0.419;-0.954;0.09651670604944229;0.11362093687057495;0.4105014204978943
01:00:0A:00:00:00:00;1722613795;02/08/24;15:49:55;-0.137;-0.577;-0.806;0.1368338167667389;-0.16371189057826996;0.5290092825889587
01:00:0A:00:00:00:00;1722613796;02/08/24;15:49:56;-0.215;-0.53;-0.807;0.040317103266716;-0.06719517707824707;-0.13439035415649414
01:00:0A:00:00:00:00;1722613797;02/08/24;15:49:57;-0.068;-0.551;-0.84;0.0;-0.37140607833862305;-0.9944885969161987
01:00:0A:00:00:00:00;1722613798;02/08/24;15:49:58;0.045;-0.524;-0.834;-0.12950342893600464;-0.019547687843441963;0.2528982162475586
01:00:0A:00:00:00:00;1722613799;02/08/24;15:49:59;0.06;-0.597;-0.8;-0.03420845419168472;0.05253440886735916;-0.07696902006864548
01:00:0A:00:00:00:00;1722613800;02/08/24;15:50:00;0.174;-0.595;-0.801;-0.3677408695220947;-0.05742133408784866;-0.38728854060173035
01:00:0A:00:00:00:00;1722613801;02/08/24;15:50:01;0.127;-0.469;-0.885;0.39584067463874817;-0.6133087277412415;-0.9798278212547302
01:00:0A:00:00:00:00;1722613802;02/08/24;15:50:02;0.271;-0.411;-1.111;-0.17470745742321014;-0.5522221922874451;-0.27000245451927185
01:00:0A:00:00:00:00;1722613803;02/08/24;15:50:03;0.189;-0.478;-0.896;0.2981022298336029;-0.3445279896259308;-0.817337691783905
01:00:0A:00:00:00:00;1722613804;02/08/24;15:50:04;-0.104;-0.632;-0.864;-0.4899139106273651;-0.1820378452539444;0.2687807083129883
01:00:0A:00:00:00:00;1722613805;02/08/24;15:50:05;0.231;-0.526;-0.746;-0.36529743671417236;0.27611109614372253;0.3933972120285034
01:00:0A:00:00:00:00;1722613806;02/08/24;15:50:06;-0.119;-0.541;-0.543;-0.21013763546943665;0.5448917746543884;0.3640756905078888
01:00:0A:00:00:00:00;1722613807;02/08/24;15:50:07;0.077;-0.396;-0.829;0.08552113175392151;-0.11362093687057495;0.29688048362731934
01:00:0A:00:00:00:00;1722613808;02/08/24;15:50:08;-0.028;-0.653;-1.024;-0.20036379992961884;0.21624629199504852;-0.22968533635139465
01:00:0A:00:00:00:00;1722613809;02/08/24;15:50:09;-0.085;-0.588;-0.672;-0.0073303827084600925;0.051312677562236786;-0.4789183437824249
01:00:0A:00:00:00:00;1722613810;02/08/24;15:50:10;0.009;-0.332;-1.209;-0.014660765416920185;-0.32498031854629517;-0.2895500957965851
01:00:0A:00:00:00:00;1722613811;02/08/24;15:50:11;0.043;-0.332;-0.762;0.09773843735456467;-0.22602014243602753;-0.2687807083129883
01:00:0A:00:00:00:00;1722613812;02/08/24;15:50:12;-0.201;-0.544;-1.084;-0.19425514340400696;0.21502456068992615;0.15515977144241333
01:00:0A:00:00:00:00;1722613813;02/08/24;15:50:13;-0.353;-0.515;-0.744;0.1869247555732727;0.006108652334660292;0.7293730974197388
01:00:0A:00:00:00:00;1722613814;02/08/24;15:50:14;-0.391;-0.522;-0.862;-0.09896016865968704;0.4996877610683441;0.5852089524269104
01:00:0A:00:00:00:00;1722613815;02/08/24;15:50:15;-0.06;-0.484;-0.688;-0.6988298296928406;0.3433062732219696;0.04398229718208313
01:00:0A:00:00:00:00;1722613816;02/08/24;15:50:16;-0.189;-0.517;-1.15;-0.2736676335334778;-0.040317103266716;-0.7379252314567566
01:00:0A:00:00:00:00;1722613827;02/08/24;15:50:27;-0.122;-0.484;-0.667;-0.07696902006864548;0.43737950921058655;0.8576548099517822
01:00:0A:00:00:00:00;1722613828;02/08/24;15:50:28;0.15;-0.214;-0.842;-0.19425514340400696;-0.3885102868080139;-0.28466320037841797
01:00:0A:00:00:00:00;1722613829;02/08/24;15:50:29;0.046;-0.399;-0.62;-0.7574728727340698;-0.18936821818351746;-0.39217546582221985
01:00:0A:00:00:00:00;1722613830;02/08/24;15:50:30;-0.007;-0.488;-1.041;0.030543262138962746;0.11484266817569733;-0.14905111491680145
01:00:0A:00:00:00:00;1722613831;02/08/24;15:50:31;0.095;-0.329;-0.668;0.7220427393913269;0.17348572611808777;0.23579397797584534
01:00:0A:00:00:00:00;1722613832;02/08/24;15:50:32;-0.042;-0.599;-0.89;0.3689626157283783;0.4080579876899719;0.3543018400669098
01:00:0A:00:00:00:00;1722613833;02/08/24;15:50:33;-0.056;-0.247;-0.764;-0.014660765416920185;-0.17104226350784302;-0.16371189057826996
01:00:0A:00:00:00:00;1722613834;02/08/24;15:50:34;0.251;-0.5;-0.682;-0.16859880089759827;0.07819075137376785;0.09896016865968704
01:00:0A:00:00:00:00;1722613835;02/08/24;15:50:35;-0.05;-0.363;-1.213;-0.03787364438176155;0.08185594528913498;-0.4495967924594879
01:00:0A:00:00:00:00;1722613836;02/08/24;15:50:36;0.031;-0.28;-0.895;0.5119050741195679;0.17837265133857727;0.49235740303993225
01:00:0A:00:00:00:00;1722613837;02/08/24;15:50:37;-0.173;-0.46;-0.609;-0.05864306166768074;0.6524040699005127;0.49235740303993225
01:00:0A:00:00:00:00;1722613838;02/08/24;15:50:38;-0.048;-0.547;-1.609;-0.13316862285137177;-0.3274237811565399;-0.05009094998240471
01:00:0A:00:00:00:00;1722613839;02/08/24;15:50:39;0.078;-0.25;-0.864;0.2370157092809677;-0.4337143301963806;-0.4031710624694824
01:00:0A:00:00:00:00;1722613840;02/08/24;15:50:40;0.195;-0.588;-1.127;-0.36163222789764404;-0.251676470041275;-0.02687807008624077
01:00:0A:00:00:00:00;1722613841;02/08/24;15:50:41;-0.149;-0.59;-0.957;-0.2736676335334778;0.24923302233219147;-0.19303341209888458
01:00:0A:00:00:00:00;1722613842;02/08/24;15:50:42;-0.093;-0.331;-0.667;0.3347541391849518;0.1514945775270462;-0.018325956538319588
01:00:0A:00:00:00:00;1722613843;02/08/24;15:50:43;-0.151;-0.593;-1.26;0.3628539443016052;-0.13561207056045532;0.6133087277412415
01:00:0A:00:00:00:00;1722613844;02/08/24;15:50:44;0.118;-0.265;-1.023;-0.5180137157440186;-0.27488934993743896;-0.12828169763088226
01:00:0A:00:00:00:00;1722613845;02/08/24;15:50:45;-0.029;-0.112;-0.472;0.15027284622192383;-0.2773328125476837;-0.35185837745666504
01:00:0A:00:00:00:00;1722613846;02/08/24;15:50:46;0.12;-0.595;-0.964;-0.44226640462875366;-0.27122414112091064;-0.14294245839118958
01:00:0A:00:00:00:00;1722613847;02/08/24;15:50:47;-0.276;-0.587;-1.086;0.12217304855585098;0.012217304669320583;-0.40194931626319885
01:00:0A:00:00:00:00;1722613848;02/08/24;15:50:48;-0.055;-0.404;-0.779;0.5180137157440186;-0.05742133408784866;-0.1160643920302391
01:00:0A:00:00:00:00;1722613849;02/08/24;15:50:49;-0.088;-0.299;-0.67;0.513126790523529;0.19914205372333527;0.09773843735456467
01:00:0A:00:00:00:00;1722613850;02/08/24;15:50:50;-0.326;-0.525;-0.946;0.4715879559516907;0.03298672288656235;0.6206390857696533
01:00:0A:00:00:00:00;1722613851;02/08/24;15:50:51;0.121;-0.232;-1.134;-0.4752531349658966;-0.2370157092809677;-0.11972958594560623
01:00:0A:00:00:00:00;1722613852;02/08/24;15:50:52;-0.028;-0.134;-0.583;0.19547687470912933;-0.38117989897727966;-0.3029891550540924
01:00:0A:00:00:00:00;1722613853;02/08/24;15:50:53;0.099;-0.537;-0.942;-0.6059783101081848;-0.34086278080940247;-0.3799581527709961
01:00:0A:00:00:00:00;1722613854;02/08/24;15:50:54;-0.108;-0.544;-1.192;-0.00855211354792118;0.10018189996480942;-0.4312708377838135
01:00:0A:00:00:00:00;1722613855;02/08/24;15:50:55;-0.041;-0.233;-0.748;0.3848450779914856;0.26633724570274353;0.39217546582221985
01:00:0A:00:00:00:00;1722613856;02/08/24;15:50:56;-0.197;-0.48;-0.77;0.02076941914856434;0.513126790523529;0.2736676335334778
01:00:0A:00:00:00:00;1722613857;02/08/24;15:50:57;-0.247;-0.599;-1.259;0.4190535545349121;-0.02687807008624077;0.4312708377838135
01:00:0A:00:00:00:00;1722613858;02/08/24;15:50:58;0.089;-0.081;-0.779;-0.44715335965156555;-0.10262535512447357;-0.09407324343919754
01:00:0A:00:00:00:00;1722613859;02/08/24;15:50:59;0.045;-0.205;-0.7;-0.02321287989616394;-0.13927726447582245;-0.2431243658065796
01:00:0A:00:00:00:00;1722613860;02/08/24;15:51:00;-0.127;-0.485;-1.099;-0.08185594528913498;0.14416420459747314;-0.13805554807186127
01:00:0A:00:00:00:00;1722613861;02/08/24;15:51:01;-0.022;-0.348;-0.839;0.50335294008255;-0.03420845419168472;0.03176499158143997
01:00:0A:00:00:00:00;1722613862;02/08/24;15:51:02;-0.075;-0.369;-0.676;0.46181410551071167;0.1111774742603302;0.2431243658065796
01:00:0A:00:00:00:00;1722613863;02/08/24;15:51:03;-0.536;-0.579;-0.949;0.08796459436416626;0.21624629199504852;0.3152064383029938
01:00:0A:00:00:00:00;1722613864;02/08/24;15:51:04;0.114;-0.333;-1.37;-0.4300491213798523;0.12095131725072861;0.3897320330142975
01:00:0A:00:00:00:00;1722613865;02/08/24;15:51:05;0.012;-0.122;-0.578;0.35674530267715454;-0.1771509200334549;-0.16004669666290283
01:00:0A:00:00:00:00;1722613866;02/08/24;15:51:06;0.045;-0.264;-0.761;0.06841690838336945;-0.22602014243602753;-0.08429940044879913
01:00:0A:00:00:00:00;1722613867;02/08/24;15:51:07;-0.391;-0.523;-0.985;-0.27122414112091064;-0.12095131725072861;-0.5900958180427551
01:00:0A:00:00:00:00;1722613868;02/08/24;15:51:08;-0.051;-0.489;-1.177;0.1466076523065567;0.080634206533432;-0.26633724570274353
01:00:0A:00:00:00:00;1722613869;02/08/24;15:51:09;0.071;-0.267;-0.587;0.3995058536529541;0.12217304855585098;0.10384709388017654
01:00:0A:00:00:00:00;1722613870;02/08/24;15:51:10;-0.235;-0.524;-0.772;0.09651670604944229;0.4483751058578491;0.5571090579032898
01:00:0A:00:00:00:00;1722613871;02/08/24;15:51:11;-0.485;-0.714;-1.26;-0.01710422709584236;-0.0708603635430336;0.2785545289516449
01:00:0A:00:00:00:00;1722613872;02/08/24;15:51:12;-0.022;-0.211;-0.75;0.05742133408784866;-0.33108896017074585;-0.37751471996307373
01:00:0A:00:00:00:00;1722613873;02/08/24;15:51:13;0.018;-0.197;-0.516;0.1661553531885147;-0.2638937830924988;-0.5534439086914062
01:00:0A:00:00:00:00;1722613874;02/08/24;15:51:14;-0.295;-0.506;-0.802;-0.3481931686401367;-0.2541199326515198;-0.7049384713172913
01:00:0A:00:00:00:00;1722613875;02/08/24;15:51:15;0.023;-0.459;-1.27;0.3017674386501312;0.13316862285137177;-0.0036651913542300463
01:00:0A:00:00:00:00;1722613876;02/08/24;15:51:16;-0.042;-0.454;-0.736;0.051312677562236786;0.11484266817569733;0.0757472887635231
01:00:0A:00:00:00:00;1722613877;02/08/24;15:51:17;-0.514;-0.682;-1.002;0.16371189057826996;0.2687807083129883;0.6499606370925903
01:00:0A:00:00:00:00;1722613878;02/08/24;15:51:18;-0.018;-0.286;-1.391;-0.5216788649559021;0.03787364438176155;0.18081611394882202
01:00:0A:00:00:00:00;1722613879;02/08/24;15:51:19;-0.019;-0.186;-0.536;0.18448130786418915;-0.3237585723400116;-0.5485569834709167
01:00:0A:00:00:00:00;1722613880;02/08/24;15:51:20;0.046;-0.489;-0.752;-0.12339477241039276;-0.23457224667072296;-0.2174680233001709
01:00:0A:00:00:00:00;1722613881;02/08/24;15:51:21;0.012;-0.348;-0.967;0.2822197377681732;-0.0757472887635231;-0.16859880089759827
01:00:0A:00:00:00:00;1722613882;02/08/24;15:51:22;-0.171;-0.444;-0.618;0.05253440886735916;0.24678954482078552;0.4642575681209564
01:00:0A:00:00:00:00;1722613883;02/08/24;15:51:23;0.059;-0.497;-1.407;-0.34574973583221436;-0.09040805697441101;0.16249015927314758
01:00:0A:00:00:00:00;1722613884;02/08/24;15:51:24;-0.033;-0.203;-0.603;0.0024434609804302454;-0.2577851116657257;-0.6731734871864319
01:00:0A:00:00:00:00;1722613885;02/08/24;15:51:25;0.021;-0.506;-0.592;-0.5021312236785889;-0.20036379992961884;0.080634206533432
01:00:0A:00:00:00:00;1722613886;02/08/24;15:51:26;-0.144;-0.696;-1.204;-0.051312677562236786;0.11239919811487198;-0.3897320330142975
01:00:0A:00:00:00:00;1722613887;02/08/24;15:51:27;0.025;-0.444;-1.081;0.09773843735456467;0.04886921867728233;-0.14538592100143433
01:00:0A:00:00:00:00;1722613888;02/08/24;15:51:28;0.029;-0.345;-0.64;0.4288274049758911;0.04642575979232788;0.3848450779914856
01:00:0A:00:00:00:00;1722613889;02/08/24;15:51:29;-0.263;-0.373;-0.694;0.2626720666885376;0.2382374405860901;0.39095374941825867
01:00:0A:00:00:00:00;1722613890;02/08/24;15:51:30;-0.253;-0.795;-1.294;0.3897320330142975;-0.08307767659425735;0.23945917189121246
01:00:0A:00:00:00:00;1722613891;02/08/24;15:51:31;0.04;-0.445;-1.149;-0.3591887652873993;-0.05864306166768074;0.051312677562236786
01:00:0A:00:00:00:00;1722613892;02/08/24;15:51:32;0.078;-0.347;-0.842;-0.30543261766433716;0.04642575979232788;-0.14782939851284027
01:00:0A:00:00:00:00;1722613893;02/08/24;15:51:33;0.004;-0.471;-1.109;0.04642575979232788;0.0659734457731247;-0.19792033731937408
01:00:0A:00:00:00:00;1722613894;02/08/24;15:51:34;0.043;-0.336;-0.882;0.1111774742603302;0.1160643920302391;0.06352998316287994
01:00:0A:00:00:00:00;1722613895;02/08/24;15:51:35;0.174;-0.338;-1.273;-0.38606682419776917;0.039095375686883926;0.41661006212234497
01:00:0A:00:00:00:00;1722613896;02/08/24;15:51:36;0.123;-0.148;-1.028;0.1258382350206375;-0.1966986060142517;-0.14782939851284027
01:00:0A:00:00:00:00;1722613897;02/08/24;15:51:37;0.101;-0.414;-0.685;-0.30054569244384766;-0.1466076523065567;-0.025656338781118393
01:00:0A:00:00:00:00;1722613898;02/08/24;15:51:38;-0.289;-0.588;-1.062;-0.24434609711170197;0.059864792972803116;-0.5595525503158569
01:00:0A:00:00:00:00;1722613899;02/08/24;15:51:39;0.001;-0.32;-0.94;0.35552355647087097;-0.10506881773471832;-0.24923302233219147
01:00:0A:00:00:00:00;1722613900;02/08/24;15:51:40;-0.241;-0.42;-0.723;0.10751228034496307;0.4789183437824249;0.5082398653030396
01:00:0A:00:00:00:00;1722613901;02/08/24;15:51:41;-0.182;-0.298;-0.988;0.4398229718208313;0.009773843921720982;-0.3029891550540924
01:00:0A:00:00:00:00;1722613902;02/08/24;15:51:42;0.154;-0.242;-0.841;-0.0036651913542300463;-0.23579397797584534;0.08796459436416626
01:00:0A:00:00:00:00;1722613903;02/08/24;15:51:43;0.029;-0.34;-0.765;-0.2541199326515198;-0.22113320231437683;-0.1576032191514969
01:00:0A:00:00:00:00;1722613904;02/08/24;15:51:44;-0.059;-0.238;-0.975;0.30543261766433716;0.10873401165008545;-0.24190263450145721
01:00:0A:00:00:00:00;1722613905;02/08/24;15:51:45;-0.202;-0.404;-0.718;0.17348572611808777;0.11850785464048386;0.37140607833862305
01:00:0A:00:00:00:00;1722613906;02/08/24;15:51:46;-0.026;-0.298;-1.028;-0.3152064383029938;-0.10018189996480942;-0.03420845419168472
01:00:0A:00:00:00:00;1722613907;02/08/24;15:51:47;-0.007;-0.303;-0.791;0.18570303916931152;-0.31031954288482666;-0.31154125928878784
01:00:0A:00:00:00:00;1722613908;02/08/24;15:51:48;-0.274;-0.504;-1.049;-0.2834414541721344;0.06719517707824707;-0.5387831330299377
01:00:0A:00:00:00:00;1722613909;02/08/24;15:51:49;-0.003;-0.379;-0.771;0.5424482822418213;-0.006108652334660292;0.10384709388017654
01:00:0A:00:00:00:00;1722613910;02/08/24;15:51:50;-0.007;-0.264;-0.694;0.42149701714515686;0.21135938167572021;0.533896267414093
01:00:0A:00:00:00:00;1722613911;02/08/24;15:51:51;-0.236;-0.286;-0.728;0.20036379992961884;0.3530800938606262;0.1576032191514969
01:00:0A:00:00:00:00;1722613912;02/08/24;15:51:52;-0.218;-0.594;-1.246;-0.05619959905743599;-0.07452555745840073;0.16371189057826996
01:00:0A:00:00:00:00;1722613913;02/08/24;15:51:53;0.019;-0.163;-0.916;0.11728612333536148;-0.06230825558304787;-0.21624629199504852
01:00:0A:00:00:00:00;1722613914;02/08/24;15:51:54;0.027;-0.195;-0.647;0.08429940044879913;-0.21380282938480377;-0.6047565937042236
01:00:0A:00:00:00:00;1722613915;02/08/24;15:51:55;-0.286;-0.449;-0.854;0.21135938167572021;-0.028099799528717995;-0.6181955933570862
01:00:0A:00:00:00:00;1722613916;02/08/24;15:51:56;0.086;-0.443;-1.126;0.17592918872833252;0.05742133408784866;0.06841690838336945
01:00:0A:00:00:00:00;1722613917;02/08/24;15:51:57;0.091;-0.361;-0.668;0.4349360466003418;-0.006108652334660292;0.48258352279663086
01:00:0A:00:00:00:00;1722613918;02/08/24;15:51:58;-0.193;-0.362;-0.667;0.27611109614372253;0.36651912331581116;0.4080579876899719
01:00:0A:00:00:00:00;1722613919;02/08/24;15:51:59;-0.234;-0.467;-1.239;0.2822197377681732;0.2028072476387024;0.16982054710388184
01:00:0A:00:00:00:00;1722613920;02/08/24;15:52:00;-0.004;-0.248;-1.172;-0.28099802136421204;0.24190263450145721;0.5021312236785889
01:00:0A:00:00:00:00;1722613921;02/08/24;15:52:01;0.023;-0.213;-1.069;-0.37262779474258423;0.21868975460529327;0.22968533635139465
01:00:0A:00:00:00:00;1722613922;02/08/24;15:52:02;0.02;-0.147;-0.666;0.039095375686883926;-0.06108652427792549;0.018325956538319588
01:00:0A:00:00:00:00;1722613923;02/08/24;15:52:03;-0.182;-0.482;-0.71;0.05497787147760391;-0.2932153046131134;-0.5510004162788391
01:00:0A:00:00:00:00;1722613924;02/08/24;15:52:04;-0.247;-0.548;-0.901;-0.06963863223791122;-0.251676470041275;-0.4862487316131592
01:00:0A:00:00:00:00;1722613925;02/08/24;15:52:05;0.066;-0.592;-1.124;0.34574973583221436;0.06841690838336945;-0.18814648687839508
01:00:0A:00:00:00:00;1722613926;02/08/24;15:52:06;-0.131;-0.159;-0.729;0.5998696088790894;0.11972958594560623;0.15393804013729095
01:00:0A:00:00:00:00;1722613927;02/08/24;15:52:07;-0.147;-0.274;-0.601;0.445931613445282;-0.004886921960860491;-0.09896016865968704
01:00:0A:00:00:00:00;1722613928;02/08/24;15:52:08;-0.147;-0.554;-0.623;0.012217304669320583;-0.06108652427792549;-0.5668829083442688
01:00:0A:00:00:00:00;1722613929;02/08/24;15:52:09;0.023;-0.506;-0.745;-0.2687807083129883;-0.05375614017248154;-0.20891590416431427
01:00:0A:00:00:00:00;1722613930;02/08/24;15:52:10;-0.052;-0.602;-0.761;-0.028099799528717995;0.03176499158143997;0.1368338167667389
01:00:0A:00:00:00:00;1722613931;02/08/24;15:52:11;-0.103;-0.577;-0.807;0.13561207056045532;0.010995574295520782;0.2895500957965851
01:00:0A:00:00:00:00;1722613932;02/08/24;15:52:12;-0.602;-0.396;-0.717;0.49235740303993225;0.6255260109901428;0.5057964324951172
01:00:0A:00:00:00:00;1722613933;02/08/24;15:52:13;-0.447;-0.558;-0.738;0.31642818450927734;0.18936821818351746;0.6145303845405579
01:00:0A:00:00:00:00;1722613934;02/08/24;15:52:14;-0.402;-0.634;-0.837;0.5400049090385437;0.4056144952774048;1.25593900680542
01:00:0A:00:00:00:00;1722613935;02/08/24;15:52:15;-0.227;-0.373;-0.921;-0.08674286305904388;-0.13439035415649414;-0.45204028487205505
01:00:0A:00:00:00:00;1722613936;02/08/24;15:52:16;-0.161;-0.407;-0.811;-0.080634206533432;-0.059864792972803116;-0.36163222789764404
01:00:0A:00:00:00:00;1722613937;02/08/24;15:52:17;-0.362;-0.383;-0.801;-1.0323623418807983;-0.7733554244041443;-2.526538610458374
01:00:0A:00:00:00:00;1722613938;02/08/24;15:52:18;-0.045;-0.495;-1.114;0.26022857427597046;-0.25534167885780334;-0.9944885969161987
01:00:0A:00:00:00:00;1722613939;02/08/24;15:52:19;0.064;-0.345;-0.927;0.006108652334660292;-0.0036651913542300463;0.0012217304902151227
01:00:0A:00:00:00:00;1722613940;02/08/24;15:52:20;0.063;-0.343;-0.927;0.006108652334660292;-0.0036651913542300463;0.0012217304902151227
01:00:0A:00:00:00:00;1722613941;02/08/24;15:52:21;0.063;-0.344;-0.927;0.006108652334660292;-0.0036651913542300463;0.0012217304902151227
01:00:0A:00:00:00:00;1722613942;02/08/24;15:52:22;0.062;-0.344;-0.927;0.006108652334660292;-0.0036651913542300463;0.0012217304902151227
01:00:0A:00:00:00:00;1722613943;02/08/24;15:52:23;0.063;-0.344;-0.926;0.006108652334660292;-0.0036651913542300463;0.0012217304902151227
01:00:0A:00:00:00:00;1722613944;02/08/24;15:52:24;0.064;-0.343;-0.927;0.006108652334660292;-0.0036651913542300463;0.0024434609804302454
01:00:0A:00:00:00:00;1722613945;02/08/24;15:52:25;0.064;-0.343;-0.927;0.006108652334660292;-0.0036651913542300463;0.0012217304902151227
01:00:0A:00:00:00:00;1722613946;02/08/24;15:52:26;0.064;-0.343;-0.928;0.006108652334660292;-0.0036651913542300463;0.0012217304902151227
01:00:0A:00:00:00:00;1722613947;02/08/24;15:52:27;0.062;-0.343;-0.926;0.006108652334660292;-0.0036651913542300463;0.0012217304902151227
01:00:0A:00:00:00:00;1722613948;02/08/24;15:52:28;0.064;-0.343;-0.926;0.006108652334660292;-0.0036651913542300463;0.0012217304902151227
01:00:0A:00:00:00:00;1722613949;02/08/24;15:52:29;0.063;-0.343;-0.927;0.006108652334660292;-0.0036651913542300463;0.0012217304902151227
01:00:0A:00:00:00:00;1722613950;02/08/24;15:52:30;0.063;-0.343;-0.926;0.006108652334660292;-0.0036651913542300463;0.0012217304902151227
01:00:0A:00:00:00:00;1722613951;02/08/24;15:52:31;0.064;-0.343;-0.927;0.006108652334660292;-0.0036651913542300463;0.0012217304902151227
01:00:0A:00:00:00:00;1722613952;02/08/24;15:52:32;0.063;-0.344;-0.927;0.006108652334660292;-0.0036651913542300463;0.0012217304902151227
01:00:0A:00:00:00:00;1722613953;02/08/24;15:52:33;0.062;-0.344;-0.927;0.006108652334660292;-0.0036651913542300463;0.0012217304902151227
01:00:0A:00:00:00:00;1722613954;02/08/24;15:52:34;0.062;-0.343;-0.927;0.006108652334660292;-0.0036651913542300463;0.0012217304902151227
01:00:0A:00:00:00:00;1722613955;02/08/24;15:52:35;0.062;-0.343;-0.927;0.006108652334660292;-0.0036651913542300463;0.0012217304902151227
01:00:0A:00:00:00:00;1722613956;02/08/24;15:52:36;0.062;-0.343;-0.928;0.006108652334660292;-0.0036651913542300463;0.0012217304902151227
01:00:0A:00:00:00:00;1722613957;02/08/24;15:52:37;0.063;-0.342;-0.927;0.006108652334660292;-0.0036651913542300463;0.0012217304902151227
01:00:0A:00:00:00:00;1722613958;02/08/24;15:52:38;0.063;-0.343;-0.927;0.006108652334660292;-0.0036651913542300463;0.0012217304902151227
01:00:0A:00:00:00:00;1722613959;02/08/24;15:52:39;0.063;-0.343;-0.928;0.006108652334660292;-0.0036651913542300463;0.0012217304902151227
01:00:0A:00:00:00:00;1722613960;02/08/24;15:52:40;0.062;-0.345;-0.927;0.0024434609804302454;-0.0024434609804302454;0.0012217304902151227
01:00:0A:00:00:00:00;1722613961;02/08/24;15:52:41;0.063;-0.343;-0.927;0.006108652334660292;-0.0036651913542300463;0.0012217304902151227
01:00:0A:00:00:00:00;1722613962;02/08/24;15:52:42;0.397;-0.094;-0.997;-0.9773843884468079;0.6756169199943542;-0.18814648687839508
01:00:0A:00:00:00:00;1722613963;02/08/24;15:52:43;0.414;0.727;-0.444;0.41294488310813904;0.8930849432945251;-1.0225883722305298
01:00:0A:00:00:00:00;1722613964;02/08/24;15:52:44;0.411;0.469;-0.757;0.8979718685150146;0.05253440886735916;0.2724458873271942
01:00:0A:00:00:00:00;1722613965;02/08/24;15:52:45;0.315;-0.078;-0.996;0.3384193480014801;-0.2480112910270691;0.1576032191514969
01:00:0A:00:00:00:00;1722613966;02/08/24;15:52:46;0.566;0.284;-0.915;-0.080634206533432;0.12217304855585098;-0.1319468915462494
01:00:0A:00:00:00:00;1722613967;02/08/24;15:52:47;0.558;0.055;-0.568;0.2076941877603531;0.1918116807937622;0.014660765416920185
01:00:0A:00:00:00:00;1722613968;02/08/24;15:52:48;0.534;0.403;-0.722;0.17348572611808777;-0.5400049090385437;0.46181410551071167
01:00:0A:00:00:00:00;1722613969;02/08/24;15:52:49;0.589;0.136;-0.712;1.2864822149276733;0.3323107063770294;-1.4343115091323853
01:00:0A:00:00:00:00;1722613970;02/08/24;15:52:50;0.494;0.135;-0.85;-0.004886921960860491;-0.1466076523065567;-0.24923302233219147
01:00:0A:00:00:00:00;1722613971;02/08/24;15:52:51;0.683;0.147;-0.637;-0.028099799528717995;0.12217304855585098;-0.1062905490398407
01:00:0A:00:00:00:00;1722613972;02/08/24;15:52:52;0.54;0.038;-0.918;0.7819074988365173;0.16249015927314758;-0.5155702233314514
01:00:0A:00:00:00:00;1722613973;02/08/24;15:52:53;0.9;0.14;-0.424;-0.006108652334660292;-0.08552113175392151;0.08429940044879913
01:00:0A:00:00:00:00;1722613974;02/08/24;15:52:54;0.899;0.194;-0.55;-0.11850785464048386;0.06352998316287994;-0.05619959905743599
01:00:0A:00:00:00:00;1722613975;02/08/24;15:52:55;0.913;0.121;-0.457;0.004886921960860491;0.040317103266716;0.22602014243602753
01:00:0A:00:00:00:00;1722613976;02/08/24;15:52:56;0.935;0.037;-0.362;0.05619959905743599;0.1062905490398407;0.013439035043120384
01:00:0A:00:00:00:00;1722613977;02/08/24;15:52:57;0.784;0.295;-0.403;-0.6658430695533752;-0.2871066629886627;-0.6035348773002625
01:00:0A:00:00:00:00;1722613978;02/08/24;15:52:58;0.187;0.565;-0.879;0.4398229718208313;-0.3066543638706207;-0.1514945775270462
01:00:0A:00:00:00:00;1722613979;02/08/24;15:52:59;0.095;0.429;-0.855;0.07696902006864548;-0.1258382350206375;-0.06352998316287994
01:00:0A:00:00:00:00;1722613980;02/08/24;15:53:00;0.422;0.397;-0.596;0.5290092825889587;0.4031710624694824;0.37629297375679016
01:00:0A:00:00:00:00;1722613981;02/08/24;15:53:01;0.516;0.508;-0.694;-0.009773843921720982;0.20891590416431427;-0.17592918872833252
01:00:0A:00:00:00:00;1722613982;02/08/24;15:53:02;0.516;0.461;-0.76;0.02687807008624077;-0.1319468915462494;-0.161268413066864
01:00:0A:00:00:00:00;1722613983;02/08/24;15:53:03;0.533;0.442;-0.703;0.05253440886735916;0.030543262138962746;0.07330382615327835
01:00:0A:00:00:00:00;1722613984;02/08/24;15:53:04;0.643;0.33;-0.762;0.26511549949645996;0.0012217304902151227;0.1258382350206375
01:00:0A:00:00:00:00;1722613985;02/08/24;15:53:05;0.891;-0.111;-0.275;0.5155702233314514;0.740368664264679;0.07819075137376785
01:00:0A:00:00:00:00;1722613986;02/08/24;15:53:06;0.968;-0.144;-0.298;0.08918632566928864;0.006108652334660292;-0.1062905490398407
01:00:0A:00:00:00:00;1722613987;02/08/24;15:53:07;0.997;-0.077;-0.328;0.0073303827084600925;-0.014660765416920185;-0.024434609338641167
01:00:0A:00:00:00:00;1722613988;02/08/24;15:53:08;0.948;-0.158;-0.309;0.0024434609804302454;-0.03298672288656235;0.009773843921720982
01:00:0A:00:00:00:00;1722613989;02/08/24;15:53:09;0.967;-0.218;-0.344;-0.009773843921720982;-0.02321287989616394;0.09285151958465576
01:00:0A:00:00:00:00;1722613990;02/08/24;15:53:10;0.995;-0.043;-0.125;0.059864792972803116;0.12095131725072861;0.1111774742603302
01:00:0A:00:00:00:00;1722613991;02/08/24;15:53:11;0.998;-0.084;-0.155;0.10506881773471832;-0.019547687843441963;-0.0354301817715168
01:00:0A:00:00:00:00;1722613992;02/08/24;15:53:12;0.994;0.0;-0.131;0.04398229718208313;-0.004886921960860491;-0.006108652334660292
01:00:0A:00:00:00:00;1722613993;02/08/24;15:53:13;0.976;-0.19;-0.198;0.11850785464048386;-0.18325956165790558;0.12461651116609573
01:00:0A:00:00:00:00;1722613994;02/08/24;15:53:14;0.795;-0.394;-0.366;1.2034045457839966;-1.0299187898635864;0.29565879702568054
01:00:0A:00:00:00:00;1722613995;02/08/24;15:53:15;0.004;-0.617;-0.836;-0.5742133259773254;0.8381071090698242;-0.009773843921720982
01:00:0A:00:00:00:00;1722613996;02/08/24;15:53:16;0.487;-0.68;-0.471;0.05864306166768074;0.1062905490398407;0.013439035043120384
01:00:0A:00:00:00:00;1722613997;02/08/24;15:53:17;0.682;-0.703;-0.558;0.2895500957965851;-0.004886921960860491;-0.12950342893600464
01:00:0A:00:00:00:00;1722613998;02/08/24;15:53:18;0.657;-0.595;-0.442;0.03176499158143997;-0.02321287989616394;-0.06475171446800232
01:00:0A:00:00:00:00;1722613999;02/08/24;15:53:19;0.619;-0.815;-0.652;0.3787364363670349;-0.436157763004303;0.2724458873271942
01:00:0A:00:00:00:00;1722614000;02/08/24;15:53:20;0.886;-0.806;0.092;0.24923302233219147;0.3176499307155609;-0.23945917189121246
01:00:0A:00:00:00:00;1722614001;02/08/24;15:53:21;0.894;-0.082;0.113;0.17837265133857727;-0.06230825558304787;-0.23457224667072296
01:00:0A:00:00:00:00;1722614002;02/08/24;15:53:22;0.992;-0.037;0.172;0.28588491678237915;0.09529497474431992;-0.4056144952774048
01:00:0A:00:00:00:00;1722614003;02/08/24;15:53:23;1.07;-0.224;0.173;-0.7183775305747986;0.2565633952617645;-0.22357667982578278
01:00:0A:00:00:00:00;1722614004;02/08/24;15:53:24;1.001;-0.178;0.206;0.31154125928878784;-0.17348572611808777;0.24434609711170197
01:00:0A:00:00:00:00;1722614005;02/08/24;15:53:25;1.003;-0.298;0.207;0.01710422709584236;-0.080634206533432;-0.015882495790719986
01:00:0A:00:00:00:00;1722614006;02/08/24;15:53:26;0.972;-0.093;0.248;-0.12950342893600464;0.14782939851284027;0.025656338781118393
01:00:0A:00:00:00:00;1722614007;02/08/24;15:53:27;1.026;-0.197;0.19;-0.4080579876899719;0.11972958594560623;0.1576032191514969
01:00:0A:00:00:00:00;1722614008;02/08/24;15:53:28;0.947;-0.137;0.332;0.1869247555732727;0.0036651913542300463;0.06963863223791122
01:00:0A:00:00:00:00;1722614009;02/08/24;15:53:29;0.998;-0.291;0.189;-0.05619959905743599;0.10873401165008545;0.039095375686883926
01:00:0A:00:00:00:00;1722614010;02/08/24;15:53:30;0.954;-0.171;0.302;0.059864792972803116;0.0024434609804302454;-0.036651913076639175
01:00:0A:00:00:00:00;1722614011;02/08/24;15:53:31;1.0;-0.219;0.352;0.0708603635430336;0.14049901068210602;0.021991148591041565
01:00:0A:00:00:00:00;1722614012;02/08/24;15:53:32;0.987;-0.18;0.285;0.03176499158143997;-0.02076941914856434;0.0012217304902151227
01:00:0A:00:00:00:00;1722614013;02/08/24;15:53:33;0.909;-0.138;0.324;0.5839871764183044;-0.036651913076639175;-0.018325956538319588
01:00:0A:00:00:00:00;1722614014;02/08/24;15:53:34;0.931;-0.145;0.325;-0.09285151958465576;-0.00855211354792118;-0.025656338781118393
01:00:0A:00:00:00:00;1722614015;02/08/24;15:53:35;0.956;-0.176;0.325;-0.02687807008624077;0.040317103266716;-0.030543262138962746
01:00:0A:00:00:00:00;1722614016;02/08/24;15:53:36;1.023;-0.211;0.17;1.5222761631011963;-0.3897320330142975;0.6377432942390442
01:00:0A:00:00:00:00;1722614017;02/08/24;15:53:37;1.043;-0.031;0.049;-0.14049901068210602;-0.06352998316287994;0.16371189057826996
01:00:0A:00:00:00:00;1722614018;02/08/24;15:53:38;0.95;0.037;-0.09;-0.6609562039375305;0.2822197377681732;-0.024434609338641167
01:00:0A:00:00:00:00;1722614019;02/08/24;15:53:39;1.151;-0.019;0.217;0.5009095072746277;0.2565633952617645;0.39828410744667053
01:00:0A:00:00:00:00;1722614020;02/08/24;15:53:40;1.02;0.022;0.101;-0.012217304669320583;0.036651913076639175;0.019547687843441963
01:00:0A:00:00:00:00;1722614021;02/08/24;15:53:41;1.015;-0.019;0.091;0.009773843921720982;-0.03787364438176155;0.03298672288656235
01:00:0A:00:00:00:00;1722614022;02/08/24;15:53:42;1.014;-0.005;0.11;0.0036651913542300463;0.004886921960860491;-0.0354301817715168
01:00:0A:00:00:00:00;1722614023;02/08/24;15:53:43;1.016;0.01;0.095;-0.010995574295520782;-0.0073303827084600925;-0.0073303827084600925
01:00:0A:00:00:00:00;1722614024;02/08/24;15:53:44;1.014;0.0;0.11;0.0024434609804302454;0.0073303827084600925;0.00855211354792118
01:00:0A:00:00:00:00;1722614025;02/08/24;15:53:45;1.01;0.0;0.156;-0.07208210229873657;0.05253440886735916;0.04886921867728233
01:00:0A:00:00:00:00;1722614026;02/08/24;15:53:46;1.014;0.0;0.109;0.006108652334660292;-0.00855211354792118;-0.018325956538319588
01:00:0A:00:00:00:00;1722614027;02/08/24;15:53:47;1.016;-0.007;0.105;0.0;0.0036651913542300463;-0.0354301817715168
01:00:0A:00:00:00:00;1722614028;02/08/24;15:53:48;1.014;-0.002;0.114;0.042760565876960754;-0.03176499158143997;0.013439035043120384
01:00:0A:00:00:00:00;1722614029;02/08/24;15:53:49;1.013;0.0;0.12;-0.009773843921720982;0.0036651913542300463;0.012217304669320583
01:00:0A:00:00:00:00;1722614030;02/08/24;15:53:50;1.016;-0.01;0.105;0.025656338781118393;-0.012217304669320583;-0.0073303827084600925
01:00:0A:00:00:00:00;1722614031;02/08/24;15:53:51;1.013;-0.008;0.146;0.009773843921720982;0.09529497474431992;-0.036651913076639175
01:00:0A:00:00:00:00;1722614032;02/08/24;15:53:52;1.014;0.01;0.108;0.015882495790719986;0.006108652334660292;-0.024434609338641167
01:00:0A:00:00:00:00;1722614033;02/08/24;15:53:53;1.013;0.005;0.11;-0.013439035043120384;0.0024434609804302454;0.010995574295520782
01:00:0A:00:00:00:00;1722614034;02/08/24;15:53:54;1.014;-0.014;0.126;-0.06352998316287994;0.04153883829712868;0.11728612333536148
01:00:0A:00:00:00:00;1722614035;02/08/24;15:53:55;1.011;0.011;0.125;0.0757472887635231;-0.045204028487205505;-0.04764748737215996
01:00:0A:00:00:00:00;1722614036;02/08/24;15:53:56;1.016;-0.008;0.117;0.004886921960860491;-0.0012217304902151227;0.013439035043120384
01:00:0A:00:00:00:00;1722614037;02/08/24;15:53:57;1.014;0.019;0.095;-0.0024434609804302454;-0.013439035043120384;0.024434609338641167
01:00:0A:00:00:00:00;1722614038;02/08/24;15:53:58;1.016;-0.004;0.09;-0.018325956538319588;-0.05253440886735916;0.02076941914856434
01:00:0A:00:00:00:00;1722614039;02/08/24;15:53:59;1.018;-0.081;0.059;-0.2822197377681732;0.09162978082895279;0.0708603635430336
01:00:0A:00:00:00:00;1722614040;02/08/24;15:54:00;1.017;0.002;0.026;-0.03420845419168472;-0.036651913076639175;0.009773843921720982
01:00:0A:00:00:00:00;1722614041;02/08/24;15:54:01;1.009;-0.076;0.207;-0.40683624148368835;0.35674530267715454;0.13072516024112701
01:00:0A:00:00:00:00;1722614042;02/08/24;15:54:02;1.013;0.038;-0.005;0.28099802136421204;-0.2382374405860901;-0.10018189996480942
01:00:0A:00:00:00:00;1722614043;02/08/24;15:54:03;1.016;-0.024;0.103;0.0036651913542300463;-0.004886921960860491;0.0
01:00:0A:00:00:00:00;1722614044;02/08/24;15:54:04;1.015;-0.028;0.102;0.004886921960860491;-0.0012217304902151227;0.0
01:00:0A:00:00:00:00;1722614045;02/08/24;15:54:05;1.015;-0.025;0.102;0.004886921960860491;-0.0012217304902151227;-0.0024434609804302454
01:00:0A:00:00:00:00;1722614046;02/08/24;15:54:06;1.015;-0.035;0.104;0.004886921960860491;0.0012217304902151227;0.009773843921720982
01:00:0A:00:00:00:00;1722614047;02/08/24;15:54:07;1.016;-0.034;0.097;0.004886921960860491;-0.00855211354792118;0.0
01:00:0A:00:00:00:00;1722614048;02/08/24;15:54:08;1.016;-0.024;0.089;0.00855211354792118;-0.01710422709584236;-0.004886921960860491
01:00:0A:00:00:00:00;1722614049;02/08/24;15:54:09;1.015;-0.03;0.101;0.0073303827084600925;-0.006108652334660292;0.0024434609804302454
01:00:0A:00:00:00:00;1722614050;02/08/24;15:54:10;1.016;-0.027;0.104;0.0036651913542300463;0.0036651913542300463;-0.006108652334660292
01:00:0A:00:00:00:00;1722614051;02/08/24;15:54:11;1.015;-0.025;0.102;0.006108652334660292;-0.006108652334660292;-0.0024434609804302454
01:00:0A:00:00:00:00;1722614052;02/08/24;15:54:12;1.016;-0.034;0.102;0.004886921960860491;-0.0024434609804302454;0.0
01:00:0A:00:00:00:00;1722614053;02/08/24;15:54:13;1.015;-0.032;0.103;0.0073303827084600925;0.0;-0.0012217304902151227
01:00:0A:00:00:00:00;1722614054;02/08/24;15:54:14;1.015;-0.04;0.104;0.0036651913542300463;0.0024434609804302454;0.006108652334660292
01:00:0A:00:00:00:00;1722614055;02/08/24;15:54:15;1.014;-0.034;0.108;0.0036651913542300463;0.019547687843441963;-0.009773843921720982
01:00:0A:00:00:00:00;1722614056;02/08/24;15:54:16;1.015;-0.051;0.108;0.0012217304902151227;0.004886921960860491;-0.0024434609804302454
01:00:0A:00:00:00:00;1722614057;02/08/24;15:54:17;1.015;-0.054;0.119;-0.0024434609804302454;-0.024434609338641167;-0.006108652334660292
01:00:0A:00:00:00:00;1722614058;02/08/24;15:54:18;1.016;-0.041;0.093;0.02932153083384037;-0.0073303827084600925;0.03298672288656235
01:00:0A:00:00:00:00;1722614059;02/08/24;15:54:19;1.015;-0.028;0.105;0.006108652334660292;0.0;-0.0024434609804302454
01:00:0A:00:00:00:00;1722614060;02/08/24;15:54:20;1.015;-0.029;0.098;0.006108652334660292;0.0036651913542300463;0.006108652334660292
01:00:0A:00:00:00:00;1722614061;02/08/24;15:54:21;1.016;-0.037;0.101;0.0073303827084600925;-0.004886921960860491;0.012217304669320583
01:00:0A:00:00:00:00;1722614062;02/08/24;15:54:22;1.014;-0.023;0.111;-0.025656338781118393;0.025656338781118393;0.0
01:00:0A:00:00:00:00;1722614063;02/08/24;15:54:23;1.015;-0.029;0.098;0.0036651913542300463;-0.00855211354792118;0.0012217304902151227
01:00:0A:00:00:00:00;1722614064;02/08/24;15:54:24;1.016;-0.026;0.082;-0.0036651913542300463;-0.02687807008624077;0.0073303827084600925
01:00:0A:00:00:00:00;1722614065;02/08/24;15:54:25;1.015;-0.028;0.105;0.0073303827084600925;0.0073303827084600925;-0.012217304669320583
01:00:0A:00:00:00:00;1722614066;02/08/24;15:54:26;1.015;-0.029;0.116;0.018325956538319588;-0.00855211354792118;0.0073303827084600925
01:00:0A:00:00:00:00;1722614067;02/08/24;15:54:27;1.016;-0.021;0.109;0.0073303827084600925;0.0036651913542300463;-0.0073303827084600925
01:00:0A:00:00:00:00;1722614068;02/08/24;15:54:28;1.016;-0.032;0.1;0.006108652334660292;-0.004886921960860491;0.0
01:00:0A:00:00:00:00;1722614069;02/08/24;15:54:29;1.015;-0.025;0.103;0.006108652334660292;0.006108652334660292;-0.010995574295520782
01:00:0A:00:00:00:00;1722614070;02/08/24;15:54:30;1.015;-0.047;0.114;0.0;0.013439035043120384;0.0036651913542300463
01:00:0A:00:00:00:00;1722614071;02/08/24;15:54:31;1.014;-0.023;0.106;0.0;-0.006108652334660292;-0.0012217304902151227
01:00:0A:00:00:00:00;1722614072;02/08/24;15:54:32;1.015;-0.031;0.108;0.009773843921720982;0.006108652334660292;0.012217304669320583
01:00:0A:00:00:00:00;1722614073;02/08/24;15:54:33;1.013;-0.02;0.103;-0.05253440886735916;-0.018325956538319588;0.0012217304902151227
01:00:0A:00:00:00:00;1722614074;02/08/24;15:54:34;1.014;-0.034;0.119;-0.039095375686883926;0.04398229718208313;-0.02321287989616394
01:00:0A:00:00:00:00;1722614075;02/08/24;15:54:35;1.016;-0.088;0.104;-0.080634206533432;-0.06475171446800232;-0.0073303827084600925
01:00:0A:00:00:00:00;1722614076;02/08/24;15:54:36;1.016;-0.036;0.087;0.08307767659425735;0.013439035043120384;0.012217304669320583
01:00:0A:00:00:00:00;1722614077;02/08/24;15:54:37;1.004;-0.091;0.195;0.22602014243602753;-0.1160643920302391;-0.05864306166768074
01:00:0A:00:00:00:00;1722614078;02/08/24;15:54:38;1.016;-0.038;0.079;0.015882495790719986;-0.024434609338641167;0.0024434609804302454
01:00:0A:00:00:00:00;1722614079;02/08/24;15:54:39;1.016;-0.032;0.096;0.0073303827084600925;0.004886921960860491;-0.004886921960860491
01:00:0A:00:00:00:00;1722614080;02/08/24;15:54:40;1.016;-0.04;0.091;0.0036651913542300463;0.004886921960860491;-0.0012217304902151227
01:00:0A:00:00:00:00;1722614081;02/08/24;15:54:41;1.016;-0.067;0.067;0.00855211354792118;-0.021991148591041565;0.019547687843441963
01:00:0A:00:00:00:00;1722614082;02/08/24;15:54:42;1.016;-0.044;0.09;0.03176499158143997;-0.010995574295520782;-0.0024434609804302454
01:00:0A:00:00:00:00;1722614083;02/08/24;15:54:43;1.016;-0.036;0.105;0.004886921960860491;0.02932153083384037;-0.00855211354792118
01:00:0A:00:00:00:00;1722614084;02/08/24;15:54:44;1.015;-0.033;0.097;0.0;-0.00855211354792118;0.012217304669320583
01:00:0A:00:00:00:00;1722614085;02/08/24;15:54:45;1.016;-0.037;0.103;0.0024434609804302454;-0.013439035043120384;0.014660765416920185
01:00:0A:00:00:00:00;1722614086;02/08/24;15:54:46;1.015;-0.039;0.097;0.0036651913542300463;0.004886921960860491;0.0024434609804302454
01:00:0A:00:00:00:00;1722614087;02/08/24;15:54:47;1.016;-0.036;0.095;0.010995574295520782;0.0012217304902151227;0.0012217304902151227
01:00:0A:00:00:00:00;1722614088;02/08/24;15:54:48;1.016;-0.006;0.063;-0.13805554807186127;-0.06963863223791122;-0.013439035043120384
01:00:0A:00:00:00:00;1722614089;02/08/24;15:54:49;1.015;-0.065;0.098;-0.14416420459747314;-0.02321287989616394;0.025656338781118393
01:00:0A:00:00:00:00;1722614090;02/08/24;15:54:50;1.015;-0.04;0.111;0.0073303827084600925;0.01710422709584236;0.0036651913542300463
01:00:0A:00:00:00:00;1722614091;02/08/24;15:54:51;1.015;-0.031;0.095;-0.013439035043120384;-0.004886921960860491;0.0024434609804302454
01:00:0A:00:00:00:00;1722614092;02/08/24;15:54:52;1.016;-0.033;0.095;0.009773843921720982;-0.015882495790719986;0.0073303827084600925
01:00:0A:00:00:00:00;1722614093;02/08/24;15:54:53;1.016;-0.034;0.096;0.0073303827084600925;-0.012217304669320583;0.0073303827084600925
01:00:0A:00:00:00:00;1722614094;02/08/24;15:54:54;1.015;-0.036;0.092;0.00855211354792118;-0.013439035043120384;0.004886921960860491
01:00:0A:00:00:00:00;1722614095;02/08/24;15:54:55;1.016;-0.033;0.093;0.006108652334660292;-0.009773843921720982;0.004886921960860491
01:00:0A:00:00:00:00;1722614096;02/08/24;15:54:56;1.016;-0.033;0.09;0.00855211354792118;-0.02076941914856434;0.00855211354792118
01:00:0A:00:00:00:00;1722614097;02/08/24;15:54:57;1.015;-0.034;0.085;0.0012217304902151227;0.0024434609804302454;-0.006108652334660292
01:00:0A:00:00:00:00;1722614098;02/08/24;15:54:58;1.016;-0.028;0.1;0.006108652334660292;-0.00855211354792118;0.0036651913542300463
01:00:0A:00:00:00:00;1722614099;02/08/24;15:54:59;1.016;-0.034;0.093;0.0073303827084600925;-0.02321287989616394;0.010995574295520782
01:00:0A:00:00:00:00;1722614100;02/08/24;15:55:00;1.016;-0.028;0.1;0.004886921960860491;0.0024434609804302454;-0.0036651913542300463
01:00:0A:00:00:00:00;1722614101;02/08/24;15:55:01;1.016;-0.033;0.092;0.00855211354792118;-0.010995574295520782;0.004886921960860491
01:00:0A:00:00:00:00;1722614102;02/08/24;15:55:02;1.016;-0.032;0.09;0.004886921960860491;0.0012217304902151227;-0.0036651913542300463
01:00:0A:00:00:00:00;1722614103;02/08/24;15:55:03;1.015;-0.032;0.096;0.006108652334660292;-0.004886921960860491;0.0024434609804302454
01:00:0A:00:00:00:00;1722614104;02/08/24;15:55:04;1.015;-0.035;0.094;0.00855211354792118;-0.00855211354792118;0.0036651913542300463
01:00:0A:00:00:00:00;1722614105;02/08/24;15:55:05;1.015;-0.024;0.104;-0.0012217304902151227;-0.0012217304902151227;-0.006108652334660292
01:00:0A:00:00:00:00;1722614106;02/08/24;15:55:06;1.016;-0.033;0.09;-0.019547687843441963;0.006108652334660292;-0.010995574295520782
01:00:0A:00:00:00:00;1722614107;02/08/24;15:55:07;1.016;-0.04;0.142;0.004886921960860491;-0.030543262138962746;0.006108652334660292
01:00:0A:00:00:00:00;1722614108;02/08/24;15:55:08;1.013;0.047;0.019;0.16249015927314758;-0.22357667982578278;-0.04764748737215996
01:00:0A:00:00:00:00;1722614109;02/08/24;15:55:09;1.01;0.06;0.085;0.1270599663257599;-0.0757472887635231;-0.1514945775270462
01:00:0A:00:00:00:00;1722614110;02/08/24;15:55:10;1.017;-0.064;0.074;0.10262535512447357;-0.06108652427792549;0.05619959905743599
01:00:0A:00:00:00:00;1722614111;02/08/24;15:55:11;1.015;-0.019;0.109;0.006108652334660292;-0.0012217304902151227;-0.004886921960860491
01:00:0A:00:00:00:00;1722614112;02/08/24;15:55:12;1.015;-0.027;0.102;0.006108652334660292;-0.004886921960860491;0.0024434609804302454
01:00:0A:00:00:00:00;1722614113;02/08/24;15:55:13;1.017;-0.046;0.089;0.006108652334660292;-0.010995574295520782;0.00855211354792118
01:00:0A:00:00:00:00;1722614114;02/08/24;15:55:14;1.016;-0.034;0.099;0.006108652334660292;-0.0073303827084600925;0.006108652334660292
01:00:0A:00:00:00:00;1722614115;02/08/24;15:55:15;1.015;-0.026;0.103;0.006108652334660292;-0.0024434609804302454;-0.0012217304902151227
01:00:0A:00:00:00:00;1722614116;02/08/24;15:55:16;1.015;-0.028;0.103;0.006108652334660292;-0.0024434609804302454;-0.0012217304902151227
01:00:0A:00:00:00:00;1722614117;02/08/24;15:55:17;1.016;-0.027;0.103;0.006108652334660292;-0.0024434609804302454;0.0
01:00:0A:00:00:00:00;1722614118;02/08/24;15:55:18;1.014;-0.027;0.103;0.006108652334660292;-0.0036651913542300463;0.0
01:00:0A:00:00:00:00;1722614119;02/08/24;15:55:19;1.015;-0.028;0.101;0.006108652334660292;-0.0036651913542300463;0.0012217304902151227
01:00:0A:00:00:00:00;1722614120;02/08/24;15:55:20;1.015;-0.026;0.103;0.006108652334660292;-0.0036651913542300463;0.0
01:00:0A:00:00:00:00;1722614121;02/08/24;15:55:21;1.015;-0.028;0.103;0.006108652334660292;-0.0036651913542300463;0.0
01:00:0A:00:00:00:00;1722614122;02/08/24;15:55:22;1.016;-0.037;0.1;0.006108652334660292;-0.0036651913542300463;0.004886921960860491
01:00:0A:00:00:00:00;1722614123;02/08/24;15:55:23;1.01;0.058;0.077;0.14538592100143433;-0.05009094998240471;-0.08552113175392151
01:00:0A:00:00:00:00;1722614124;02/08/24;15:55:24;1.009;0.021;0.014;-0.07330382615327835;-0.03420845419168472;0.12461651116609573
01:00:0A:00:00:00:00;1722614125;02/08/24;15:55:25;1.019;-0.038;0.084;0.4911356568336487;0.18936821818351746;0.08307767659425735
01:00:0A:00:00:00:00;1722614126;02/08/24;15:55:26;1.017;-0.035;0.06;0.47769662737846375;-0.15271630883216858;0.20036379992961884
01:00:0A:00:00:00:00;1722614127;02/08/24;15:55:27;1.018;-0.092;0.064;0.2993239760398865;-0.040317103266716;0.08185594528913498
01:00:0A:00:00:00:00;1722614128;02/08/24;15:55:28;1.01;0.017;0.139;0.0073303827084600925;0.036651913076639175;-0.05253440886735916
01:00:0A:00:00:00:00;1722614129;02/08/24;15:55:29;1.015;-0.027;0.121;-0.05619959905743599;0.05009094998240471;-0.03298672288656235
01:00:0A:00:00:00:00;1722614130;02/08/24;15:55:30;1.016;-0.026;0.1;0.0012217304902151227;-0.015882495790719986;-0.015882495790719986
01:00:0A:00:00:00:00;1722614131;02/08/24;15:55:31;1.017;-0.038;0.057;0.013439035043120384;-0.02321287989616394;-0.0024434609804302454
01:00:0A:00:00:00:00;1722614132;02/08/24;15:55:32;1.042;-0.024;0.073;-0.013439035043120384;-0.05375614017248154;0.1014036238193512
01:00:0A:00:00:00:00;1722614133;02/08/24;15:55:33;1.025;0.002;0.061;-0.17470745742321014;0.021991148591041565;-0.025656338781118393
01:00:0A:00:00:00:00;1722614134;02/08/24;15:55:34;0.99;-0.226;-0.067;0.3078760802745819;-0.3579670488834381;0.22357667982578278
01:00:0A:00:00:00:00;1722614135;02/08/24;15:55:35;1.007;-0.117;0.01;-0.030543262138962746;0.33108896017074585;-0.2687807083129883
01:00:0A:00:00:00:00;1722614136;02/08/24;15:55:36;1.015;-0.031;0.098;0.0073303827084600925;0.0012217304902151227;-0.004886921960860491
01:00:0A:00:00:00:00;1722614137;02/08/24;15:55:37;1.014;-0.012;0.119;0.006108652334660292;0.0;-0.004886921960860491
01:00:0A:00:00:00:00;1722614138;02/08/24;15:55:38;1.014;-0.018;0.114;0.02932153083384037;-0.014660765416920185;0.010995574295520782
01:00:0A:00:00:00:00;1722614139;02/08/24;15:55:39;1.014;-0.014;0.12;0.27000245451927185;0.012217304669320583;0.015882495790719986
01:00:0A:00:00:00:00;1722614140;02/08/24;15:55:40;1.016;-0.017;0.124;0.0;0.006108652334660292;-0.02076941914856434
01:00:0A:00:00:00:00;1722614141;02/08/24;15:55:41;1.017;-0.046;0.112;0.012217304669320583;-0.025656338781118393;0.13439035415649414
01:00:0A:00:00:00:00;1722614142;02/08/24;15:55:42;1.004;-0.066;0.207;0.4190535545349121;0.17348572611808777;0.19792033731937408
01:00:0A:00:00:00:00;1722614143;02/08/24;15:55:43;0.986;-0.147;0.24;-0.03298672288656235;-0.015882495790719986;0.042760565876960754
01:00:0A:00:00:00:00;1722614144;02/08/24;15:55:44;0.996;-0.119;0.222;-0.1319468915462494;-0.0659734457731247;-0.08185594528913498
01:00:0A:00:00:00:00;1722614145;02/08/24;15:55:45;0.997;-0.117;0.203;-0.014660765416920185;-0.010995574295520782;-0.0012217304902151227
01:00:0A:00:00:00:00;1722614146;02/08/24;15:55:46;0.998;-0.141;0.181;0.039095375686883926;0.004886921960860491;0.030543262138962746
01:00:0A:00:00:00:00;1722614150;02/08/24;15:55:50;0.61;-0.02;0.3;-2.6120598316192627;-16.216028213500977;21.533000946044922
01:00:0A:00:00:00:00;1722614150;02/08/24;15:55:50;1.014;-0.001;0.136;0.009773843921720982;0.03298672288656235;-0.04886921867728233
01:00:0A:00:00:00:00;1722614151;02/08/24;15:55:51;1.013;0.012;0.116;0.0073303827084600925;-0.0012217304902151227;-0.010995574295520782
01:00:0A:00:00:00:00;1722614152;02/08/24;15:55:52;1.014;0.003;0.115;0.006108652334660292;-0.0024434609804302454;0.0
01:00:0A:00:00:00:00;1722614153;02/08/24;15:55:53;1.015;0.005;0.115;0.006108652334660292;-0.0036651913542300463;0.0024434609804302454
01:00:0A:00:00:00:00;1722614154;02/08/24;15:55:54;1.015;0.004;0.114;0.006108652334660292;-0.0024434609804302454;0.0012217304902151227
01:00:0A:00:00:00:00;1722614155;02/08/24;15:55:55;1.015;0.004;0.115;0.006108652334660292;-0.0036651913542300463;0.0012217304902151227
01:00:0A:00:00:00:00;1722614156;02/08/24;15:55:56;1.016;0.004;0.114;0.006108652334660292;-0.0036651913542300463;0.0012217304902151227
01:00:0A:00:00:00:00;1722614157;02/08/24;15:55:57;1.014;0.005;0.115;0.006108652334660292;-0.0036651913542300463;0.0012217304902151227
01:00:0A:00:00:00:00;1722614158;02/08/24;15:55:58;1.015;0.004;0.115;0.006108652334660292;-0.0036651913542300463;0.0012217304902151227
01:00:0A:00:00:00:00;1722614159;02/08/24;15:55:59;1.014;0.004;0.114;0.006108652334660292;-0.0036651913542300463;0.0012217304902151227
01:00:0A:00:00:00:00;1722614160;02/08/24;15:56:00;1.014;0.004;0.113;0.006108652334660292;-0.0036651913542300463;0.0012217304902151227
01:00:0A:00:00:00:00;1722614161;02/08/24;15:56:01;1.014;0.005;0.115;0.006108652334660292;-0.0036651913542300463;0.0012217304902151227
01:00:0A:00:00:00:00;1722614162;02/08/24;15:56:02;1.016;0.005;0.114;0.006108652334660292;-0.0036651913542300463;0.0012217304902151227
01:00:0A:00:00:00:00;1722614163;02/08/24;15:56:03;1.015;0.005;0.114;0.006108652334660292;-0.0036651913542300463;0.0012217304902151227
01:00:0A:00:00:00:00;1722614164;02/08/24;15:56:04;1.014;0.005;0.115;0.006108652334660292;-0.0024434609804302454;0.0012217304902151227
01:00:0A:00:00:00:00;1722614165;02/08/24;15:56:05;1.014;0.004;0.114;0.006108652334660292;-0.0024434609804302454;0.0012217304902151227
01:00:0A:00:00:00:00;1722614166;02/08/24;15:56:06;1.014;0.004;0.115;0.006108652334660292;-0.0036651913542300463;0.0012217304902151227
01:00:0A:00:00:00:00;1722614167;02/08/24;15:56:07;1.013;0.004;0.114;0.006108652334660292;-0.0036651913542300463;0.0
01:00:0A:00:00:00:00;1722614168;02/08/24;15:56:08;1.014;0.005;0.115;0.006108652334660292;-0.0036651913542300463;0.0012217304902151227
01:00:0A:00:00:00:00;1722614169;02/08/24;15:56:09;1.013;0.005;0.114;0.006108652334660292;-0.0036651913542300463;0.0012217304902151227
01:00:0A:00:00:00:00;1722614170;02/08/24;15:56:10;1.014;0.005;0.114;0.006108652334660292;-0.0036651913542300463;0.0012217304902151227
01:00:0A:00:00:00:00;1722614171;02/08/24;15:56:11;1.014;0.004;0.115;0.006108652334660292;-0.0024434609804302454;0.0012217304902151227
01:00:0A:00:00:00:00;1722614172;02/08/24;15:56:12;1.014;0.005;0.115;0.006108652334660292;-0.0036651913542300463;0.0012217304902151227
01:00:0A:00:00:00:00;1722614173;02/08/24;15:56:13;1.014;0.005;0.114;0.006108652334660292;-0.0036651913542300463;0.0012217304902151227
01:00:0A:00:00:00:00;1722614174;02/08/24;15:56:14;1.015;0.004;0.115;0.006108652334660292;-0.0036651913542300463;0.0012217304902151227
01:00:0A:00:00:00:00;1722614175;02/08/24;15:56:15;1.014;0.004;0.115;0.006108652334660292;-0.0024434609804302454;0.0012217304902151227
01:00:0A:00:00:00:00;1722614176;02/08/24;15:56:16;1.014;0.004;0.114;0.006108652334660292;-0.0036651913542300463;0.0012217304902151227
01:00:0A:00:00:00:00;1722614177;02/08/24;15:56:17;1.014;0.005;0.114;0.006108652334660292;-0.0024434609804302454;0.0
01:00:0A:00:00:00:00;1722614178;02/08/24;15:56:18;1.014;0.004;0.114;0.006108652334660292;-0.0036651913542300463;0.0012217304902151227
01:00:0A:00:00:00:00;1722614179;02/08/24;15:56:19;1.015;0.005;0.114;0.006108652334660292;-0.0036651913542300463;0.0012217304902151227
01:00:0A:00:00:00:00;1722614180;02/08/24;15:56:20;1.014;0.004;0.114;0.006108652334660292;-0.0036651913542300463;0.0012217304902151227
01:00:0A:00:00:00:00;1722614181;02/08/24;15:56:21;1.014;0.004;0.115;0.006108652334660292;-0.0024434609804302454;0.0012217304902151227
01:00:0A:00:00:00:00;1722614182;02/08/24;15:56:22;1.014;0.004;0.114;0.006108652334660292;-0.0036651913542300463;0.0012217304902151227
01:00:0A:00:00:00:00;1722614183;02/08/24;15:56:23;1.013;0.004;0.114;0.006108652334660292;-0.0036651913542300463;0.0012217304902151227
01:00:0A:00:00:00:00;1722614184;02/08/24;15:56:24;1.014;0.005;0.115;0.006108652334660292;-0.0036651913542300463;0.0
01:00:0A:00:00:00:00;1722614185;02/08/24;15:56:25;1.015;0.004;0.114;0.006108652334660292;-0.0036651913542300463;0.0012217304902151227
01:00:0A:00:00:00:00;1722614186;02/08/24;15:56:26;1.015;0.005;0.112;0.006108652334660292;-0.0036651913542300463;0.0012217304902151227
01:00:0A:00:00:00:00;1722614187;02/08/24;15:56:27;1.015;0.005;0.115;0.006108652334660292;-0.0036651913542300463;0.0012217304902151227
01:00:0A:00:00:00:00;1722614188;02/08/24;15:56:28;1.014;0.005;0.115;0.006108652334660292;-0.0036651913542300463;0.0012217304902151227
01:00:0A:00:00:00:00;1722614189;02/08/24;15:56:29;1.013;0.005;0.115;0.006108652334660292;-0.0036651913542300463;0.0012217304902151227
01:00:0A:00:00:00:00;1722614190;02/08/24;15:56:30;1.014;0.003;0.115;0.0036651913542300463;-0.0073303827084600925;0.02076941914856434
01:00:0A:00:00:00:00;1722614191;02/08/24;15:56:31;1.016;0.006;0.115;0.006108652334660292;-0.0036651913542300463;0.004886921960860491
01:00:0A:00:00:00:00;1722614192;02/08/24;15:56:32;1.014;0.003;0.115;0.006108652334660292;-0.0036651913542300463;0.0024434609804302454
01:00:0A:00:00:00:00;1722614193;02/08/24;15:56:33;1.014;0.005;0.115;0.006108652334660292;-0.0036651913542300463;0.0012217304902151227
01:00:0A:00:00:00:00;1722614194;02/08/24;15:56:34;1.014;0.004;0.115;0.006108652334660292;-0.0036651913542300463;0.0012217304902151227
01:00:0A:00:00:00:00;1722614195;02/08/24;15:56:35;1.014;0.005;0.116;0.006108652334660292;-0.0036651913542300463;0.0012217304902151227
01:00:0A:00:00:00:00;1722614196;02/08/24;15:56:36;1.015;0.005;0.115;0.006108652334660292;-0.0036651913542300463;0.0012217304902151227
01:00:0A:00:00:00:00;1722614197;02/08/24;15:56:37;1.013;0.004;0.115;0.006108652334660292;-0.0036651913542300463;0.0012217304902151227
01:00:0A:00:00:00:00;1722614198;02/08/24;15:56:38;1.014;0.004;0.115;0.006108652334660292;-0.0036651913542300463;0.0012217304902151227
01:00:0A:00:00:00:00;1722614199;02/08/24;15:56:39;1.013;0.003;0.114;0.006108652334660292;-0.0024434609804302454;0.0012217304902151227
01:00:0A:00:00:00:00;1722614200;02/08/24;15:56:40;1.014;0.003;0.114;0.006108652334660292;-0.0036651913542300463;0.0012217304902151227
01:00:0A:00:00:00:00;1722614201;02/08/24;15:56:41;1.015;0.004;0.114;0.006108652334660292;-0.0036651913542300463;0.0012217304902151227
01:00:0A:00:00:00:00;1722614202;02/08/24;15:56:42;1.014;0.004;0.114;0.006108652334660292;-0.0036651913542300463;0.0012217304902151227
01:00:0A:00:00:00:00;1722614203;02/08/24;15:56:43;1.014;0.005;0.114;0.006108652334660292;-0.0036651913542300463;0.0012217304902151227
01:00:0A:00:00:00:00;1722614204;02/08/24;15:56:44;1.015;0.004;0.115;0.006108652334660292;-0.0024434609804302454;0.0012217304902151227
01:00:0A:00:00:00:00;1722614205;02/08/24;15:56:45;1.015;0.004;0.115;0.006108652334660292;-0.0036651913542300463;0.0012217304902151227
01:00:0A:00:00:00:00;1722614206;02/08/24;15:56:46;1.014;0.004;0.114;0.006108652334660292;-0.0036651913542300463;0.0012217304902151227
01:00:0A:00:00:00:00;1722614207;02/08/24;15:56:47;1.014;0.003;0.114;0.006108652334660292;-0.0036651913542300463;0.0012217304902151227
01:00:0A:00:00:00:00;1722614208;02/08/24;15:56:48;1.014;0.004;0.115;0.006108652334660292;-0.0036651913542300463;0.0012217304902151227
01:00:0A:00:00:00:00;1722614209;02/08/24;15:56:49;1.015;0.004;0.116;0.006108652334660292;-0.0036651913542300463;0.0012217304902151227
01:00:0A:00:00:00:00;1722614210;02/08/24;15:56:50;1.013;0.005;0.115;0.006108652334660292;-0.0024434609804302454;0.0012217304902151227
01:00:0A:00:00:00:00;1722614211;02/08/24;15:56:51;1.014;0.003;0.114;0.006108652334660292;-0.0036651913542300463;0.0012217304902151227
01:00:0A:00:00:00:00;1722614212;02/08/24;15:56:52;1.016;0.004;0.115;0.006108652334660292;-0.0036651913542300463;0.0012217304902151227
01:00:0A:00:00:00:00;1722614213;02/08/24;15:56:53;1.013;0.004;0.114;0.006108652334660292;-0.0036651913542300463;0.0012217304902151227
01:00:0A:00:00:00:00;1722614214;02/08/24;15:56:54;1.014;0.004;0.114;0.006108652334660292;-0.0036651913542300463;0.0012217304902151227
01:00:0A:00:00:00:00;1722614215;02/08/24;15:56:55;1.014;0.003;0.115;0.006108652334660292;-0.0036651913542300463;0.0012217304902151227
01:00:0A:00:00:00:00;1722614216;02/08/24;15:56:56;1.014;0.006;0.115;0.006108652334660292;-0.0036651913542300463;0.0012217304902151227
01:00:0A:00:00:00:00;1722614217;02/08/24;15:56:57;1.014;0.004;0.115;0.006108652334660292;-0.0036651913542300463;0.0012217304902151227
01:00:0A:00:00:00:00;1722614218;02/08/24;15:56:58;1.015;0.005;0.116;0.006108652334660292;-0.0036651913542300463;0.0012217304902151227
01:00:0A:00:00:00:00;1722614219;02/08/24;15:56:59;1.012;0.005;0.115;0.006108652334660292;-0.0024434609804302454;0.0012217304902151227
01:00:0A:00:00:00:00;1722614220;02/08/24;15:57:00;1.014;0.003;0.114;0.006108652334660292;-0.0036651913542300463;0.0012217304902151227
01:00:0A:00:00:00:00;1722614221;02/08/24;15:57:01;1.014;0.003;0.114;0.006108652334660292;-0.0036651913542300463;0.0
01:00:0A:00:00:00:00;1722614222;02/08/24;15:57:02;1.014;0.004;0.114;0.006108652334660292;-0.0036651913542300463;0.0012217304902151227
01:00:0A:00:00:00:00;1722614223;02/08/24;15:57:03;1.015;0.004;0.115;0.006108652334660292;-0.0036651913542300463;0.0012217304902151227
01:00:0A:00:00:00:00;1722614224;02/08/24;15:57:04;1.015;0.003;0.115;0.006108652334660292;-0.0036651913542300463;0.0012217304902151227
01:00:0A:00:00:00:00;1722614225;02/08/24;15:57:05;1.013;0.004;0.115;0.006108652334660292;-0.0024434609804302454;0.0012217304902151227
01:00:0A:00:00:00:00;1722614226;02/08/24;15:57:06;1.014;0.004;0.114;0.006108652334660292;-0.0036651913542300463;0.0012217304902151227
01:00:0A:00:00:00:00;1722614227;02/08/24;15:57:07;1.014;0.003;0.116;0.006108652334660292;-0.0036651913542300463;0.0012217304902151227
01:00:0A:00:00:00:00;1722614228;02/08/24;15:57:08;1.014;0.004;0.114;0.006108652334660292;-0.0036651913542300463;0.0
01:00:0A:00:00:00:00;1722614229;02/08/24;15:57:09;1.014;0.004;0.115;0.006108652334660292;-0.0036651913542300463;0.0012217304902151227
01:00:0A:00:00:00:00;1722614230;02/08/24;15:57:10;1.015;0.005;0.115;0.006108652334660292;-0.0036651913542300463;0.0012217304902151227
01:00:0A:00:00:00:00;1722614231;02/08/24;15:57:11;1.014;0.004;0.114;0.006108652334660292;-0.0036651913542300463;0.0012217304902151227
01:00:0A:00:00:00:00;1722614232;02/08/24;15:57:12;1.014;0.004;0.114;0.006108652334660292;-0.0036651913542300463;0.0012217304902151227
01:00:0A:00:00:00:00;1722614233;02/08/24;15:57:13;1.014;0.005;0.113;0.006108652334660292;-0.0036651913542300463;0.0012217304902151227
01:00:0A:00:00:00:00;1722614234;02/08/24;15:57:14;1.014;0.006;0.114;0.006108652334660292;-0.0036651913542300463;0.0
01:00:0A:00:00:00:00;1722614235;02/08/24;15:57:15;1.014;0.005;0.115;0.006108652334660292;-0.0036651913542300463;0.0012217304902151227
01:00:0A:00:00:00:00;1722614236;02/08/24;15:57:16;1.014;0.005;0.114;0.006108652334660292;-0.0036651913542300463;0.0012217304902151227
01:00:0A:00:00:00:00;1722614237;02/08/24;15:57:17;1.014;0.004;0.114;0.006108652334660292;-0.0036651913542300463;0.0012217304902151227
01:00:0A:00:00:00:00;1722614238;02/08/24;15:57:18;1.014;0.004;0.116;0.006108652334660292;-0.0036651913542300463;0.0012217304902151227
01:00:0A:00:00:00:00;1722614239;02/08/24;15:57:19;1.014;0.003;0.114;0.006108652334660292;-0.0036651913542300463;0.0012217304902151227
01:00:0A:00:00:00:00;1722614240;02/08/24;15:57:20;1.014;0.005;0.114;0.006108652334660292;-0.0036651913542300463;0.0012217304902151227
01:00:0A:00:00:00:00;1722614241;02/08/24;15:57:21;1.014;0.005;0.116;0.006108652334660292;-0.0036651913542300463;0.0012217304902151227
01:00:0A:00:00:00:00;1722614242;02/08/24;15:57:22;1.014;0.003;0.114;0.006108652334660292;-0.0036651913542300463;0.0012217304902151227
01:00:0A:00:00:00:00;1722614243;02/08/24;15:57:23;1.015;0.005;0.116;0.006108652334660292;-0.0036651913542300463;0.0012217304902151227
01:00:0A:00:00:00:00;1722614244;02/08/24;15:57:24;1.014;0.005;0.114;0.006108652334660292;-0.0036651913542300463;0.0012217304902151227
01:00:0A:00:00:00:00;1722614245;02/08/24;15:57:25;1.014;0.004;0.114;0.006108652334660292;-0.0036651913542300463;0.0
01:00:0A:00:00:00:00;1722614246;02/08/24;15:57:26;1.014;0.005;0.115;0.006108652334660292;-0.0036651913542300463;0.0012217304902151227
01:00:0A:00:00:00:00;1722614247;02/08/24;15:57:27;1.013;0.004;0.115;0.006108652334660292;-0.0036651913542300463;0.0012217304902151227
01:00:0A:00:00:00:00;1722614248;02/08/24;15:57:28;1.014;0.003;0.115;0.006108652334660292;-0.0036651913542300463;0.0012217304902151227
01:00:0A:00:00:00:00;1722614249;02/08/24;15:57:29;1.014;0.005;0.116;0.006108652334660292;-0.0036651913542300463;0.0012217304902151227
01:00:0A:00:00:00:00;1722614250;02/08/24;15:57:30;1.014;0.004;0.116;0.006108652334660292;-0.0036651913542300463;0.0012217304902151227
01:00:0A:00:00:00:00;1722614251;02/08/24;15:57:31;1.013;0.004;0.114;0.006108652334660292;-0.0036651913542300463;0.0012217304902151227
01:00:0A:00:00:00:00;1722614252;02/08/24;15:57:32;1.014;0.005;0.114;0.006108652334660292;-0.0036651913542300463;0.0
01:00:0A:00:00:00:00;1722614253;02/08/24;15:57:33;1.016;0.005;0.116;0.006108652334660292;-0.0024434609804302454;0.0012217304902151227
01:00:0A:00:00:00:00;1722614254;02/08/24;15:57:34;1.015;0.004;0.116;0.006108652334660292;-0.0024434609804302454;0.0012217304902151227
01:00:0A:00:00:00:00;1722614255;02/08/24;15:57:35;1.014;0.005;0.115;0.006108652334660292;-0.0036651913542300463;0.0012217304902151227
01:00:0A:00:00:00:00;1722614256;02/08/24;15:57:36;1.015;0.006;0.114;0.006108652334660292;-0.0036651913542300463;0.0012217304902151227
01:00:0A:00:00:00:00;1722614257;02/08/24;15:57:37;1.013;0.004;0.115;0.006108652334660292;-0.0036651913542300463;0.0012217304902151227
01:00:0A:00:00:00:00;1722614258;02/08/24;15:57:38;1.014;0.004;0.115;0.006108652334660292;-0.0036651913542300463;0.0012217304902151227
01:00:0A:00:00:00:00;1722614259;02/08/24;15:57:39;1.015;0.001;0.115;0.006108652334660292;-0.0036651913542300463;0.0024434609804302454
01:00:0A:00:00:00:00;1722614260;02/08/24;15:57:40;1.014;0.006;0.112;0.004886921960860491;-0.0012217304902151227;-0.004886921960860491
01:00:0A:00:00:00:00;1722614261;02/08/24;15:57:41;1.015;0.0;0.111;0.0024434609804302454;0.0012217304902151227;0.014660765416920185
01:00:0A:00:00:00:00;1722614262;02/08/24;15:57:42;1.016;-0.001;0.11;0.0036651913542300463;-0.0036651913542300463;0.004886921960860491
01:00:0A:00:00:00:00;1722614263;02/08/24;15:57:43;1.03;-0.019;0.113;-0.04398229718208313;0.036651913076639175;0.042760565876960754
01:00:0A:00:00:00:00;1722614264;02/08/24;15:57:44;1.018;-0.007;0.11;0.012217304669320583;0.028099799528717995;-0.0073303827084600925
01:00:0A:00:00:00:00;1722614265;02/08/24;15:57:45;1.032;-0.005;0.083;-0.03787364438176155;-0.004886921960860491;-0.06108652427792549
01:00:0A:00:00:00:00;1722614266;02/08/24;15:57:46;1.015;-0.02;0.116;-0.11484266817569733;0.009773843921720982;0.006108652334660292
01:00:0A:00:00:00:00;1722614267;02/08/24;15:57:47;1.021;-0.071;0.081;0.030543262138962746;-0.030543262138962746;0.04153883829712868
01:00:0A:00:00:00:00;1722614268;02/08/24;15:57:48;1.011;-0.001;0.159;-0.1918116807937622;-0.010995574295520782;0.03176499158143997
01:00:0A:00:00:00:00;1722614269;02/08/24;15:57:49;1.016;-0.039;0.113;0.02932153083384037;-0.004886921960860491;0.06963863223791122
01:00:0A:00:00:00:00;1722614270;02/08/24;15:57:50;1.015;0.0;0.104;0.33108896017074585;0.014660765416920185;0.05253440886735916
01:00:0A:00:00:00:00;1722614271;02/08/24;15:57:51;1.013;-0.008;0.113;0.004886921960860491;-0.013439035043120384;0.010995574295520782
01:00:0A:00:00:00:00;1722614272;02/08/24;15:57:52;1.002;0.205;-0.007;-0.16859880089759827;-0.03176499158143997;-0.26022857427597046
01:00:0A:00:00:00:00;1722614273;02/08/24;15:57:53;1.013;0.026;0.1;0.06352998316287994;0.025656338781118393;-0.0659734457731247
01:00:0A:00:00:00:00;1722614274;02/08/24;15:57:54;1.016;-0.026;0.105;0.04764748737215996;-0.030543262138962746;0.0073303827084600925
01:00:0A:00:00:00:00;1722614275;02/08/24;15:57:55;1.168;-0.058;0.098;0.1966986060142517;-0.06963863223791122;0.09651670604944229
01:00:0A:00:00:00:00;1722614276;02/08/24;15:57:56;1.007;0.014;0.181;0.04153883829712868;0.1270599663257599;-0.17104226350784302
01:00:0A:00:00:00:00;1722614277;02/08/24;15:57:57;1.015;-0.014;0.111;0.004886921960860491;-0.012217304669320583;0.028099799528717995
01:00:0A:00:00:00:00;1722614278;02/08/24;15:57:58;1.014;0.0;0.113;0.006108652334660292;-0.0012217304902151227;-0.004886921960860491
01:00:0A:00:00:00:00;1722614279;02/08/24;15:57:59;1.014;0.0;0.114;0.006108652334660292;-0.0036651913542300463;-0.0012217304902151227
01:00:0A:00:00:00:00;1722614280;02/08/24;15:58:00;1.016;-0.035;0.104;0.006108652334660292;0.0;-0.004886921960860491
01:00:0A:00:00:00:00;1722614281;02/08/24;15:58:01;1.013;0.003;0.115;0.00855211354792118;0.004886921960860491;-0.02687807008624077
01:00:0A:00:00:00:00;1722614282;02/08/24;15:58:02;1.015;-0.002;0.11;-0.0024434609804302454;-0.014660765416920185;0.04886921867728233
01:00:0A:00:00:00:00;1722614283;02/08/24;15:58:03;1.016;-0.014;0.112;0.0073303827084600925;-0.012217304669320583;0.012217304669320583
01:00:0A:00:00:00:00;1722614284;02/08/24;15:58:04;1.012;0.028;0.121;0.00855211354792118;0.0073303827084600925;-0.03298672288656235
01:00:0A:00:00:00:00;1722614285;02/08/24;15:58:05;1.016;-0.001;0.092;0.0073303827084600925;-0.014660765416920185;0.014660765416920185
01:00:0A:00:00:00:00;1722614286;02/08/24;15:58:06;1.014;-0.003;0.112;0.004886921960860491;-0.00855211354792118;0.018325956538319588
01:00:0A:00:00:00:00;1722614287;02/08/24;15:58:07;1.007;0.074;0.112;0.1258382350206375;0.045204028487205505;-0.09162978082895279
01:00:0A:00:00:00:00;1722614288;02/08/24;15:58:08;1.009;0.039;0.135;0.014660765416920185;0.024434609338641167;-0.09529497474431992
01:00:0A:00:00:00:00;1722614289;02/08/24;15:58:09;1.014;-0.013;0.099;0.00855211354792118;0.006108652334660292;-0.02687807008624077
01:00:0A:00:00:00:00;1722614290;02/08/24;15:58:10;1.011;0.038;0.121;0.012217304669320583;0.013439035043120384;-0.06841690838336945
01:00:0A:00:00:00:00;1722614291;02/08/24;15:58:11;1.013;0.009;0.116;0.006108652334660292;-0.0024434609804302454;-0.0024434609804302454
01:00:0A:00:00:00:00;1722614292;02/08/24;15:58:12;1.014;0.004;0.114;0.004886921960860491;-0.004886921960860491;0.0036651913542300463
01:00:0A:00:00:00:00;1722614293;02/08/24;15:58:13;1.012;0.012;0.116;0.004886921960860491;-0.0012217304902151227;0.0024434609804302454
01:00:0A:00:00:00:00;1722614294;02/08/24;15:58:14;1.014;0.013;0.117;0.012217304669320583;0.006108652334660292;-0.03176499158143997
01:00:0A:00:00:00:00;1722614295;02/08/24;15:58:15;1.015;-0.007;0.107;0.006108652334660292;-0.0036651913542300463;0.0
01:00:0A:00:00:00:00;1722614296;02/08/24;15:58:16;1.015;-0.011;0.132;0.0012217304902151227;-0.0024434609804302454;-0.02076941914856434
01:00:0A:00:00:00:00;1722614297;02/08/24;15:58:17;1.014;-0.003;0.114;0.004886921960860491;-0.0073303827084600925;0.01710422709584236
01:00:0A:00:00:00:00;1722614298;02/08/24;15:58:18;1.014;0.0;0.116;0.006108652334660292;-0.0024434609804302454;-0.004886921960860491
01:00:0A:00:00:00:00;1722614299;02/08/24;15:58:19;1.015;0.0;0.113;0.006108652334660292;-0.0036651913542300463;0.0012217304902151227
01:00:0A:00:00:00:00;1722614300;02/08/24;15:58:20;1.013;0.0;0.114;0.006108652334660292;-0.0036651913542300463;0.0
01:00:0A:00:00:00:00;1722614301;02/08/24;15:58:21;1.014;0.006;0.116;0.006108652334660292;-0.004886921960860491;0.0012217304902151227
01:00:0A:00:00:00:00;1722614302;02/08/24;15:58:22;1.013;-0.002;0.113;0.006108652334660292;-0.004886921960860491;0.0036651913542300463
01:00:0A:00:00:00:00;1722614303;02/08/24;15:58:23;1.014;0.0;0.113;0.006108652334660292;-0.0036651913542300463;0.0
01:00:0A:00:00:00:00;1722614304;02/08/24;15:58:24;1.014;0.0;0.114;0.006108652334660292;-0.0036651913542300463;0.0012217304902151227
01:00:0A:00:00:00:00;1722614305;02/08/24;15:58:25;1.015;-0.008;0.11;0.006108652334660292;-0.006108652334660292;0.0073303827084600925
01:00:0A:00:00:00:00;1722614306;02/08/24;15:58:26;1.016;-0.011;0.105;-0.1869247555732727;-0.05864306166768074;0.036651913076639175
01:00:0A:00:00:00:00;1722614307;02/08/24;15:58:27;1.014;-0.004;0.113;0.0036651913542300463;-0.012217304669320583;0.05375614017248154
01:00:0A:00:00:00:00;1722614308;02/08/24;15:58:28;1.015;-0.002;0.114;0.006108652334660292;-0.0036651913542300463;0.0024434609804302454
01:00:0A:00:00:00:00;1722614309;02/08/24;15:58:29;1.014;0.0;0.114;0.006108652334660292;-0.0036651913542300463;-0.0012217304902151227
01:00:0A:00:00:00:00;1722614310;02/08/24;15:58:30;1.014;0.0;0.114;0.006108652334660292;-0.0036651913542300463;-0.0012217304902151227
01:00:0A:00:00:00:00;1722614311;02/08/24;15:58:31;1.013;0.0;0.114;0.006108652334660292;-0.0036651913542300463;0.0
01:00:0A:00:00:00:00;1722614312;02/08/24;15:58:32;1.015;0.0;0.113;0.006108652334660292;-0.0036651913542300463;0.0
01:00:0A:00:00:00:00;1722614313;02/08/24;15:58:33;1.013;0.002;0.114;0.006108652334660292;-0.0024434609804302454;-0.0012217304902151227
01:00:0A:00:00:00:00;1722614314;02/08/24;15:58:34;1.014;0.0;0.115;0.006108652334660292;-0.0036651913542300463;0.0
01:00:0A:00:00:00:00;1722614315;02/08/24;15:58:35;1.014;0.001;0.113;0.006108652334660292;-0.0036651913542300463;0.0
01:00:0A:00:00:00:00;1722614316;02/08/24;15:58:36;1.014;0.0;0.113;0.006108652334660292;-0.0036651913542300463;0.0
01:00:0A:00:00:00:00;1722614317;02/08/24;15:58:37;1.014;-0.002;0.121;0.004886921960860491;0.009773843921720982;-0.013439035043120384
01:00:0A:00:00:00:00;1722614318;02/08/24;15:58:38;1.013;0.004;0.111;0.0024434609804302454;-0.00855211354792118;0.014660765416920185
01:00:0A:00:00:00:00;1722614319;02/08/24;15:58:39;1.014;-0.116;0.145;-0.015882495790719986;-0.02076941914856434;0.13316862285137177
01:00:0A:00:00:00:00;1722614320;02/08/24;15:58:40;1.01;0.035;0.134;-0.03298672288656235;0.013439035043120384;-0.11484266817569733
01:00:0A:00:00:00:00;1722614321;02/08/24;15:58:41;0.97;0.19;0.211;0.7953465580940247;0.3347541391849518;-0.32131510972976685
01:00:0A:00:00:00:00;1722614322;02/08/24;15:58:42;0.907;0.127;0.17;0.93095862865448;0.3640756905078888;1.5234979391098022
01:00:0A:00:00:00:00;1722614323;02/08/24;15:58:43;1.014;0.001;0.123;-0.1869247555732727;-0.06475171446800232;0.19792033731937408
01:00:0A:00:00:00:00;1722614324;02/08/24;15:58:44;1.016;0.002;0.093;0.004886921960860491;-0.00855211354792118;0.0024434609804302454
01:00:0A:00:00:00:00;1722614325;02/08/24;15:58:45;1.014;0.005;0.096;0.006108652334660292;-0.0024434609804302454;-0.009773843921720982
01:00:0A:00:00:00:00;1722614326;02/08/24;15:58:46;1.016;-0.016;0.098;0.0073303827084600925;-0.0012217304902151227;-0.010995574295520782
01:00:0A:00:00:00:00;1722614327;02/08/24;15:58:47;1.013;0.032;0.098;0.006108652334660292;-0.004886921960860491;-0.004886921960860491
01:00:0A:00:00:00:00;1722614328;02/08/24;15:58:48;1.014;0.0;0.105;0.010995574295520782;0.0012217304902151227;-0.014660765416920185
01:00:0A:00:00:00:00;1722614329;02/08/24;15:58:49;1.015;0.008;0.099;0.004886921960860491;-0.0024434609804302454;0.0073303827084600925
01:00:0A:00:00:00:00;1722614330;02/08/24;15:58:50;1.016;-0.008;0.095;0.006108652334660292;-0.00855211354792118;-0.0024434609804302454
01:00:0A:00:00:00:00;1722614331;02/08/24;15:58:51;1.016;0.008;0.1;0.02076941914856434;0.004886921960860491;0.019547687843441963
01:00:0A:00:00:00:00;1722614332;02/08/24;15:58:52;1.019;-0.029;0.084;-0.006108652334660292;-0.019547687843441963;0.021991148591041565
01:00:0A:00:00:00:00;1722614333;02/08/24;15:58:53;1.016;-0.015;0.103;0.004886921960860491;-0.006108652334660292;-0.009773843921720982
01:00:0A:00:00:00:00;1722614334;02/08/24;15:58:54;1.015;0.012;0.098;0.009773843921720982;-0.010995574295520782;-0.01710422709584236
01:00:0A:00:00:00:00;1722614335;02/08/24;15:58:55;1.015;0.011;0.092;0.0036651913542300463;-0.0036651913542300463;0.019547687843441963
01:00:0A:00:00:00:00;1722614336;02/08/24;15:58:56;1.016;0.007;0.094;0.006108652334660292;-0.0073303827084600925;0.0
01:00:0A:00:00:00:00;1722614337;02/08/24;15:58:57;1.014;0.018;0.104;0.012217304669320583;-0.006108652334660292;-0.021991148591041565
01:00:0A:00:00:00:00;1722614338;02/08/24;15:58:58;1.014;0.013;0.111;-0.015882495790719986;0.010995574295520782;-0.0073303827084600925
01:00:0A:00:00:00:00;1722614339;02/08/24;15:58:59;1.015;0.023;0.093;0.006108652334660292;-0.0073303827084600925;0.0012217304902151227
01:00:0A:00:00:00:00;1722614340;02/08/24;15:59:00;1.012;0.053;0.096;0.018325956538319588;-0.0024434609804302454;-0.02687807008624077
01:00:0A:00:00:00:00;1722614341;02/08/24;15:59:01;1.016;0.067;0.057;0.039095375686883926;-0.019547687843441963;-0.13316862285137177
01:00:0A:00:00:00:00;1722614342;02/08/24;15:59:02;1.014;0.0;0.111;0.0;-0.009773843921720982;0.0073303827084600925
01:00:0A:00:00:00:00;1722614343;02/08/24;15:59:03;1.01;0.056;0.119;0.04642575979232788;0.024434609338641167;-0.06108652427792549
01:00:0A:00:00:00:00;1722614344;02/08/24;15:59:04;1.008;0.054;0.147;0.03787364438176155;0.01710422709584236;-0.07330382615327835
01:00:0A:00:00:00:00;1722614345;02/08/24;15:59:05;1.014;0.018;0.122;0.024434609338641167;-0.0024434609804302454;-0.006108652334660292
01:00:0A:00:00:00:00;1722614346;02/08/24;15:59:06;1.008;0.059;0.146;0.0;-0.019547687843441963;0.014660765416920185
01:00:0A:00:00:00:00;1722614347;02/08/24;15:59:07;1.009;0.055;0.14;0.014660765416920185;0.024434609338641167;-0.004886921960860491
01:00:0A:00:00:00:00;1722614348;02/08/24;15:59:08;1.015;0.041;0.095;0.02321287989616394;0.059864792972803116;0.0036651913542300463
01:00:0A:00:00:00:00;1722614349;02/08/24;15:59:09;1.009;0.071;0.122;-0.014660765416920185;-0.02932153083384037;0.02076941914856434
01:00:0A:00:00:00:00;1722614350;02/08/24;15:59:10;1.008;0.075;0.131;0.0024434609804302454;0.014660765416920185;0.004886921960860491
01:00:0A:00:00:00:00;1722614351;02/08/24;15:59:11;1.01;0.06;0.13;-0.024434609338641167;-0.02076941914856434;-0.01710422709584236
01:00:0A:00:00:00:00;1722614352;02/08/24;15:59:12;1.009;0.035;0.15;0.00855211354792118;0.013439035043120384;0.013439035043120384
01:00:0A:00:00:00:00;1722614353;02/08/24;15:59:13;1.014;0.04;0.094;0.036651913076639175;-0.11362093687057495;-0.04398229718208313
01:00:0A:00:00:00:00;1722614354;02/08/24;15:59:14;1.014;0.021;0.097;0.13072516024112701;-0.02687807008624077;-0.05742133408784866
01:00:0A:00:00:00:00;1722614355;02/08/24;15:59:15;1.016;0.033;0.085;0.04642575979232788;-0.02932153083384037;-0.05253440886735916
01:00:0A:00:00:00:00;1722614356;02/08/24;15:59:16;1.019;0.012;0.033;-0.02687807008624077;-0.059864792972803116;0.05864306166768074
01:00:0A:00:00:00:00;1722614357;02/08/24;15:59:17;1.002;0.132;0.046;0.13072516024112701;-0.24068090319633484;-0.2541199326515198
01:00:0A:00:00:00:00;1722614358;02/08/24;15:59:18;1.016;0.056;0.149;0.03298672288656235;0.09407324343919754;0.03298672288656235
01:00:0A:00:00:00:00;1722614359;02/08/24;15:59:19;1.014;-0.022;0.126;0.006108652334660292;0.0073303827084600925;0.036651913076639175
01:00:0A:00:00:00:00;1722614360;02/08/24;15:59:20;1.014;-0.005;0.108;0.010995574295520782;0.009773843921720982;-0.010995574295520782
01:00:0A:00:00:00:00;1722614361;02/08/24;15:59:21;1.016;-0.018;0.1;0.009773843921720982;0.014660765416920185;-0.019547687843441963
01:00:0A:00:00:00:00;1722614362;02/08/24;15:59:22;1.014;-0.002;0.098;0.006108652334660292;-0.0036651913542300463;-0.0012217304902151227
01:00:0A:00:00:00:00;1722614363;02/08/24;15:59:23;1.014;0.008;0.095;0.024434609338641167;-0.018325956538319588;-0.015882495790719986
01:00:0A:00:00:00:00;1722614364;02/08/24;15:59:24;1.019;-0.031;0.081;-0.0354301817715168;-0.013439035043120384;0.06719517707824707
01:00:0A:00:00:00:00;1722614365;02/08/24;15:59:25;1.016;-0.038;0.086;0.02932153083384037;0.02076941914856434;0.06352998316287994
01:00:0A:00:00:00:00;1722614366;02/08/24;15:59:26;1.015;-0.022;0.106;0.006108652334660292;-0.0024434609804302454;0.004886921960860491
01:00:0A:00:00:00:00;1722614367;02/08/24;15:59:27;1.016;-0.012;0.088;-0.02687807008624077;-0.010995574295520782;0.009773843921720982
01:00:0A:00:00:00:00;1722614368;02/08/24;15:59:28;1.016;0.011;0.083;-0.04642575979232788;-0.019547687843441963;-0.019547687843441963
01:00:0A:00:00:00:00;1722614369;02/08/24;15:59:29;1.016;0.01;0.085;0.006108652334660292;0.012217304669320583;-0.02076941914856434
01:00:0A:00:00:00:00;1722614370;02/08/24;15:59:30;1.014;0.02;0.101;0.3604104816913605;-0.036651913076639175;-0.006108652334660292
01:00:0A:00:00:00:00;1722614371;02/08/24;15:59:31;1.017;-0.017;0.045;0.014660765416920185;-0.02687807008624077;0.021991148591041565
01:00:0A:00:00:00:00;1722614372;02/08/24;15:59:32;1.01;0.092;0.069;0.006108652334660292;-0.0012217304902151227;0.00855211354792118
01:00:0A:00:00:00:00;1722614373;02/08/24;15:59:33;1.007;0.125;-0.023;-0.045204028487205505;-0.06352998316287994;-0.013439035043120384
01:00:0A:00:00:00:00;1722614374;02/08/24;15:59:34;1.01;0.132;0.037;0.13561207056045532;-0.00855211354792118;-0.09040805697441101
01:00:0A:00:00:00:00;1722614375;02/08/24;15:59:35;1.006;0.151;-0.001;-0.17104226350784302;-0.0073303827084600925;0.09651670604944229
01:00:0A:00:00:00:00;1722614376;02/08/24;15:59:36;1.023;-0.015;0.108;-0.1563815027475357;0.1466076523065567;-0.0073303827084600925
01:00:0A:00:00:00:00;1722614377;02/08/24;15:59:37;1.011;0.121;0.049;-0.02076941914856434;0.1258382350206375;-0.1258382350206375
01:00:0A:00:00:00:00;1722614378;02/08/24;15:59:38;1.016;-0.028;0.118;0.24923302233219147;-0.02687807008624077;-0.036651913076639175
01:00:0A:00:00:00:00;1722614379;02/08/24;15:59:39;1.013;-0.023;0.135;-0.05619959905743599;0.04886921867728233;-0.006108652334660292
01:00:0A:00:00:00:00;1722614380;02/08/24;15:59:40;1.016;-0.074;0.122;0.08918632566928864;0.02932153083384037;0.1160643920302391
01:00:0A:00:00:00:00;1722614381;02/08/24;15:59:41;0.964;0.218;0.322;-0.021991148591041565;0.0036651913542300463;-0.05497787147760391
01:00:0A:00:00:00:00;1722614382;02/08/24;15:59:42;1.016;-0.029;0.077;0.43249258399009705;-0.013439035043120384;0.07452555745840073
01:00:0A:00:00:00:00;1722614383;02/08/24;15:59:43;1.016;-0.004;0.063;0.05742133408784866;-0.08429940044879913;0.02932153083384037
01:00:0A:00:00:00:00;1722614384;02/08/24;15:59:44;1.013;0.046;0.029;-0.0012217304902151227;0.12828169763088226;-0.0024434609804302454
01:00:0A:00:00:00:00;1722614385;02/08/24;15:59:45;1.016;-0.037;0.069;-0.29688048362731934;0.080634206533432;0.1160643920302391
01:00:0A:00:00:00:00;1722614386;02/08/24;15:59:46;1.017;0.079;0.009;-0.036651913076639175;-0.03420845419168472;-0.07819075137376785
01:00:0A:00:00:00:00;1722614387;02/08/24;15:59:47;1.013;0.008;0.014;1.0739011764526367;-0.2541199326515198;-0.11239919811487198
01:00:0A:00:00:00:00;1722614388;02/08/24;15:59:48;1.015;0.037;0.035;-0.10751228034496307;-0.03298672288656235;-0.039095375686883926
01:00:0A:00:00:00:00;1722614389;02/08/24;15:59:49;1.016;0.037;0.065;0.019547687843441963;-0.04398229718208313;-0.039095375686883926
01:00:0A:00:00:00:00;1722614390;02/08/24;15:59:50;1.017;0.033;0.06;0.012217304669320583;0.0073303827084600925;0.009773843921720982
01:00:0A:00:00:00:00;1722614391;02/08/24;15:59:51;1.017;-0.049;0.106;-0.17837265133857727;-0.05375614017248154;-0.040317103266716
01:00:0A:00:00:00:00;1722614392;02/08/24;15:59:52;1.017;0.017;0.064;-0.14905111491680145;-0.07330382615327835;0.07941248267889023
01:00:0A:00:00:00:00;1722614393;02/08/24;15:59:53;1.007;0.025;0.151;-0.04642575979232788;0.07696902006864548;0.06352998316287994
01:00:0A:00:00:00:00;1722614394;02/08/24;15:59:54;1.012;-0.053;0.122;0.30543261766433716;0.04398229718208313;0.1319468915462494
01:00:0A:00:00:00:00;1722614395;02/08/24;15:59:55;1.015;-0.014;0.103;0.05253440886735916;0.0012217304902151227;0.004886921960860491
01:00:0A:00:00:00:00;1722614396;02/08/24;15:59:56;1.015;-0.011;0.106;0.006108652334660292;-0.0036651913542300463;0.0
01:00:0A:00:00:00:00;1722614397;02/08/24;15:59:57;1.015;-0.009;0.106;0.006108652334660292;-0.004886921960860491;0.006108652334660292
01:00:0A:00:00:00:00;1722614398;02/08/24;15:59:58;1.013;0.002;0.124;0.09040805697441101;0.014660765416920185;0.0659734457731247
01:00:0A:00:00:00:00;1722614399;02/08/24;15:59:59;1.016;-0.041;0.143;0.08674286305904388;-0.03420845419168472;-0.08307767659425735
01:00:0A:00:00:00:00;1722614400;02/08/24;16:00:00;1.013;-0.041;0.133;-0.013439035043120384;0.018325956538319588;0.042760565876960754
01:00:0A:00:00:00:00;1722614401;02/08/24;16:00:01;1.016;-0.04;0.067;0.02687807008624077;-0.08185594528913498;-0.02076941914856434
01:00:0A:00:00:00:00;1722614402;02/08/24;16:00:02;1.011;0.083;0.075;0.42760565876960754;0.013439035043120384;-0.14416420459747314
01:00:0A:00:00:00:00;1722614403;02/08/24;16:00:03;1.016;0.0;0.079;-0.07941248267889023;-0.05619959905743599;-0.04764748737215996
01:00:0A:00:00:00:00;1722614404;02/08/24;16:00:04;1.01;0.065;0.105;-0.004886921960860491;-0.05864306166768074;-0.16982054710388184
01:00:0A:00:00:00:00;1722614405;02/08/24;16:00:05;1.016;-0.027;0.124;-0.14416420459747314;-0.04764748737215996;-0.0073303827084600925
01:00:0A:00:00:00:00;1722614406;02/08/24;16:00:06;1.017;0.005;0.028;-0.05619959905743599;-0.02321287989616394;0.024434609338641167
01:00:0A:00:00:00:00;1722614407;02/08/24;16:00:07;1.017;-0.009;0.043;-0.15882496535778046;-0.02687807008624077;-0.006108652334660292
01:00:0A:00:00:00:00;1722614408;02/08/24;16:00:08;1.016;0.019;0.098;-0.10506881773471832;0.025656338781118393;0.0036651913542300463
01:00:0A:00:00:00:00;1722614409;02/08/24;16:00:09;1.013;0.058;0.08;-0.14049901068210602;0.024434609338641167;0.039095375686883926
01:00:0A:00:00:00:00;1722614410;02/08/24;16:00:10;1.019;-0.049;0.122;0.08918632566928864;-0.09162978082895279;0.08552113175392151
01:00:0A:00:00:00:00;1722614411;02/08/24;16:00:11;1.015;0.019;0.129;0.04886921867728233;0.0024434609804302454;0.039095375686883926
01:00:0A:00:00:00:00;1722614412;02/08/24;16:00:12;1.016;0.007;0.097;0.024434609338641167;-0.004886921960860491;0.030543262138962746
01:00:0A:00:00:00:00;1722614413;02/08/24;16:00:13;1.018;-0.011;0.083;0.15393804013729095;0.09773843735456467;-0.05864306166768074
01:00:0A:00:00:00:00;1722614414;02/08/24;16:00:14;1.008;0.032;0.148;-0.46792274713516235;0.09040805697441101;-0.18325956165790558
01:00:0A:00:00:00:00;1722614415;02/08/24;16:00:15;1.007;0.002;0.175;0.04886921867728233;-0.0036651913542300463;0.14782939851284027
01:00:0A:00:00:00:00;1722614416;02/08/24;16:00:16;1.015;0.036;0.101;0.11239919811487198;0.06352998316287994;-0.14416420459747314
01:00:0A:00:00:00:00;1722614417;02/08/24;16:00:17;1.007;0.041;0.154;0.41783180832862854;0.07452555745840073;-0.12217304855585098
01:00:0A:00:00:00:00;1722614418;02/08/24;16:00:18;1.012;0.031;0.129;0.0012217304902151227;-0.014660765416920185;-0.021991148591041565
01:00:0A:00:00:00:00;1722614419;02/08/24;16:00:19;0.999;0.075;0.194;-0.06963863223791122;0.12828169763088226;0.00855211354792118
01:00:0A:00:00:00:00;1722614420;02/08/24;16:00:20;1.007;0.01;0.17;0.15393804013729095;-0.07452555745840073;-0.05253440886735916
01:00:0A:00:00:00:00;1722614421;02/08/24;16:00:21;0.991;-0.011;0.238;-1.451415777206421;0.32009339332580566;0.039095375686883926
01:00:0A:00:00:00:00;1722614422;02/08/24;16:00:22;1.0;0.099;0.185;-0.02932153083384037;-0.14049901068210602;-0.010995574295520782
01:00:0A:00:00:00:00;1722614423;02/08/24;16:00:23;1.015;0.032;0.037;0.8943067193031311;0.2076941877603531;0.2785545289516449
01:00:0A:00:00:00:00;1722614424;02/08/24;16:00:24;1.013;0.096;-0.065;0.20891590416431427;-0.23090705275535583;0.004886921960860491
01:00:0A:00:00:00:00;1722614425;02/08/24;16:00:25;1.015;-0.003;0.096;0.3494149148464203;-0.04886921867728233;-0.0036651913542300463
01:00:0A:00:00:00:00;1722614426;02/08/24;16:00:26;1.012;0.047;0.104;-0.07696902006864548;-0.0708603635430336;-0.11484266817569733
01:00:0A:00:00:00:00;1722614427;02/08/24;16:00:27;1.0;-0.004;0.215;-1.987755537033081;-0.13927726447582245;0.2382374405860901
01:00:0A:00:00:00:00;1722614428;02/08/24;16:00:28;1.014;-0.001;0.206;-0.025656338781118393;0.27611109614372253;0.1661553531885147
01:00:0A:00:00:00:00;1722614429;02/08/24;16:00:29;1.019;-0.198;0.053;-0.1563815027475357;0.3029891550540924;0.17592918872833252
01:00:0A:00:00:00:00;1722614430;02/08/24;16:00:30;1.013;0.081;-0.005;0.27122414112091064;-0.09896016865968704;0.02321287989616394
01:00:0A:00:00:00:00;1722614431;02/08/24;16:00:31;1.016;0.002;0.019;1.0824532508850098;0.015882495790719986;0.3017674386501312
01:00:0A:00:00:00:00;1722614432;02/08/24;16:00:32;1.016;-0.036;0.108;-0.6120869517326355;-0.040317103266716;-0.2321287840604782
01:00:0A:00:00:00:00;1722614433;02/08/24;16:00:33;1.024;0.028;0.053;-0.3237585723400116;0.05742133408784866;-0.010995574295520782
01:00:0A:00:00:00:00;1722614434;02/08/24;16:00:34;1.012;0.021;0.127;-0.2590068578720093;-0.04764748737215996;-0.0036651913542300463
01:00:0A:00:00:00:00;1722614435;02/08/24;16:00:35;1.013;0.024;0.138;-0.2638937830924988;-0.23457224667072296;-0.06230825558304787
01:00:0A:00:00:00:00;1722614436;02/08/24;16:00:36;1.008;-0.104;0.185;2.437352180480957;-0.06841690838336945;0.27611109614372253
01:00:0A:00:00:00:00;1722614437;02/08/24;16:00:37;1.013;-0.026;0.062;-0.14294245839118958;0.039095375686883926;0.16493360698223114
01:00:0A:00:00:00:00;1722614438;02/08/24;16:00:38;0.926;-0.144;0.132;0.3946189284324646;-0.8271114826202393;-0.38606682419776917
01:00:0A:00:00:00:00;1722614439;02/08/24;16:00:39;0.981;-0.417;0.24;-0.24678954482078552;0.6499606370925903;-0.4312708377838135
01:00:0A:00:00:00:00;1722614440;02/08/24;16:00:40;0.92;-0.106;0.401;-0.22846359014511108;-0.42149701714515686;-0.5021312236785889
01:00:0A:00:00:00:00;1722614441;02/08/24;16:00:41;0.923;-0.01;0.466;-0.1771509200334549;0.16982054710388184;-0.04886921867728233
01:00:0A:00:00:00:00;1722614442;02/08/24;16:00:42;0.895;-0.099;0.514;-0.1319468915462494;0.024434609338641167;-0.040317103266716
01:00:0A:00:00:00:00;1722614443;02/08/24;16:00:43;0.883;-0.453;0.229;0.5644394755363464;-0.49357908964157104;0.33719760179519653
01:00:0A:00:00:00:00;1722614444;02/08/24;16:00:44;0.79;-0.473;-0.234;1.1691960096359253;-0.6585127115249634;-0.5155702233314514
01:00:0A:00:00:00:00;1722614445;02/08/24;16:00:45;0.647;-0.683;-0.367;-0.41294488310813904;-0.3848450779914856;0.19914205372333527
01:00:0A:00:00:00:00;1722614446;02/08/24;16:00:46;0.368;-0.743;-0.549;-0.03787364438176155;0.025656338781118393;0.13316862285137177
01:00:0A:00:00:00:00;1722614447;02/08/24;16:00:47;0.441;-0.879;-0.314;0.06963863223791122;0.02932153083384037;0.1062905490398407
01:00:0A:00:00:00:00;1722614448;02/08/24;16:00:48;0.446;-0.742;-0.348;0.059864792972803116;-0.13439035415649414;0.0036651913542300463
01:00:0A:00:00:00:00;1722614449;02/08/24;16:00:49;0.445;-0.681;-0.503;-0.18570303916931152;-0.09529497474431992;-0.42760565876960754
01:00:0A:00:00:00:00;1722614450;02/08/24;16:00:50;0.537;-0.573;-0.693;-0.06108652427792549;0.0036651913542300463;0.14782939851284027
01:00:0A:00:00:00:00;1722614451;02/08/24;16:00:51;0.585;-0.507;-0.621;-0.3066543638706207;0.06719517707824707;0.19303341209888458
01:00:0A:00:00:00:00;1722614452;02/08/24;16:00:52;0.498;-0.67;-0.506;0.0012217304902151227;-0.013439035043120384;0.03787364438176155
01:00:0A:00:00:00:00;1722614453;02/08/24;16:00:53;0.516;-0.75;-0.462;0.11850785464048386;-0.03787364438176155;-0.02687807008624077
01:00:0A:00:00:00:00;1722614454;02/08/24;16:00:54;0.623;0.153;-0.839;0.20525071024894714;0.20402899384498596;-0.4911356568336487
01:00:0A:00:00:00:00;1722614455;02/08/24;16:00:55;0.393;-0.021;-1.009;0.051312677562236786;0.1466076523065567;-0.12339477241039276
01:00:0A:00:00:00:00;1722614456;02/08/24;16:00:56;0.671;0.22;-0.559;-0.17104226350784302;0.2590068578720093;0.7819074988365173
01:00:0A:00:00:00:00;1722614457;02/08/24;16:00:57;0.581;0.475;-0.548;0.5302309989929199;0.40194931626319885;-0.3029891550540924
01:00:0A:00:00:00:00;1722614458;02/08/24;16:00:58;0.485;0.439;-0.751;-0.11362093687057495;-0.024434609338641167;-0.006108652334660292
01:00:0A:00:00:00:00;1722614459;02/08/24;16:00:59;0.44;0.397;-0.67;-0.11728612333536148;-0.06719517707824707;0.028099799528717995
01:00:0A:00:00:00:00;1722614460;02/08/24;16:01:00;0.628;0.447;-0.675;0.4960225820541382;0.21380282938480377;-0.485027015209198
01:00:0A:00:00:00:00;1722614461;02/08/24;16:01:01;0.457;0.296;-0.691;-0.43860122561454773;-0.23945917189121246;0.3591887652873993
01:00:0A:00:00:00:00;1722614462;02/08/24;16:01:02;0.455;0.402;-0.791;0.13316862285137177;0.29565879702568054;-0.2370157092809677
01:00:0A:00:00:00:00;1722614463;02/08/24;16:01:03;0.379;0.425;-0.863;-0.1722639948129654;-0.24434609711170197;0.7611380815505981
01:00:0A:00:00:00:00;1722614464;02/08/24;16:01:04;0.307;0.38;-0.856;0.10506881773471832;0.23335053026676178;-0.4593706727027893
01:00:0A:00:00:00:00;1722614465;02/08/24;16:01:05;0.4;0.319;-0.908;0.004886921960860491;-0.23090705275535583;-0.07819075137376785
01:00:0A:00:00:00:00;1722614466;02/08/24;16:01:06;0.432;0.354;-0.868;-0.31642818450927734;-0.18081611394882202;0.3946189284324646
01:00:0A:00:00:00:00;1722614467;02/08/24;16:01:07;0.433;0.387;-0.834;-0.23457224667072296;-0.34208452701568604;0.15393804013729095
01:00:0A:00:00:00:00;1722614468;02/08/24;16:01:08;0.391;0.439;-0.872;0.012217304669320583;0.32620203495025635;-0.4080579876899719
01:00:0A:00:00:00:00;1722614469;02/08/24;16:01:09;0.288;0.319;-0.698;0.5644394755363464;-0.2724458873271942;0.1160643920302391
01:00:0A:00:00:00:00;1722614470;02/08/24;16:01:10;0.284;0.3;-0.873;-0.08185594528913498;-0.040317103266716;0.03298672288656235
01:00:0A:00:00:00:00;1722614471;02/08/24;16:01:11;0.279;0.308;-0.877;-0.08429940044879913;-0.13072516024112701;0.2028072476387024
01:00:0A:00:00:00:00;1722614472;02/08/24;16:01:12;0.372;0.296;-0.833;0.051312677562236786;-0.028099799528717995;-0.06352998316287994
01:00:0A:00:00:00:00;1722614473;02/08/24;16:01:13;0.297;0.313;-0.85;-0.04153883829712868;0.11728612333536148;-0.1319468915462494
01:00:0A:00:00:00:00;1722614474;02/08/24;16:01:14;0.301;0.288;-0.907;0.030543262138962746;-0.0073303827084600925;-0.039095375686883926
01:00:0A:00:00:00:00;1722614475;02/08/24;16:01:15;0.239;0.255;-0.821;0.19058994948863983;-0.3029891550540924;-0.13316862285137177
01:00:0A:00:00:00:00;1722614476;02/08/24;16:01:16;0.293;0.102;-0.976;0.08552113175392151;-0.006108652334660292;0.13439035415649414
01:00:0A:00:00:00:00;1722614477;02/08/24;16:01:17;0.348;0.136;-0.813;-0.7281513810157776;-0.37629297375679016;-0.3237585723400116
01:00:0A:00:00:00:00;1722614478;02/08/24;16:01:18;0.176;0.415;-0.885;0.03176499158143997;0.036651913076639175;-0.09285151958465576
01:00:0A:00:00:00:00;1722614479;02/08/24;16:01:19;0.338;0.371;-0.896;0.06230825558304787;0.05742133408784866;-0.31642818450927734
01:00:0A:00:00:00:00;1722614480;02/08/24;16:01:20;0.234;0.473;-0.825;-0.08307767659425735;-0.08918632566928864;-0.03420845419168472
01:00:0A:00:00:00:00;1722614481;02/08/24;16:01:21;0.311;0.285;-0.876;0.5619960427284241;0.1319468915462494;-0.07330382615327835
01:00:0A:00:00:00:00;1722614482;02/08/24;16:01:22;0.178;-0.217;-1.073;-0.06475171446800232;0.07452555745840073;0.8845328092575073
01:00:0A:00:00:00:00;1722614483;02/08/24;16:01:23;0.044;-0.134;-1.018;0.5436700582504272;-0.32131510972976685;-2.4129176139831543
01:00:0A:00:00:00:00;1722614484;02/08/24;16:01:24;0.704;-0.338;-0.575;0.31642818450927734;-0.4544837474822998;-1.1301007270812988
01:00:0A:00:00:00:00;1722614485;02/08/24;16:01:25;0.378;0.213;-1.074;0.36651912331581116;-0.14538592100143433;-0.7415903806686401
01:00:0A:00:00:00:00;1722614486;02/08/24;16:01:26;0.305;-0.062;-0.883;-1.222952127456665;0.28588491678237915;-0.2724458873271942
01:00:0A:00:00:00:00;1722614487;02/08/24;16:01:27;0.161;-0.543;-0.941;-0.10262535512447357;-0.05253440886735916;0.5815436840057373
01:00:0A:00:00:00:00;1722614488;02/08/24;16:01:28;0.262;-0.012;-0.918;0.10018189996480942;0.31642818450927734;-0.6365215182304382
01:00:0A:00:00:00:00;1722614489;02/08/24;16:01:29;0.472;0.053;-0.855;-0.06108652427792549;-0.039095375686883926;-0.24556782841682434
01:00:0A:00:00:00:00;1722614490;02/08/24;16:01:30;0.456;0.252;-0.728;-0.5265658497810364;0.06108652427792549;1.4245377779006958
01:00:0A:00:00:00:00;1722614491;02/08/24;16:01:31;0.168;-0.08;-0.915;-1.1814132928848267;-0.05619959905743599;0.161268413066864
01:00:0A:00:00:00:00;1722614492;02/08/24;16:01:32;0.426;-0.024;-0.922;0.27122414112091064;-0.06841690838336945;0.22479839622974396
01:00:0A:00:00:00:00;1722614493;02/08/24;16:01:33;0.347;0.043;-0.83;-0.10873401165008545;-0.01710422709584236;-0.35063666105270386
01:00:0A:00:00:00:00;1722614494;02/08/24;16:01:34;0.403;0.011;-0.827;0.41172316670417786;0.06230825558304787;-0.0354301817715168
01:00:0A:00:00:00:00;1722614495;02/08/24;16:01:35;0.48;-0.256;-0.836;0.251676470041275;-0.00855211354792118;-0.03176499158143997
01:00:0A:00:00:00:00;1722614496;02/08/24;16:01:36;0.331;-0.428;-0.984;-0.36163222789764404;0.645073652267456;1.2791517972946167
01:00:0A:00:00:00:00;1722614497;02/08/24;16:01:37;0.406;-0.37;-0.675;0.6084217429161072;-0.080634206533432;-0.24434609711170197
01:00:0A:00:00:00:00;1722614498;02/08/24;16:01:38;0.618;-0.481;-0.653;0.8344419002532959;-0.8026769161224365;-1.086118459701538
01:00:0A:00:00:00:00;1722614499;02/08/24;16:01:39;0.985;-0.435;-0.381;-0.0012217304902151227;-0.10262535512447357;0.40072759985923767
01:00:0A:00:00:00:00;1722614500;02/08/24;16:01:40;0.872;-0.411;-0.281;0.1514945775270462;0.02932153083384037;-0.05375614017248154
01:00:0A:00:00:00:00;1722614501;02/08/24;16:01:41;0.901;-0.265;-0.346;-0.14782939851284027;0.0024434609804302454;-0.36163222789764404
01:00:0A:00:00:00:00;1722614502;02/08/24;16:01:42;0.947;-0.146;-0.077;0.039095375686883926;-0.03420845419168472;-0.21135938167572021
01:00:0A:00:00:00:00;1722614503;02/08/24;16:01:43;1.02;0.0;-0.012;0.07696902006864548;-0.051312677562236786;0.01710422709584236
01:00:0A:00:00:00:00;1722614504;02/08/24;16:01:44;1.019;0.163;0.14;-0.25045475363731384;0.3433062732219696;-0.18448130786418915
01:00:0A:00:00:00:00;1722614505;02/08/24;16:01:45;0.908;0.037;0.085;-1.1398744583129883;-0.5143485069274902;-0.04398229718208313
01:00:0A:00:00:00:00;1722614506;02/08/24;16:01:46;1.032;-0.032;0.127;-0.8210028409957886;-0.5656611919403076;0.0659734457731247
01:00:0A:00:00:00:00;1722614507;02/08/24;16:01:47;0.891;-0.041;0.119;0.19425514340400696;-0.13805554807186127;0.14538592100143433
01:00:0A:00:00:00:00;1722614508;02/08/24;16:01:48;0.999;-0.13;0.164;-0.028099799528717995;-0.006108652334660292;-0.08185594528913498
01:00:0A:00:00:00:00;1722614509;02/08/24;16:01:49;1.016;-0.129;0.203;-0.0073303827084600925;0.08429940044879913;-0.08796459436416626
01:00:0A:00:00:00:00;1722614510;02/08/24;16:01:50;0.991;-0.041;0.25;-0.04398229718208313;0.01710422709584236;0.012217304669320583
01:00:0A:00:00:00:00;1722614511;02/08/24;16:01:51;0.989;-0.052;0.236;0.0073303827084600925;-0.00855211354792118;0.004886921960860491
01:00:0A:00:00:00:00;1722614512;02/08/24;16:01:52;0.793;-0.278;0.092;-1.330464482307434;-0.08185594528913498;-0.8063421249389648
01:00:0A:00:00:00:00;1722614513;02/08/24;16:01:53;1.016;-0.045;0.076;0.012217304669320583;-0.05864306166768074;0.0757472887635231
01:00:0A:00:00:00:00;1722614514;02/08/24;16:01:54;1.014;-0.027;0.118;0.00855211354792118;0.02321287989616394;-0.02687807008624077
01:00:0A:00:00:00:00;1722614515;02/08/24;16:01:55;1.015;-0.04;0.098;0.004886921960860491;-0.009773843921720982;0.0073303827084600925
01:00:0A:00:00:00:00;1722614516;02/08/24;16:01:56;1.015;-0.032;0.105;0.006108652334660292;-0.0073303827084600925;0.004886921960860491
01:00:0A:00:00:00:00;1722614517;02/08/24;16:01:57;1.015;-0.031;0.106;0.006108652334660292;-0.0036651913542300463;0.0012217304902151227
01:00:0A:00:00:00:00;1722614518;02/08/24;16:01:58;1.015;-0.031;0.105;0.006108652334660292;-0.0036651913542300463;0.0012217304902151227
01:00:0A:00:00:00:00;1722614519;02/08/24;16:01:59;1.014;-0.031;0.105;0.006108652334660292;-0.0036651913542300463;0.0
01:00:0A:00:00:00:00;1722614520;02/08/24;16:02:00;1.015;-0.03;0.106;0.006108652334660292;-0.0036651913542300463;0.0
01:00:0A:00:00:00:00;1722614521;02/08/24;16:02:01;1.014;-0.032;0.105;0.006108652334660292;-0.0036651913542300463;0.0
01:00:0A:00:00:00:00;1722614522;02/08/24;16:02:02;1.013;-0.031;0.105;0.006108652334660292;-0.0036651913542300463;0.0
01:00:0A:00:00:00:00;1722614523;02/08/24;16:02:03;1.015;-0.032;0.107;0.006108652334660292;-0.0036651913542300463;0.0
01:00:0A:00:00:00:00;1722614524;02/08/24;16:02:04;1.013;-0.032;0.107;0.006108652334660292;-0.0036651913542300463;0.0
01:00:0A:00:00:00:00;1722614525;02/08/24;16:02:05;1.015;-0.031;0.105;0.006108652334660292;-0.0024434609804302454;0.0
01:00:0A:00:00:00:00;1722614526;02/08/24;16:02:06;1.015;-0.031;0.105;0.006108652334660292;-0.0036651913542300463;0.0
01:00:0A:00:00:00:00;1722614527;02/08/24;16:02:07;1.015;-0.031;0.106;0.006108652334660292;-0.0024434609804302454;0.0
01:00:0A:00:00:00:00;1722614528;02/08/24;16:02:08;1.015;-0.031;0.106;0.006108652334660292;-0.0036651913542300463;0.0
01:00:0A:00:00:00:00;1722614529;02/08/24;16:02:09;1.015;-0.03;0.105;0.006108652334660292;-0.0036651913542300463;0.0
01:00:0A:00:00:00:00;1722614530;02/08/24;16:02:10;1.015;-0.03;0.106;0.006108652334660292;-0.0036651913542300463;0.0
01:00:0A:00:00:00:00;1722614531;02/08/24;16:02:11;1.015;-0.034;0.103;0.006108652334660292;-0.0036651913542300463;0.0
01:00:0A:00:00:00:00;1722614532;02/08/24;16:02:12;1.015;-0.031;0.106;0.006108652334660292;-0.0024434609804302454;-0.0012217304902151227
01:00:0A:00:00:00:00;1722614533;02/08/24;16:02:13;1.015;-0.032;0.104;0.006108652334660292;-0.0036651913542300463;0.0012217304902151227
01:00:0A:00:00:00:00;1722614534;02/08/24;16:02:14;1.015;-0.031;0.107;0.006108652334660292;-0.0024434609804302454;0.0
01:00:0A:00:00:00:00;1722614535;02/08/24;16:02:15;1.015;-0.03;0.106;0.006108652334660292;-0.0036651913542300463;0.0012217304902151227
01:00:0A:00:00:00:00;1722614536;02/08/24;16:02:16;1.015;-0.032;0.106;0.006108652334660292;-0.0036651913542300463;0.0
01:00:0A:00:00:00:00;1722614537;02/08/24;16:02:17;1.014;-0.031;0.106;0.006108652334660292;-0.0036651913542300463;0.0
01:00:0A:00:00:00:00;1722614538;02/08/24;16:02:18;1.014;-0.03;0.106;0.006108652334660292;-0.0036651913542300463;0.0
01:00:0A:00:00:00:00;1722614539;02/08/24;16:02:19;1.015;-0.031;0.105;0.006108652334660292;-0.0036651913542300463;0.0
01:00:0A:00:00:00:00;1722614540;02/08/24;16:02:20;1.015;-0.031;0.105;0.006108652334660292;-0.0024434609804302454;-0.0012217304902151227
01:00:0A:00:00:00:00;1722614541;02/08/24;16:02:21;1.014;-0.031;0.107;0.006108652334660292;-0.0036651913542300463;0.0
01:00:0A:00:00:00:00;1722614542;02/08/24;16:02:22;1.016;-0.032;0.105;0.006108652334660292;-0.004886921960860491;0.0012217304902151227
01:00:0A:00:00:00:00;1722614543;02/08/24;16:02:23;1.015;-0.031;0.106;0.006108652334660292;-0.0036651913542300463;0.0
01:00:0A:00:00:00:00;1722614544;02/08/24;16:02:24;1.014;-0.03;0.106;0.006108652334660292;-0.0036651913542300463;0.0
01:00:0A:00:00:00:00;1722614545;02/08/24;16:02:25;1.015;-0.031;0.106;0.006108652334660292;-0.0036651913542300463;0.0
01:00:0A:00:00:00:00;1722614546;02/08/24;16:02:26;1.015;-0.03;0.106;0.006108652334660292;-0.0036651913542300463;0.0
01:00:0A:00:00:00:00;1722614547;02/08/24;16:02:27;1.014;-0.031;0.106;0.006108652334660292;-0.0036651913542300463;0.0
01:00:0A:00:00:00:00;1722614548;02/08/24;16:02:28;1.016;-0.03;0.105;0.006108652334660292;-0.0036651913542300463;0.0
01:00:0A:00:00:00:00;1722614549;02/08/24;16:02:29;1.016;-0.031;0.106;0.006108652334660292;-0.0036651913542300463;0.0
01:00:0A:00:00:00:00;1722614550;02/08/24;16:02:30;1.015;-0.031;0.107;0.006108652334660292;-0.0024434609804302454;0.0
01:00:0A:00:00:00:00;1722614551;02/08/24;16:02:31;1.014;-0.03;0.106;0.006108652334660292;-0.0036651913542300463;0.0012217304902151227
01:00:0A:00:00:00:00;1722614552;02/08/24;16:02:32;1.016;-0.031;0.106;0.006108652334660292;-0.0036651913542300463;0.0
01:00:0A:00:00:00:00;1722614553;02/08/24;16:02:33;1.014;-0.031;0.105;0.006108652334660292;-0.0036651913542300463;0.0012217304902151227
01:00:0A:00:00:00:00;1722614554;02/08/24;16:02:34;1.014;-0.031;0.106;0.006108652334660292;-0.0024434609804302454;0.0
01:00:0A:00:00:00:00;1722614555;02/08/24;16:02:35;1.015;-0.031;0.106;0.006108652334660292;-0.0036651913542300463;0.0
01:00:0A:00:00:00:00;1722614556;02/08/24;16:02:36;1.014;-0.031;0.106;0.006108652334660292;-0.0036651913542300463;0.0
01:00:0A:00:00:00:00;1722614557;02/08/24;16:02:37;1.014;-0.031;0.107;0.006108652334660292;-0.0036651913542300463;0.0012217304902151227
01:00:0A:00:00:00:00;1722614558;02/08/24;16:02:38;1.015;-0.031;0.106;0.006108652334660292;-0.0024434609804302454;0.0
01:00:0A:00:00:00:00;1722614559;02/08/24;16:02:39;1.015;-0.032;0.106;0.006108652334660292;-0.0036651913542300463;0.0
01:00:0A:00:00:00:00;1722614560;02/08/24;16:02:40;1.014;-0.032;0.105;0.006108652334660292;-0.0036651913542300463;0.0
01:00:0A:00:00:00:00;1722614561;02/08/24;16:02:41;1.015;-0.031;0.106;0.006108652334660292;-0.0024434609804302454;0.0
01:00:0A:00:00:00:00;1722614562;02/08/24;16:02:42;1.015;-0.031;0.107;0.006108652334660292;-0.0024434609804302454;0.0
01:00:0A:00:00:00:00;1722614563;02/08/24;16:02:43;1.014;-0.032;0.106;0.006108652334660292;-0.0036651913542300463;0.0
01:00:0A:00:00:00:00;1722614564;02/08/24;16:02:44;1.016;-0.032;0.106;0.006108652334660292;-0.0036651913542300463;0.0
01:00:0A:00:00:00:00;1722614565;02/08/24;16:02:45;1.013;-0.031;0.107;0.006108652334660292;-0.0036651913542300463;0.0
01:00:0A:00:00:00:00;1722614566;02/08/24;16:02:46;1.015;-0.031;0.105;0.006108652334660292;-0.0024434609804302454;0.0
01:00:0A:00:00:00:00;1722614567;02/08/24;16:02:47;1.015;-0.032;0.105;0.006108652334660292;-0.0036651913542300463;0.0012217304902151227
01:00:0A:00:00:00:00;1722614568;02/08/24;16:02:48;1.014;-0.031;0.106;0.006108652334660292;-0.0036651913542300463;0.0
01:00:0A:00:00:00:00;1722614569;02/08/24;16:02:49;1.015;-0.031;0.105;0.006108652334660292;-0.004886921960860491;0.0012217304902151227
01:00:0A:00:00:00:00;1722614570;02/08/24;16:02:50;1.015;-0.03;0.106;0.006108652334660292;-0.0024434609804302454;0.0
01:00:0A:00:00:00:00;1722614571;02/08/24;16:02:51;1.015;-0.032;0.105;0.006108652334660292;-0.0036651913542300463;0.0
01:00:0A:00:00:00:00;1722614572;02/08/24;16:02:52;1.014;-0.032;0.106;0.006108652334660292;-0.0036651913542300463;0.0
01:00:0A:00:00:00:00;1722614573;02/08/24;16:02:53;1.015;-0.031;0.105;0.006108652334660292;-0.0036651913542300463;0.0
01:00:0A:00:00:00:00;1722614574;02/08/24;16:02:54;1.015;-0.03;0.106;0.006108652334660292;-0.0036651913542300463;0.0
01:00:0A:00:00:00:00;1722614575;02/08/24;16:02:55;1.015;-0.031;0.106;0.006108652334660292;-0.0036651913542300463;0.0
01:00:0A:00:00:00:00;1722614576;02/08/24;16:02:56;1.014;-0.031;0.106;0.006108652334660292;-0.0036651913542300463;0.0
01:00:0A:00:00:00:00;1722614577;02/08/24;16:02:57;1.015;-0.031;0.106;0.006108652334660292;-0.0036651913542300463;0.0
01:00:0A:00:00:00:00;1722614578;02/08/24;16:02:58;1.015;-0.032;0.106;0.006108652334660292;-0.0036651913542300463;0.0
01:00:0A:00:00:00:00;1722614579;02/08/24;16:02:59;1.013;-0.031;0.106;0.006108652334660292;-0.0036651913542300463;0.0
01:00:0A:00:00:00:00;1722614580;02/08/24;16:03:00;1.015;-0.031;0.107;0.006108652334660292;-0.0024434609804302454;0.0
01:00:0A:00:00:00:00;1722614581;02/08/24;16:03:01;1.014;-0.031;0.106;0.006108652334660292;-0.0036651913542300463;0.0
01:00:0A:00:00:00:00;1722614582;02/08/24;16:03:02;1.014;-0.031;0.105;0.006108652334660292;-0.0036651913542300463;0.0
01:00:0A:00:00:00:00;1722614583;02/08/24;16:03:03;1.016;-0.031;0.107;0.006108652334660292;-0.0036651913542300463;0.0
01:00:0A:00:00:00:00;1722614584;02/08/24;16:03:04;1.015;-0.03;0.106;0.006108652334660292;-0.0024434609804302454;0.0
01:00:0A:00:00:00:00;1722614585;02/08/24;16:03:05;1.015;-0.031;0.105;0.006108652334660292;-0.0036651913542300463;0.0
01:00:0A:00:00:00:00;1722614586;02/08/24;16:03:06;1.015;-0.03;0.106;0.006108652334660292;-0.0036651913542300463;0.0
01:00:0A:00:00:00:00;1722614587;02/08/24;16:03:07;1.014;-0.031;0.106;0.006108652334660292;-0.0036651913542300463;0.0
01:00:0A:00:00:00:00;1722614588;02/08/24;16:03:08;1.015;-0.031;0.105;0.006108652334660292;-0.0036651913542300463;0.0
01:00:0A:00:00:00:00;1722614589;02/08/24;16:03:09;1.015;-0.031;0.107;0.006108652334660292;-0.0036651913542300463;0.0
01:00:0A:00:00:00:00;1722614590;02/08/24;16:03:10;1.015;-0.031;0.107;0.006108652334660292;-0.0024434609804302454;0.0
01:00:0A:00:00:00:00;1722614591;02/08/24;16:03:11;1.014;-0.033;0.106;0.006108652334660292;-0.0036651913542300463;0.0012217304902151227
01:00:0A:00:00:00:00;1722614592;02/08/24;16:03:12;1.014;-0.032;0.106;0.006108652334660292;-0.0036651913542300463;0.0
01:00:0A:00:00:00:00;1722614593;02/08/24;16:03:13;1.014;-0.031;0.105;0.006108652334660292;-0.0036651913542300463;0.0
01:00:0A:00:00:00:00;1722614594;02/08/24;16:03:14;1.015;-0.031;0.105;0.006108652334660292;-0.0024434609804302454;0.0
01:00:0A:00:00:00:00;1722614595;02/08/24;16:03:15;1.014;-0.031;0.106;0.006108652334660292;-0.0036651913542300463;0.0
01:00:0A:00:00:00:00;1722614596;02/08/24;16:03:16;1.015;-0.03;0.105;0.006108652334660292;-0.0036651913542300463;0.0
01:00:0A:00:00:00:00;1722614597;02/08/24;16:03:17;1.014;-0.031;0.106;0.006108652334660292;-0.0036651913542300463;0.0
01:00:0A:00:00:00:00;1722614598;02/08/24;16:03:18;1.014;-0.03;0.106;0.006108652334660292;-0.0024434609804302454;0.0
01:00:0A:00:00:00:00;1722614599;02/08/24;16:03:19;1.015;-0.031;0.106;0.006108652334660292;-0.0036651913542300463;0.0
01:00:0A:00:00:00:00;1722614600;02/08/24;16:03:20;1.014;-0.031;0.106;0.006108652334660292;-0.0036651913542300463;0.0
01:00:0A:00:00:00:00;1722614601;02/08/24;16:03:21;1.014;-0.032;0.106;0.006108652334660292;-0.0036651913542300463;0.0
01:00:0A:00:00:00:00;1722614602;02/08/24;16:03:22;1.014;-0.03;0.106;0.006108652334660292;-0.0036651913542300463;0.0
01:00:0A:00:00:00:00;1722614603;02/08/24;16:03:23;1.014;-0.032;0.106;0.006108652334660292;-0.0036651913542300463;0.0
01:00:0A:00:00:00:00;1722614604;02/08/24;16:03:24;1.015;-0.032;0.105;0.006108652334660292;-0.0036651913542300463;0.0
01:00:0A:00:00:00:00;1722614605;02/08/24;16:03:25;1.015;-0.03;0.105;0.006108652334660292;-0.0036651913542300463;0.0
01:00:0A:00:00:00:00;1722614606;02/08/24;16:03:26;1.015;-0.031;0.104;0.006108652334660292;-0.0036651913542300463;0.0
01:00:0A:00:00:00:00;1722614607;02/08/24;16:03:27;1.014;-0.031;0.105;0.006108652334660292;-0.0036651913542300463;0.0
01:00:0A:00:00:00:00;1722614608;02/08/24;16:03:28;1.014;-0.031;0.105;0.006108652334660292;-0.0036651913542300463;0.0012217304902151227
01:00:0A:00:00:00:00;1722614609;02/08/24;16:03:29;1.014;-0.03;0.106;0.006108652334660292;-0.0036651913542300463;0.0012217304902151227
01:00:0A:00:00:00:00;1722614610;02/08/24;16:03:30;1.014;-0.029;0.106;0.006108652334660292;-0.0036651913542300463;0.0
01:00:0A:00:00:00:00;1722614611;02/08/24;16:03:31;1.015;-0.031;0.105;0.006108652334660292;-0.0024434609804302454;0.0
01:00:0A:00:00:00:00;1722614612;02/08/24;16:03:32;1.015;-0.031;0.105;0.006108652334660292;-0.0036651913542300463;0.0012217304902151227
01:00:0A:00:00:00:00;1722614613;02/08/24;16:03:33;1.014;-0.032;0.106;0.006108652334660292;-0.0036651913542300463;0.0
01:00:0A:00:00:00:00;1722614614;02/08/24;16:03:34;1.014;-0.03;0.105;0.006108652334660292;-0.0024434609804302454;0.0
01:00:0A:00:00:00:00;1722614615;02/08/24;16:03:35;1.014;-0.029;0.107;0.006108652334660292;-0.0024434609804302454;0.0
01:00:0A:00:00:00:00;1722614616;02/08/24;16:03:36;1.016;-0.032;0.106;0.006108652334660292;-0.0036651913542300463;0.0
01:00:0A:00:00:00:00;1722614617;02/08/24;16:03:37;1.015;-0.03;0.106;0.006108652334660292;-0.0036651913542300463;0.0
01:00:0A:00:00:00:00;1722614618;02/08/24;16:03:38;1.016;-0.031;0.106;0.006108652334660292;-0.0036651913542300463;0.0
01:00:0A:00:00:00:00;1722614619;02/08/24;16:03:39;1.015;-0.032;0.108;0.006108652334660292;-0.0036651913542300463;0.0012217304902151227
01:00:0A:00:00:00:00;1722614620;02/08/24;16:03:40;1.014;-0.029;0.104;0.006108652334660292;-0.0036651913542300463;0.0
01:00:0A:00:00:00:00;1722614621;02/08/24;16:03:41;1.015;-0.029;0.106;0.006108652334660292;-0.0024434609804302454;0.0
01:00:0A:00:00:00:00;1722614622;02/08/24;16:03:42;1.014;-0.031;0.106;0.006108652334660292;-0.0036651913542300463;0.0
01:00:0A:00:00:00:00;1722614623;02/08/24;16:03:43;1.014;-0.031;0.107;0.006108652334660292;-0.0036651913542300463;0.0
01:00:0A:00:00:00:00;1722614624;02/08/24;16:03:44;1.014;-0.032;0.107;0.006108652334660292;-0.0036651913542300463;0.0
01:00:0A:00:00:00:00;1722614625;02/08/24;16:03:45;1.014;-0.03;0.104;0.006108652334660292;-0.0036651913542300463;0.0
01:00:0A:00:00:00:00;1722614626;02/08/24;16:03:46;1.015;-0.032;0.106;0.006108652334660292;-0.0036651913542300463;0.0
01:00:0A:00:00:00:00;1722614627;02/08/24;16:03:47;1.014;-0.031;0.106;0.006108652334660292;-0.0036651913542300463;0.0
01:00:0A:00:00:00:00;1722614628;02/08/24;16:03:48;1.015;-0.031;0.105;0.006108652334660292;-0.0036651913542300463;0.0
01:00:0A:00:00:00:00;1722614629;02/08/24;16:03:49;1.015;-0.031;0.106;0.006108652334660292;-0.0036651913542300463;0.0012217304902151227
01:00:0A:00:00:00:00;1722614630;02/08/24;16:03:50;1.016;-0.031;0.107;0.006108652334660292;-0.0036651913542300463;0.0
01:00:0A:00:00:00:00;1722614631;02/08/24;16:03:51;1.015;-0.032;0.106;0.006108652334660292;-0.0036651913542300463;0.0012217304902151227
01:00:0A:00:00:00:00;1722614632;02/08/24;16:03:52;1.014;-0.03;0.107;0.006108652334660292;-0.0036651913542300463;0.0
01:00:0A:00:00:00:00;1722614633;02/08/24;16:03:53;1.015;-0.03;0.108;0.006108652334660292;-0.0012217304902151227;-0.0024434609804302454
01:00:0A:00:00:00:00;1722614634;02/08/24;16:03:54;1.014;-0.031;0.105;0.006108652334660292;-0.004886921960860491;0.0024434609804302454
01:00:0A:00:00:00:00;1722614635;02/08/24;16:03:55;1.015;-0.032;0.106;0.006108652334660292;-0.0024434609804302454;-0.0012217304902151227
01:00:0A:00:00:00:00;1722614636;02/08/24;16:03:56;1.014;-0.033;0.105;0.006108652334660292;-0.0036651913542300463;0.0012217304902151227
01:00:0A:00:00:00:00;1722614637;02/08/24;16:03:57;1.014;-0.031;0.107;0.006108652334660292;-0.0036651913542300463;0.0
01:00:0A:00:00:00:00;1722614638;02/08/24;16:03:58;1.014;-0.032;0.106;0.006108652334660292;-0.0024434609804302454;0.0
01:00:0A:00:00:00:00;1722614639;02/08/24;16:03:59;1.014;-0.032;0.106;0.006108652334660292;-0.0036651913542300463;0.0
01:00:0A:00:00:00:00;1722614640;02/08/24;16:04:00;1.014;-0.032;0.106;0.006108652334660292;-0.0036651913542300463;0.0
01:00:0A:00:00:00:00;1722614641;02/08/24;16:04:01;1.014;-0.029;0.105;0.006108652334660292;-0.0036651913542300463;0.0
01:00:0A:00:00:00:00;1722614642;02/08/24;16:04:02;1.014;-0.031;0.105;0.006108652334660292;-0.0036651913542300463;0.0
01:00:0A:00:00:00:00;1722614643;02/08/24;16:04:03;1.015;-0.031;0.105;0.006108652334660292;-0.0036651913542300463;0.0
01:00:0A:00:00:00:00;1722614644;02/08/24;16:04:04;1.015;-0.031;0.106;0.006108652334660292;-0.0036651913542300463;0.0
01:00:0A:00:00:00:00;1722614645;02/08/24;16:04:05;1.015;-0.03;0.106;0.006108652334660292;-0.0036651913542300463;0.0
01:00:0A:00:00:00:00;1722614646;02/08/24;16:04:06;1.014;-0.03;0.106;0.006108652334660292;-0.0036651913542300463;0.0
01:00:0A:00:00:00:00;1722614647;02/08/24;16:04:07;1.015;-0.031;0.107;0.006108652334660292;-0.0036651913542300463;0.0
01:00:0A:00:00:00:00;1722614648;02/08/24;16:04:08;1.014;-0.032;0.105;0.006108652334660292;-0.0036651913542300463;0.0
01:00:0A:00:00:00:00;1722614649;02/08/24;16:04:09;1.014;-0.031;0.106;0.006108652334660292;-0.0036651913542300463;0.0
01:00:0A:00:00:00:00;1722614650;02/08/24;16:04:10;1.015;-0.031;0.105;0.006108652334660292;-0.0036651913542300463;0.0
01:00:0A:00:00:00:00;1722614651;02/08/24;16:04:11;1.014;-0.031;0.105;0.006108652334660292;-0.0036651913542300463;0.0
01:00:0A:00:00:00:00;1722614652;02/08/24;16:04:12;1.015;-0.03;0.105;0.006108652334660292;-0.0036651913542300463;0.0
01:00:0A:00:00:00:00;1722614653;02/08/24;16:04:13;1.016;-0.032;0.105;0.006108652334660292;-0.0036651913542300463;0.0
01:00:0A:00:00:00:00;1722614654;02/08/24;16:04:14;1.016;-0.031;0.106;0.006108652334660292;-0.0036651913542300463;0.0
01:00:0A:00:00:00:00;1722614655;02/08/24;16:04:15;1.015;-0.031;0.106;0.006108652334660292;-0.0036651913542300463;0.0
01:00:0A:00:00:00:00;1722614656;02/08/24;16:04:16;1.014;-0.031;0.106;0.006108652334660292;-0.0036651913542300463;0.0
01:00:0A:00:00:00:00;1722614657;02/08/24;16:04:17;1.015;-0.03;0.106;0.006108652334660292;-0.0036651913542300463;0.0
01:00:0A:00:00:00:00;1722614658;02/08/24;16:04:18;1.015;-0.03;0.105;0.006108652334660292;-0.0036651913542300463;0.0
01:00:0A:00:00:00:00;1722614659;02/08/24;16:04:19;1.014;-0.032;0.106;0.006108652334660292;-0.0036651913542300463;0.0
01:00:0A:00:00:00:00;1722614660;02/08/24;16:04:20;1.015;-0.032;0.105;0.006108652334660292;-0.004886921960860491;0.0012217304902151227
01:00:0A:00:00:00:00;1722614661;02/08/24;16:04:21;1.016;-0.031;0.104;0.006108652334660292;-0.0036651913542300463;0.0012217304902151227
01:00:0A:00:00:00:00;1722614662;02/08/24;16:04:22;1.015;-0.031;0.105;0.006108652334660292;-0.0036651913542300463;0.0012217304902151227
01:00:0A:00:00:00:00;1722614663;02/08/24;16:04:23;1.015;-0.031;0.106;0.006108652334660292;-0.0036651913542300463;0.0012217304902151227
01:00:0A:00:00:00:00;1722614664;02/08/24;16:04:24;1.015;-0.032;0.107;0.006108652334660292;-0.0036651913542300463;0.0
01:00:0A:00:00:00:00;1722614665;02/08/24;16:04:25;1.015;-0.031;0.104;0.006108652334660292;-0.0036651913542300463;0.0
01:00:0A:00:00:00:00;1722614666;02/08/24;16:04:26;1.014;-0.032;0.106;0.006108652334660292;-0.0036651913542300463;0.0012217304902151227
01:00:0A:00:00:00:00;1722614667;02/08/24;16:04:27;1.015;-0.032;0.105;0.006108652334660292;-0.0036651913542300463;0.0
01:00:0A:00:00:00:00;1722614668;02/08/24;16:04:28;1.014;-0.029;0.107;0.006108652334660292;-0.0024434609804302454;0.0
01:00:0A:00:00:00:00;1722614669;02/08/24;16:04:29;1.015;-0.031;0.105;0.006108652334660292;-0.0024434609804302454;0.0
01:00:0A:00:00:00:00;1722614670;02/08/24;16:04:30;1.014;-0.031;0.105;0.006108652334660292;-0.0036651913542300463;0.0012217304902151227
01:00:0A:00:00:00:00;1722614671;02/08/24;16:04:31;1.015;-0.031;0.106;0.006108652334660292;-0.0024434609804302454;0.0
01:00:0A:00:00:00:00;1722614672;02/08/24;16:04:32;1.016;-0.03;0.106;0.006108652334660292;-0.0036651913542300463;0.0
01:00:0A:00:00:00:00;1722614673;02/08/24;16:04:33;1.015;-0.032;0.106;0.006108652334660292;-0.0036651913542300463;0.0
01:00:0A:00:00:00:00;1722614674;02/08/24;16:04:34;1.015;-0.03;0.106;0.006108652334660292;-0.0036651913542300463;0.0
01:00:0A:00:00:00:00;1722614675;02/08/24;16:04:35;1.015;-0.03;0.106;0.006108652334660292;-0.0036651913542300463;0.0
01:00:0A:00:00:00:00;1722614676;02/08/24;16:04:36;1.014;-0.03;0.106;0.006108652334660292;-0.0036651913542300463;0.0
01:00:0A:00:00:00:00;1722614677;02/08/24;16:04:37;1.014;-0.031;0.106;0.006108652334660292;-0.0036651913542300463;0.0
01:00:0A:00:00:00:00;1722614678;02/08/24;16:04:38;1.014;-0.031;0.106;0.006108652334660292;-0.0036651913542300463;0.0
01:00:0A:00:00:00:00;1722614679;02/08/24;16:04:39;1.015;-0.031;0.106;0.006108652334660292;-0.0036651913542300463;0.0
01:00:0A:00:00:00:00;1722614680;02/08/24;16:04:40;1.015;-0.03;0.106;0.006108652334660292;-0.0036651913542300463;0.0012217304902151227
01:00:0A:00:00:00:00;1722614681;02/08/24;16:04:41;1.015;-0.03;0.106;0.006108652334660292;-0.0036651913542300463;0.0
01:00:0A:00:00:00:00;1722614682;02/08/24;16:04:42;1.014;-0.031;0.105;0.006108652334660292;-0.0036651913542300463;0.0
01:00:0A:00:00:00:00;1722614683;02/08/24;16:04:43;1.015;-0.031;0.107;0.006108652334660292;-0.0036651913542300463;0.0
01:00:0A:00:00:00:00;1722614684;02/08/24;16:04:44;1.014;-0.03;0.106;0.006108652334660292;-0.0024434609804302454;-0.0012217304902151227
01:00:0A:00:00:00:00;1722614685;02/08/24;16:04:45;1.014;-0.031;0.106;0.006108652334660292;-0.0012217304902151227;0.0
01:00:0A:00:00:00:00;1722614686;02/08/24;16:04:46;1.016;-0.031;0.106;0.006108652334660292;-0.0036651913542300463;0.0012217304902151227
01:00:0A:00:00:00:00;1722614687;02/08/24;16:04:47;1.015;-0.031;0.105;0.006108652334660292;-0.0036651913542300463;0.0
01:00:0A:00:00:00:00;1722614688;02/08/24;16:04:48;1.015;-0.032;0.106;0.006108652334660292;-0.0036651913542300463;0.0
01:00:0A:00:00:00:00;1722614689;02/08/24;16:04:49;1.013;-0.031;0.105;0.006108652334660292;-0.0036651913542300463;0.0
01:00:0A:00:00:00:00;1722614690;02/08/24;16:04:50;1.014;-0.03;0.106;0.006108652334660292;-0.0036651913542300463;0.0
01:00:0A:00:00:00:00;1722614691;02/08/24;16:04:51;1.014;-0.03;0.108;0.006108652334660292;-0.0036651913542300463;0.0
01:00:0A:00:00:00:00;1722614692;02/08/24;16:04:52;1.015;-0.032;0.107;0.006108652334660292;-0.0036651913542300463;0.0
01:00:0A:00:00:00:00;1722614693;02/08/24;16:04:53;1.015;-0.031;0.106;0.006108652334660292;-0.0036651913542300463;0.0
01:00:0A:00:00:00:00;1722614694;02/08/24;16:04:54;1.015;-0.031;0.105;0.006108652334660292;-0.0036651913542300463;0.0
01:00:0A:00:00:00:00;1722614695;02/08/24;16:04:55;1.015;-0.03;0.106;0.006108652334660292;-0.0036651913542300463;0.0
01:00:0A:00:00:00:00;1722614696;02/08/24;16:04:56;1.013;-0.031;0.105;0.006108652334660292;-0.0036651913542300463;0.0
01:00:0A:00:00:00:00;1722614697;02/08/24;16:04:57;1.015;-0.031;0.106;0.006108652334660292;-0.0036651913542300463;0.0
01:00:0A:00:00:00:00;1722614698;02/08/24;16:04:58;1.016;-0.031;0.106;0.006108652334660292;-0.0036651913542300463;0.0012217304902151227
01:00:0A:00:00:00:00;1722614699;02/08/24;16:04:59;1.015;-0.032;0.106;0.006108652334660292;-0.0036651913542300463;0.0
01:00:0A:00:00:00:00;1722614700;02/08/24;16:05:00;1.015;-0.03;0.106;0.006108652334660292;-0.0036651913542300463;0.0
