Source;Epoch timestamp (UTC);Date;Time (UTC);Accel X (G);Accel Y (G);Accel Z (G);Gyro X (rad/s);Gyro Y (rad/s);Gyro Z (rad/s)
01:00:0A:00:00:00:00;1724371207;23/08/24;00:00:07;1.005;0.103;0.264;-0.5485569834709167;-0.42638394236564636;0.13316862285137177
01:00:0A:00:00:00:00;1724371208;23/08/24;00:00:08;1.029;-0.029;-0.201;-0.4715879559516907;0.20525071024894714;0.012217304669320583
01:00:0A:00:00:00:00;1724371209;23/08/24;00:00:09;1.041;-0.074;0.271;-0.4508185386657715;0.036651913076639175;-0.02687807008624077
01:00:0A:00:00:00:00;1724371210;23/08/24;00:00:10;1.065;0.047;-0.013;-0.4752531349658966;-0.21502456068992615;-0.08307767659425735
01:00:0A:00:00:00:00;1724371211;23/08/24;00:00:11;1.04;-0.062;0.07;-0.4544837474822998;0.06352998316287994;0.13561207056045532
01:00:0A:00:00:00:00;1724371212;23/08/24;00:00:12;1.007;-0.048;0.128;-0.4056144952774048;0.07330382615327835;-0.06230825558304787
01:00:0A:00:00:00:00;1724371213;23/08/24;00:00:13;0.963;0.003;0.025;-0.4056144952774048;-0.1918116807937622;-0.04153883829712868
01:00:0A:00:00:00:00;1724371214;23/08/24;00:00:14;0.969;-0.026;0.068;-0.3799581527709961;0.14782939851284027;0.18570303916931152
01:00:0A:00:00:00:00;1724371215;23/08/24;00:00:15;0.997;-0.047;0.122;-0.3286454975605011;-0.05864306166768074;-0.15515977144241333
01:00:0A:00:00:00:00;1724371216;23/08/24;00:00:16;1.028;0.06;0.088;-0.33964109420776367;0.006108652334660292;-0.0073303827084600925
01:00:0A:00:00:00:00;1724371217;23/08/24;00:00:17;1.023;-0.047;0.045;-0.33108896017074585;0.015882495790719986;0.05619959905743599
01:00:0A:00:00:00:00;1724371218;23/08/24;00:00:18;1.003;-0.037;0.067;-0.27488934993743896;-0.004886921960860491;-0.14049901068210602
01:00:0A:00:00:00:00;1724371219;23/08/24;00:00:19;0.993;0.008;0.07;-0.2773328125476837;-0.05742133408784866;-0.06352998316287994
01:00:0A:00:00:00:00;1724371220;23/08/24;00:00:20;1.01;-0.024;0.038;-0.2724458873271942;-0.02932153083384037;-0.0024434609804302454
01:00:0A:00:00:00:00;1724371221;23/08/24;00:00:21;1.022;-0.023;0.062;-0.23335053026676178;0.018325956538319588;-0.0757472887635231
01:00:0A:00:00:00:00;1724371222;23/08/24;00:00:22;1.042;0.005;0.072;-0.2370157092809677;-0.040317103266716;-0.015882495790719986
01:00:0A:00:00:00:00;1724371223;23/08/24;00:00:23;1.042;-0.042;0.024;-0.22357667982578278;0.015882495790719986;0.06475171446800232
01:00:0A:00:00:00:00;1724371224;23/08/24;00:00:24;1.038;-0.054;0.094;-0.19058994948863983;0.03298672288656235;0.01710422709584236
01:00:0A:00:00:00:00;1724371225;23/08/24;00:00:25;1.038;0.039;0.063;-0.20891590416431427;-0.07330382615327835;-0.02321287989616394
01:00:0A:00:00:00:00;1724371226;23/08/24;00:00:26;1.003;-0.027;0.048;-0.22357667982578278;-0.0036651913542300463;0.13561207056045532
01:00:0A:00:00:00:00;1724371227;23/08/24;00:00:27;0.963;0.01;0.06;-0.1918116807937622;0.013439035043120384;-0.11239919811487198
01:00:0A:00:00:00:00;1724371228;23/08/24;00:00:28;0.971;0.019;0.077;-0.23457224667072296;-0.06963863223791122;0.07696902006864548
01:00:0A:00:00:00:00;1724371229;23/08/24;00:00:29;1.024;-0.027;0.062;-0.21502456068992615;0.04764748737215996;-0.051312677562236786
01:00:0A:00:00:00:00;1724371230;23/08/24;00:00:30;1.044;0.006;0.104;-0.22357667982578278;-0.021991148591041565;-0.03298672288656235
01:00:0A:00:00:00:00;1724371231;23/08/24;00:00:31;1.04;-0.014;0.053;-0.22846359014511108;-0.05497787147760391;0.009773843921720982
01:00:0A:00:00:00:00;1724371232;23/08/24;00:00:32;1.017;-0.046;0.087;-0.20402899384498596;0.015882495790719986;-0.019547687843441963
01:00:0A:00:00:00:00;1724371233;23/08/24;00:00:33;1.005;-0.038;0.095;-0.20036379992961884;-0.030543262138962746;-0.014660765416920185
01:00:0A:00:00:00:00;1724371234;23/08/24;00:00:34;1.013;-0.003;0.066;-0.19792033731937408;-0.013439035043120384;0.039095375686883926
01:00:0A:00:00:00:00;1724371235;23/08/24;00:00:35;0.997;0.115;0.007;0.042760565876960754;-0.08307767659425735;-0.12461651116609573
01:00:0A:00:00:00:00;1724371236;23/08/24;00:00:36;1.004;0.089;0.004;0.36163222789764404;0.042760565876960754;0.08429940044879913
01:00:0A:00:00:00:00;1724371237;23/08/24;00:00:37;1.013;-0.011;0.066;0.5387831330299377;0.05009094998240471;0.051312677562236786
01:00:0A:00:00:00:00;1724371238;23/08/24;00:00:38;1.004;0.016;0.097;0.4789183437824249;-0.040317103266716;0.0036651913542300463
01:00:0A:00:00:00:00;1724371239;23/08/24;00:00:39;1.0;-0.009;0.023;0.4349360466003418;-0.039095375686883926;0.0354301817715168
01:00:0A:00:00:00:00;1724371240;23/08/24;00:00:40;1.009;-0.017;0.068;0.42149701714515686;-0.006108652334660292;-0.030543262138962746
01:00:0A:00:00:00:00;1724371241;23/08/24;00:00:41;1.012;0.023;0.082;0.3640756905078888;-0.05864306166768074;0.06230825558304787
01:00:0A:00:00:00:00;1724371242;23/08/24;00:00:42;1.017;-0.025;0.078;0.34697145223617554;0.02932153083384037;0.004886921960860491
01:00:0A:00:00:00:00;1724371243;23/08/24;00:00:43;1.027;-0.007;0.081;0.322536826133728;-0.05497787147760391;-0.07696902006864548
01:00:0A:00:00:00:00;1724371244;23/08/24;00:00:44;1.038;-0.007;0.059;0.27977627515792847;-0.02076941914856434;0.05497787147760391
01:00:0A:00:00:00:00;1724371245;23/08/24;00:00:45;1.016;-0.039;0.096;0.2626720666885376;0.06352998316287994;0.07330382615327835
01:00:0A:00:00:00:00;1724371246;23/08/24;00:00:46;1.002;0.009;0.05;0.24068090319633484;-0.04764748737215996;-0.02321287989616394
01:00:0A:00:00:00:00;1724371247;23/08/24;00:00:47;1.0;-0.01;0.043;0.21991148591041565;0.018325956538319588;0.03787364438176155
01:00:0A:00:00:00:00;1724371248;23/08/24;00:00:48;1.012;-0.031;0.097;0.20402899384498596;-0.05742133408784866;-0.04153883829712868
01:00:0A:00:00:00:00;1724371249;23/08/24;00:00:49;1.022;-0.008;0.073;0.1771509200334549;-0.036651913076639175;0.013439035043120384
01:00:0A:00:00:00:00;1724371250;23/08/24;00:00:50;1.022;-0.032;0.066;0.16859880089759827;0.03787364438176155;0.0036651913542300463
01:00:0A:00:00:00:00;1724371251;23/08/24;00:00:51;1.009;-0.012;0.088;0.15027284622192383;-0.01710422709584236;-0.014660765416920185
01:00:0A:00:00:00:00;1724371252;23/08/24;00:00:52;1.01;-0.012;0.053;0.12950342893600464;-0.036651913076639175;0.036651913076639175
01:00:0A:00:00:00:00;1724371253;23/08/24;00:00:53;1.005;-0.02;0.077;0.13316862285137177;0.036651913076639175;0.0
01:00:0A:00:00:00:00;1724371254;23/08/24;00:00:54;0.994;-0.006;0.077;0.1160643920302391;-0.012217304669320583;-0.0036651913542300463
01:00:0A:00:00:00:00;1724371255;23/08/24;00:00:55;0.997;-0.009;0.054;0.09896016865968704;-0.02932153083384037;0.018325956538319588
01:00:0A:00:00:00:00;1724371256;23/08/24;00:00:56;1.037;-0.015;0.07;0.10506881773471832;0.014660765416920185;-0.042760565876960754
01:00:0A:00:00:00:00;1724371257;23/08/24;00:00:57;1.056;0.0;0.084;0.07819075137376785;-0.02687807008624077;-0.010995574295520782
01:00:0A:00:00:00:00;1724371258;23/08/24;00:00:58;1.045;-0.037;0.054;0.06108652427792549;-0.015882495790719986;0.036651913076639175
01:00:0A:00:00:00:00;1724371259;23/08/24;00:00:59;1.011;-0.005;0.077;0.05375614017248154;0.01710422709584236;-0.021991148591041565
01:00:0A:00:00:00:00;1724371260;23/08/24;00:01:00;0.981;-0.007;0.074;0.019547687843441963;-0.040317103266716;0.04153883829712868
01:00:0A:00:00:00:00;1724371261;23/08/24;00:01:01;0.991;-0.026;0.072;0.02076941914856434;0.018325956538319588;-0.02321287989616394
01:00:0A:00:00:00:00;1724371262;23/08/24;00:01:02;1.013;-0.012;0.071;0.004886921960860491;-0.015882495790719986;-0.0073303827084600925
01:00:0A:00:00:00:00;1724371263;23/08/24;00:01:03;1.024;-0.016;0.063;-0.010995574295520782;-0.03298672288656235;0.040317103266716
01:00:0A:00:00:00:00;1724371264;23/08/24;00:01:04;1.021;-0.024;0.078;-0.006108652334660292;-0.015882495790719986;-0.0012217304902151227
01:00:0A:00:00:00:00;1724371265;23/08/24;00:01:05;1.023;0.0;0.088;-0.013439035043120384;0.0012217304902151227;0.0
01:00:0A:00:00:00:00;1724371266;23/08/24;00:01:06;1.027;-0.01;0.064;-0.02076941914856434;-0.0024434609804302454;0.0012217304902151227
01:00:0A:00:00:00:00;1724371267;23/08/24;00:01:07;1.022;-0.022;0.076;-0.021991148591041565;-0.014660765416920185;-0.004886921960860491
01:00:0A:00:00:00:00;1724371268;23/08/24;00:01:08;1.015;-0.003;0.077;-0.030543262138962746;-0.028099799528717995;-0.0012217304902151227
01:00:0A:00:00:00:00;1724371269;23/08/24;00:01:09;1.009;-0.009;0.08;-0.039095375686883926;-0.013439035043120384;0.024434609338641167
01:00:0A:00:00:00:00;1724371270;23/08/24;00:01:10;1.012;-0.016;0.082;-0.03420845419168472;0.004886921960860491;-0.024434609338641167
01:00:0A:00:00:00:00;1724371271;23/08/24;00:01:11;1.02;-0.009;0.078;-0.04398229718208313;-0.0073303827084600925;0.006108652334660292
01:00:0A:00:00:00:00;1724371272;23/08/24;00:01:12;1.02;-0.033;0.069;-0.042760565876960754;-0.004886921960860491;0.01710422709584236
01:00:0A:00:00:00:00;1724371273;23/08/24;00:01:13;1.018;-0.017;0.077;-0.036651913076639175;0.004886921960860491;-0.0024434609804302454
01:00:0A:00:00:00:00;1724371274;23/08/24;00:01:14;1.013;-0.022;0.069;-0.039095375686883926;-0.00855211354792118;0.02076941914856434
01:00:0A:00:00:00:00;1724371275;23/08/24;00:01:15;1.009;-0.032;0.06;-0.03298672288656235;-0.0073303827084600925;0.030543262138962746
01:00:0A:00:00:00:00;1724371276;23/08/24;00:01:16;0.999;-0.019;0.066;-0.024434609338641167;-0.010995574295520782;0.0
01:00:0A:00:00:00:00;1724371277;23/08/24;00:01:17;0.994;-0.017;0.072;-0.030543262138962746;-0.045204028487205505;0.019547687843441963
01:00:0A:00:00:00:00;1724371278;23/08/24;00:01:18;1.005;-0.019;0.073;-0.024434609338641167;-0.013439035043120384;-0.012217304669320583
01:00:0A:00:00:00:00;1724371279;23/08/24;00:01:19;1.02;-0.015;0.08;-0.024434609338641167;-0.02321287989616394;-0.025656338781118393
01:00:0A:00:00:00:00;1724371280;23/08/24;00:01:20;1.038;-0.016;0.072;-0.03176499158143997;-0.024434609338641167;0.0073303827084600925
01:00:0A:00:00:00:00;1724371281;23/08/24;00:01:21;1.031;-0.028;0.071;-0.030543262138962746;0.006108652334660292;0.021991148591041565
01:00:0A:00:00:00:00;1724371282;23/08/24;00:01:22;1.023;-0.015;0.08;-0.03298672288656235;-0.0024434609804302454;0.0024434609804302454
01:00:0A:00:00:00:00;1724371283;23/08/24;00:01:23;1.014;-0.019;0.074;-0.040317103266716;-0.006108652334660292;0.019547687843441963
01:00:0A:00:00:00:00;1724371284;23/08/24;00:01:24;1.008;-0.025;0.068;-0.039095375686883926;-0.006108652334660292;0.006108652334660292
01:00:0A:00:00:00:00;1724371285;23/08/24;00:01:25;0.99;-0.009;0.077;-0.04153883829712868;0.0012217304902151227;-0.010995574295520782
01:00:0A:00:00:00:00;1724371286;23/08/24;00:01:26;0.985;-0.009;0.064;-0.05375614017248154;-0.02932153083384037;0.013439035043120384
01:00:0A:00:00:00:00;1724371287;23/08/24;00:01:27;1.012;-0.018;0.066;-0.051312677562236786;-0.004886921960860491;-0.012217304669320583
01:00:0A:00:00:00:00;1724371288;23/08/24;00:01:28;1.033;-0.014;0.079;-0.059864792972803116;-0.030543262138962746;0.004886921960860491
01:00:0A:00:00:00:00;1724371289;23/08/24;00:01:29;1.042;-0.013;0.072;-0.06352998316287994;-0.014660765416920185;0.014660765416920185
01:00:0A:00:00:00:00;1724371290;23/08/24;00:01:30;1.02;-0.012;0.07;-0.059864792972803116;0.013439035043120384;0.004886921960860491
01:00:0A:00:00:00:00;1724371291;23/08/24;00:01:31;1.009;-0.014;0.068;-0.06352998316287994;-0.009773843921720982;-0.0036651913542300463
01:00:0A:00:00:00:00;1724371292;23/08/24;00:01:32;1.005;-0.02;0.072;-0.06719517707824707;-0.02687807008624077;-0.0012217304902151227
01:00:0A:00:00:00:00;1724371293;23/08/24;00:01:33;1.011;-0.017;0.07;-0.06719517707824707;-0.013439035043120384;-0.006108652334660292
01:00:0A:00:00:00:00;1724371294;23/08/24;00:01:34;1.007;-0.015;0.078;-0.0708603635430336;0.004886921960860491;0.004886921960860491
01:00:0A:00:00:00:00;1724371295;23/08/24;00:01:35;1.002;-0.015;0.067;-0.0757472887635231;-0.009773843921720982;0.014660765416920185
01:00:0A:00:00:00:00;1724371296;23/08/24;00:01:36;1.004;-0.014;0.064;-0.07208210229873657;-0.0012217304902151227;-0.010995574295520782
01:00:0A:00:00:00:00;1724371297;23/08/24;00:01:37;1.011;-0.014;0.071;-0.0757472887635231;-0.024434609338641167;-0.0073303827084600925
01:00:0A:00:00:00:00;1724371298;23/08/24;00:01:38;1.023;-0.022;0.067;-0.0757472887635231;-0.014660765416920185;-0.0024434609804302454
01:00:0A:00:00:00:00;1724371299;23/08/24;00:01:39;1.027;-0.012;0.07;-0.0757472887635231;-0.009773843921720982;0.0012217304902151227
01:00:0A:00:00:00:00;1724371300;23/08/24;00:01:40;1.028;-0.008;0.071;-0.07696902006864548;-0.02076941914856434;-0.006108652334660292
01:00:0A:00:00:00:00;1724371301;23/08/24;00:01:41;1.029;-0.022;0.064;-0.07330382615327835;-0.015882495790719986;-0.01710422709584236
01:00:0A:00:00:00:00;1724371302;23/08/24;00:01:42;1.024;-0.018;0.073;-0.07330382615327835;-0.0024434609804302454;-0.0036651913542300463
01:00:0A:00:00:00:00;1724371303;23/08/24;00:01:43;1.004;-0.017;0.065;-0.07452555745840073;-0.006108652334660292;0.013439035043120384
01:00:0A:00:00:00:00;1724371304;23/08/24;00:01:44;0.995;-0.013;0.065;-0.07208210229873657;0.004886921960860491;0.012217304669320583
01:00:0A:00:00:00:00;1724371305;23/08/24;00:01:45;1.001;-0.007;0.064;-0.0708603635430336;-0.015882495790719986;-0.010995574295520782
01:00:0A:00:00:00:00;1724371306;23/08/24;00:01:46;1.02;-0.015;0.064;-0.07208210229873657;-0.018325956538319588;-0.006108652334660292
01:00:0A:00:00:00:00;1724371307;23/08/24;00:01:47;1.023;-0.02;0.071;-0.0708603635430336;-0.0073303827084600925;0.0024434609804302454
01:00:0A:00:00:00:00;1724371308;23/08/24;00:01:48;1.023;-0.007;0.067;-0.0708603635430336;-0.006108652334660292;0.00855211354792118
01:00:0A:00:00:00:00;1724371309;23/08/24;00:01:49;1.023;-0.009;0.07;-0.06963863223791122;-0.012217304669320583;0.0
01:00:0A:00:00:00:00;1724371310;23/08/24;00:01:50;1.023;-0.014;0.067;-0.06719517707824707;-0.0073303827084600925;-0.02076941914856434
01:00:0A:00:00:00:00;1724371311;23/08/24;00:01:51;1.023;-0.019;0.07;-0.06841690838336945;-0.00855211354792118;-0.004886921960860491
01:00:0A:00:00:00:00;1724371312;23/08/24;00:01:52;1.01;-0.019;0.071;-0.0708603635430336;-0.010995574295520782;0.02076941914856434
01:00:0A:00:00:00:00;1724371313;23/08/24;00:01:53;1.002;-0.014;0.069;-0.06719517707824707;-0.012217304669320583;0.013439035043120384
01:00:0A:00:00:00:00;1724371314;23/08/24;00:01:54;0.999;-0.009;0.074;-0.06475171446800232;-0.012217304669320583;-0.0024434609804302454
01:00:0A:00:00:00:00;1724371315;23/08/24;00:01:55;1.006;-0.014;0.064;-0.06352998316287994;-0.02076941914856434;-0.0073303827084600925
01:00:0A:00:00:00:00;1724371316;23/08/24;00:01:56;1.017;-0.013;0.065;-0.05864306166768074;-0.021991148591041565;0.0036651913542300463
01:00:0A:00:00:00:00;1724371317;23/08/24;00:01:57;1.021;-0.013;0.073;-0.05497787147760391;-0.021991148591041565;0.0
01:00:0A:00:00:00:00;1724371318;23/08/24;00:01:58;1.011;-0.029;0.094;0.02687807008624077;0.03176499158143997;0.04153883829712868
01:00:0A:00:00:00:00;1724371319;23/08/24;00:01:59;1.014;-0.052;0.12;0.13805554807186127;-0.012217304669320583;-0.004886921960860491
01:00:0A:00:00:00:00;1724371320;23/08/24;00:02:00;1.017;0.005;0.033;0.161268413066864;-0.07208210229873657;-0.03787364438176155
01:00:0A:00:00:00:00;1724371321;23/08/24;00:02:01;1.013;-0.007;0.058;0.15882496535778046;0.0757472887635231;0.059864792972803116
01:00:0A:00:00:00:00;1724371322;23/08/24;00:02:02;1.006;-0.026;0.105;0.14049901068210602;-0.045204028487205505;0.0073303827084600925
01:00:0A:00:00:00:00;1724371323;23/08/24;00:02:03;1.011;-0.005;0.04;0.13439035415649414;-0.0659734457731247;-0.01710422709584236
01:00:0A:00:00:00:00;1724371324;23/08/24;00:02:04;1.015;-0.011;0.067;0.1417207270860672;0.07696902006864548;0.014660765416920185
01:00:0A:00:00:00:00;1724371325;23/08/24;00:02:05;1.013;-0.017;0.111;0.11850785464048386;-0.03298672288656235;0.015882495790719986
01:00:0A:00:00:00:00;1724371326;23/08/24;00:02:06;1.016;-0.013;0.04;0.11239919811487198;-0.05864306166768074;0.009773843921720982
01:00:0A:00:00:00:00;1724371327;23/08/24;00:02:07;1.014;-0.008;0.064;0.1270599663257599;0.06230825558304787;-0.006108652334660292
01:00:0A:00:00:00:00;1724371328;23/08/24;00:02:08;1.019;-0.005;0.105;0.1014036238193512;-0.04886921867728233;0.013439035043120384
01:00:0A:00:00:00:00;1724371329;23/08/24;00:02:09;1.02;-0.025;0.041;0.1014036238193512;-0.02321287989616394;0.009773843921720982
01:00:0A:00:00:00:00;1724371330;23/08/24;00:02:10;1.022;-0.009;0.082;0.1111774742603302;0.036651913076639175;-0.012217304669320583
01:00:0A:00:00:00:00;1724371331;23/08/24;00:02:11;1.018;0.0;0.082;0.08918632566928864;-0.039095375686883926;0.028099799528717995
01:00:0A:00:00:00:00;1724371332;23/08/24;00:02:12;1.012;-0.025;0.05;0.09529497474431992;-0.01710422709584236;0.018325956538319588
01:00:0A:00:00:00:00;1724371333;23/08/24;00:02:13;1.013;-0.005;0.082;0.1062905490398407;0.025656338781118393;-0.024434609338641167
01:00:0A:00:00:00:00;1724371334;23/08/24;00:02:14;1.014;-0.005;0.078;0.08552113175392151;-0.03420845419168472;0.036651913076639175
01:00:0A:00:00:00:00;1724371335;23/08/24;00:02:15;1.009;-0.025;0.054;0.09285151958465576;-0.014660765416920185;0.012217304669320583
01:00:0A:00:00:00:00;1724371336;23/08/24;00:02:16;1.007;-0.012;0.071;0.10018189996480942;0.006108652334660292;-0.009773843921720982
01:00:0A:00:00:00:00;1724371337;23/08/24;00:02:17;1.011;-0.004;0.076;0.09162978082895279;-0.02687807008624077;0.018325956538319588
01:00:0A:00:00:00:00;1724371338;23/08/24;00:02:18;1.016;-0.023;0.065;0.09040805697441101;-0.014660765416920185;0.012217304669320583
01:00:0A:00:00:00:00;1724371339;23/08/24;00:02:19;1.018;-0.013;0.073;0.09407324343919754;-0.0024434609804302454;-0.0073303827084600925
01:00:0A:00:00:00:00;1724371340;23/08/24;00:02:20;1.016;-0.008;0.072;0.08307767659425735;-0.013439035043120384;0.021991148591041565
01:00:0A:00:00:00:00;1724371341;23/08/24;00:02:21;1.015;-0.022;0.066;0.08307767659425735;-0.015882495790719986;0.019547687843441963
01:00:0A:00:00:00:00;1724371342;23/08/24;00:02:22;1.016;-0.009;0.073;0.08552113175392151;-0.0024434609804302454;-0.010995574295520782
01:00:0A:00:00:00:00;1724371343;23/08/24;00:02:23;1.01;-0.006;0.072;0.07452555745840073;-0.014660765416920185;0.019547687843441963
01:00:0A:00:00:00:00;1724371344;23/08/24;00:02:24;1.007;-0.021;0.068;0.07452555745840073;-0.00855211354792118;0.006108652334660292
01:00:0A:00:00:00:00;1724371345;23/08/24;00:02:25;1.007;-0.02;0.07;0.0708603635430336;-0.014660765416920185;0.0
01:00:0A:00:00:00:00;1724371346;23/08/24;00:02:26;1.012;-0.015;0.068;0.07452555745840073;-0.01710422709584236;0.00855211354792118
01:00:0A:00:00:00:00;1724371347;23/08/24;00:02:27;1.016;-0.013;0.07;0.0708603635430336;-0.013439035043120384;0.0012217304902151227
01:00:0A:00:00:00:00;1724371348;23/08/24;00:02:28;1.02;-0.01;0.072;0.0659734457731247;-0.00855211354792118;0.0073303827084600925
01:00:0A:00:00:00:00;1724371349;23/08/24;00:02:29;1.019;-0.013;0.069;0.06230825558304787;-0.012217304669320583;0.006108652334660292
01:00:0A:00:00:00:00;1724371350;23/08/24;00:02:30;1.016;-0.012;0.067;0.059864792972803116;-0.009773843921720982;0.0036651913542300463
01:00:0A:00:00:00:00;1724371351;23/08/24;00:02:31;1.016;-0.01;0.074;0.05497787147760391;-0.00855211354792118;0.0073303827084600925
01:00:0A:00:00:00:00;1724371352;23/08/24;00:02:32;1.012;-0.012;0.07;0.05253440886735916;-0.012217304669320583;0.006108652334660292
01:00:0A:00:00:00:00;1724371353;23/08/24;00:02:33;1.007;-0.009;0.068;0.05009094998240471;-0.0073303827084600925;0.0012217304902151227
01:00:0A:00:00:00:00;1724371354;23/08/24;00:02:34;1.008;-0.011;0.07;0.045204028487205505;-0.01710422709584236;0.0036651913542300463
01:00:0A:00:00:00:00;1724371355;23/08/24;00:02:35;1.017;-0.008;0.061;-0.018325956538319588;-0.02321287989616394;-0.0012217304902151227
01:00:0A:00:00:00:00;1724371356;23/08/24;00:02:36;1.021;-0.013;0.072;-0.006108652334660292;0.0012217304902151227;0.010995574295520782
01:00:0A:00:00:00:00;1724371357;23/08/24;00:02:37;1.019;-0.015;0.079;-0.006108652334660292;-0.012217304669320583;0.0
01:00:0A:00:00:00:00;1724371358;23/08/24;00:02:38;1.018;-0.009;0.064;-0.006108652334660292;-0.014660765416920185;0.0024434609804302454
01:00:0A:00:00:00:00;1724371359;23/08/24;00:02:39;1.017;-0.012;0.072;-0.006108652334660292;0.0024434609804302454;0.013439035043120384
01:00:0A:00:00:00:00;1724371360;23/08/24;00:02:40;1.016;-0.009;0.071;-0.009773843921720982;-0.024434609338641167;-0.0036651913542300463
01:00:0A:00:00:00:00;1724371361;23/08/24;00:02:41;1.012;-0.008;0.063;-0.009773843921720982;-0.0036651913542300463;0.0073303827084600925
01:00:0A:00:00:00:00;1724371362;23/08/24;00:02:42;1.009;-0.016;0.076;-0.010995574295520782;-0.0036651913542300463;0.006108652334660292
01:00:0A:00:00:00:00;1724371363;23/08/24;00:02:43;1.011;-0.012;0.069;-0.013439035043120384;-0.03298672288656235;-0.006108652334660292
01:00:0A:00:00:00:00;1724371364;23/08/24;00:02:44;1.018;-0.009;0.066;-0.013439035043120384;-0.0073303827084600925;0.0073303827084600925
01:00:0A:00:00:00:00;1724371365;23/08/24;00:02:45;1.021;-0.005;0.06;-0.004886921960860491;-0.0012217304902151227;0.010995574295520782
01:00:0A:00:00:00:00;1724371366;23/08/24;00:02:46;1.018;-0.02;0.081;-0.0073303827084600925;0.004886921960860491;0.009773843921720982
01:00:0A:00:00:00:00;1724371367;23/08/24;00:02:47;1.017;-0.011;0.067;-0.010995574295520782;-0.03298672288656235;-0.009773843921720982
01:00:0A:00:00:00:00;1724371368;23/08/24;00:02:48;1.017;-0.007;0.065;-0.010995574295520782;-0.0012217304902151227;0.010995574295520782
01:00:0A:00:00:00:00;1724371369;23/08/24;00:02:49;1.016;-0.018;0.08;-0.013439035043120384;-0.0036651913542300463;0.009773843921720982
01:00:0A:00:00:00:00;1724371370;23/08/24;00:02:50;1.016;-0.006;0.062;-0.0036651913542300463;-0.021991148591041565;-0.0073303827084600925
01:00:0A:00:00:00:00;1724371371;23/08/24;00:02:51;1.009;-0.01;0.067;-0.006108652334660292;0.004886921960860491;0.01710422709584236
01:00:0A:00:00:00:00;1724371372;23/08/24;00:02:52;1.008;-0.017;0.076;-0.006108652334660292;-0.02076941914856434;-0.0073303827084600925
01:00:0A:00:00:00:00;1724371373;23/08/24;00:02:53;1.016;-0.009;0.065;-0.00855211354792118;-0.025656338781118393;-0.004886921960860491
01:00:0A:00:00:00:00;1724371374;23/08/24;00:02:54;1.02;-0.013;0.071;-0.00855211354792118;0.004886921960860491;0.010995574295520782
01:00:0A:00:00:00:00;1724371375;23/08/24;00:02:55;1.016;-0.017;0.077;-0.009773843921720982;-0.015882495790719986;0.0012217304902151227
01:00:0A:00:00:00:00;1724371376;23/08/24;00:02:56;1.015;-0.006;0.064;-0.00855211354792118;-0.01710422709584236;-0.0036651913542300463
01:00:0A:00:00:00:00;1724371377;23/08/24;00:02:57;1.016;-0.01;0.071;-0.010995574295520782;0.0012217304902151227;0.015882495790719986
01:00:0A:00:00:00:00;1724371378;23/08/24;00:02:58;1.016;-0.017;0.077;-0.010995574295520782;-0.013439035043120384;0.0
01:00:0A:00:00:00:00;1724371379;23/08/24;00:02:59;1.014;-0.008;0.064;-0.010995574295520782;-0.01710422709584236;0.0012217304902151227
01:00:0A:00:00:00:00;1724371380;23/08/24;00:03:00;1.011;-0.014;0.07;-0.012217304669320583;0.0024434609804302454;0.014660765416920185
01:00:0A:00:00:00:00;1724371381;23/08/24;00:03:01;1.011;-0.016;0.074;-0.010995574295520782;-0.02321287989616394;-0.0073303827084600925
01:00:0A:00:00:00:00;1724371382;23/08/24;00:03:02;1.016;-0.009;0.064;-0.012217304669320583;-0.013439035043120384;0.0036651913542300463
01:00:0A:00:00:00:00;1724371383;23/08/24;00:03:03;1.017;-0.017;0.074;-0.012217304669320583;-0.0024434609804302454;0.010995574295520782
01:00:0A:00:00:00:00;1724371384;23/08/24;00:03:04;1.016;-0.016;0.071;-0.010995574295520782;-0.018325956538319588;-0.0012217304902151227
01:00:0A:00:00:00:00;1724371385;23/08/24;00:03:05;1.013;-0.01;0.067;-0.009773843921720982;-0.010995574295520782;0.0036651913542300463
01:00:0A:00:00:00:00;1724371386;23/08/24;00:03:06;1.014;-0.015;0.071;-0.009773843921720982;-0.004886921960860491;0.0073303827084600925
01:00:0A:00:00:00:00;1724371387;23/08/24;00:03:07;1.017;-0.017;0.072;-0.009773843921720982;-0.01710422709584236;-0.0012217304902151227
01:00:0A:00:00:00:00;1724371388;23/08/24;00:03:08;1.016;-0.012;0.067;-0.009773843921720982;-0.012217304669320583;0.0024434609804302454
01:00:0A:00:00:00:00;1724371389;23/08/24;00:03:09;1.014;-0.014;0.072;-0.009773843921720982;-0.004886921960860491;0.009773843921720982
01:00:0A:00:00:00:00;1724371390;23/08/24;00:03:10;1.013;-0.013;0.071;-0.00855211354792118;-0.018325956538319588;-0.006108652334660292
01:00:0A:00:00:00:00;1724371391;23/08/24;00:03:11;1.016;-0.009;0.066;-0.009773843921720982;-0.010995574295520782;0.0012217304902151227
01:00:0A:00:00:00:00;1724371392;23/08/24;00:03:12;1.016;-0.015;0.074;-0.009773843921720982;-0.006108652334660292;0.0073303827084600925
01:00:0A:00:00:00:00;1724371393;23/08/24;00:03:13;1.016;-0.013;0.07;-0.009773843921720982;-0.01710422709584236;-0.0024434609804302454
01:00:0A:00:00:00:00;1724371394;23/08/24;00:03:14;1.014;-0.009;0.069;-0.010995574295520782;-0.00855211354792118;0.004886921960860491
01:00:0A:00:00:00:00;1724371395;23/08/24;00:03:15;1.016;-0.015;0.072;-0.010995574295520782;-0.00855211354792118;0.0036651913542300463
01:00:0A:00:00:00:00;1724371396;23/08/24;00:03:16;1.017;-0.012;0.071;-0.012217304669320583;-0.015882495790719986;-0.0012217304902151227
01:00:0A:00:00:00:00;1724371397;23/08/24;00:03:17;1.016;-0.013;0.067;-0.012217304669320583;-0.00855211354792118;0.006108652334660292
01:00:0A:00:00:00:00;1724371398;23/08/24;00:03:18;1.014;-0.015;0.073;-0.010995574295520782;-0.00855211354792118;0.0036651913542300463
01:00:0A:00:00:00:00;1724371399;23/08/24;00:03:19;1.015;-0.013;0.068;-0.010995574295520782;-0.015882495790719986;0.0
01:00:0A:00:00:00:00;1724371400;23/08/24;00:03:20;1.016;-0.012;0.067;-0.009773843921720982;-0.0073303827084600925;0.004886921960860491
01:00:0A:00:00:00:00;1724371401;23/08/24;00:03:21;1.017;-0.015;0.073;-0.009773843921720982;-0.010995574295520782;0.004886921960860491
01:00:0A:00:00:00:00;1724371402;23/08/24;00:03:22;1.016;-0.015;0.068;-0.00855211354792118;-0.014660765416920185;0.0012217304902151227
01:00:0A:00:00:00:00;1724371403;23/08/24;00:03:23;1.013;-0.012;0.069;-0.0073303827084600925;-0.010995574295520782;0.004886921960860491
01:00:0A:00:00:00:00;1724371404;23/08/24;00:03:24;1.014;-0.016;0.072;-0.006108652334660292;-0.00855211354792118;0.0024434609804302454
01:00:0A:00:00:00:00;1724371405;23/08/24;00:03:25;1.017;-0.014;0.069;-0.006108652334660292;-0.01710422709584236;-0.0024434609804302454
01:00:0A:00:00:00:00;1724371406;23/08/24;00:03:26;1.016;-0.013;0.069;-0.006108652334660292;-0.0073303827084600925;0.0073303827084600925
01:00:0A:00:00:00:00;1724371407;23/08/24;00:03:27;1.015;-0.016;0.071;-0.004886921960860491;-0.013439035043120384;0.0036651913542300463
01:00:0A:00:00:00:00;1724371408;23/08/24;00:03:28;1.016;-0.012;0.07;-0.0036651913542300463;-0.010995574295520782;-0.0012217304902151227
01:00:0A:00:00:00:00;1724371409;23/08/24;00:03:29;1.016;-0.014;0.07;-0.004886921960860491;-0.009773843921720982;0.004886921960860491
01:00:0A:00:00:00:00;1724371410;23/08/24;00:03:30;1.016;-0.015;0.072;-0.004886921960860491;-0.010995574295520782;0.004886921960860491
01:00:0A:00:00:00:00;1724371411;23/08/24;00:03:31;1.015;-0.013;0.069;-0.004886921960860491;-0.013439035043120384;0.0024434609804302454
01:00:0A:00:00:00:00;1724371412;23/08/24;00:03:32;1.013;-0.013;0.071;-0.004886921960860491;-0.009773843921720982;0.0036651913542300463
01:00:0A:00:00:00:00;1724371413;23/08/24;00:03:33;1.015;-0.015;0.073;-0.006108652334660292;-0.010995574295520782;0.0024434609804302454
01:00:0A:00:00:00:00;1724371414;23/08/24;00:03:34;1.016;-0.013;0.068;-0.006108652334660292;-0.014660765416920185;0.0036651913542300463
01:00:0A:00:00:00:00;1724371415;23/08/24;00:03:35;1.015;-0.014;0.073;-0.006108652334660292;-0.009773843921720982;0.004886921960860491
01:00:0A:00:00:00:00;1724371416;23/08/24;00:03:36;1.014;-0.015;0.071;-0.006108652334660292;-0.012217304669320583;0.0036651913542300463
01:00:0A:00:00:00:00;1724371417;23/08/24;00:03:37;1.014;-0.014;0.071;-0.006108652334660292;-0.013439035043120384;0.0
01:00:0A:00:00:00:00;1724371418;23/08/24;00:03:38;1.017;-0.012;0.071;-0.006108652334660292;-0.00855211354792118;0.006108652334660292
01:00:0A:00:00:00:00;1724371419;23/08/24;00:03:39;1.016;-0.015;0.072;-0.0073303827084600925;-0.013439035043120384;0.0024434609804302454
01:00:0A:00:00:00:00;1724371420;23/08/24;00:03:40;1.014;-0.012;0.071;-0.0073303827084600925;-0.010995574295520782;0.0024434609804302454
01:00:0A:00:00:00:00;1724371421;23/08/24;00:03:41;1.013;-0.013;0.072;-0.00855211354792118;-0.010995574295520782;0.004886921960860491
01:00:0A:00:00:00:00;1724371422;23/08/24;00:03:42;1.015;-0.013;0.072;-0.00855211354792118;-0.012217304669320583;0.0012217304902151227
01:00:0A:00:00:00:00;1724371423;23/08/24;00:03:43;1.016;-0.013;0.07;-0.009773843921720982;-0.012217304669320583;0.0024434609804302454
01:00:0A:00:00:00:00;1724371424;23/08/24;00:03:44;1.016;-0.013;0.072;-0.010995574295520782;-0.012217304669320583;0.004886921960860491
01:00:0A:00:00:00:00;1724371425;23/08/24;00:03:45;1.015;-0.014;0.071;-0.010995574295520782;-0.010995574295520782;0.0024434609804302454
01:00:0A:00:00:00:00;1724371426;23/08/24;00:03:46;1.015;-0.013;0.069;-0.010995574295520782;-0.013439035043120384;0.0
01:00:0A:00:00:00:00;1724371427;23/08/24;00:03:47;1.016;-0.013;0.071;-0.012217304669320583;-0.00855211354792118;0.0036651913542300463
01:00:0A:00:00:00:00;1724371428;23/08/24;00:03:48;1.016;-0.013;0.07;-0.012217304669320583;-0.014660765416920185;0.0036651913542300463
01:00:0A:00:00:00:00;1724371429;23/08/24;00:03:49;1.014;-0.012;0.07;-0.012217304669320583;-0.010995574295520782;0.004886921960860491
01:00:0A:00:00:00:00;1724371430;23/08/24;00:03:50;1.015;-0.013;0.07;-0.012217304669320583;-0.010995574295520782;0.0036651913542300463
01:00:0A:00:00:00:00;1724371431;23/08/24;00:03:51;1.015;-0.014;0.069;-0.012217304669320583;-0.013439035043120384;0.0012217304902151227
01:00:0A:00:00:00:00;1724371432;23/08/24;00:03:52;1.016;-0.013;0.07;-0.012217304669320583;-0.009773843921720982;0.0036651913542300463
01:00:0A:00:00:00:00;1724371433;23/08/24;00:03:53;1.015;-0.013;0.069;-0.012217304669320583;-0.012217304669320583;0.004886921960860491
01:00:0A:00:00:00:00;1724371434;23/08/24;00:03:54;1.014;-0.014;0.069;-0.012217304669320583;-0.009773843921720982;0.0024434609804302454
01:00:0A:00:00:00:00;1724371435;23/08/24;00:03:55;1.014;-0.012;0.069;-0.012217304669320583;-0.013439035043120384;0.0012217304902151227
01:00:0A:00:00:00:00;1724371436;23/08/24;00:03:56;1.016;-0.013;0.072;-0.013439035043120384;-0.009773843921720982;0.0036651913542300463
01:00:0A:00:00:00:00;1724371437;23/08/24;00:03:57;1.016;-0.013;0.07;-0.013439035043120384;-0.012217304669320583;0.0024434609804302454
01:00:0A:00:00:00:00;1724371438;23/08/24;00:03:58;1.015;-0.013;0.071;-0.014660765416920185;-0.010995574295520782;0.0036651913542300463
01:00:0A:00:00:00:00;1724371439;23/08/24;00:03:59;1.013;-0.013;0.07;-0.014660765416920185;-0.010995574295520782;0.0012217304902151227
01:00:0A:00:00:00:00;1724371440;23/08/24;00:04:00;1.016;-0.013;0.07;-0.014660765416920185;-0.013439035043120384;0.0
01:00:0A:00:00:00:00;1724371441;23/08/24;00:04:01;1.016;-0.013;0.07;-0.015882495790719986;-0.010995574295520782;0.0036651913542300463
01:00:0A:00:00:00:00;1724371442;23/08/24;00:04:02;1.016;-0.013;0.07;-0.01710422709584236;-0.010995574295520782;0.0036651913542300463
01:00:0A:00:00:00:00;1724371443;23/08/24;00:04:03;1.015;-0.012;0.07;-0.01710422709584236;-0.012217304669320583;0.0024434609804302454
01:00:0A:00:00:00:00;1724371444;23/08/24;00:04:04;1.015;-0.012;0.069;-0.018325956538319588;-0.010995574295520782;0.0012217304902151227
01:00:0A:00:00:00:00;1724371445;23/08/24;00:04:05;1.016;-0.014;0.071;-0.018325956538319588;-0.012217304669320583;0.0012217304902151227
01:00:0A:00:00:00:00;1724371446;23/08/24;00:04:06;1.016;-0.012;0.071;-0.019547687843441963;-0.009773843921720982;0.004886921960860491
01:00:0A:00:00:00:00;1724371447;23/08/24;00:04:07;1.016;-0.013;0.07;-0.019547687843441963;-0.012217304669320583;0.0036651913542300463
01:00:0A:00:00:00:00;1724371448;23/08/24;00:04:08;1.015;-0.013;0.07;-0.019547687843441963;-0.010995574295520782;0.0036651913542300463
01:00:0A:00:00:00:00;1724371449;23/08/24;00:04:09;1.015;-0.013;0.072;-0.018325956538319588;-0.013439035043120384;0.0
01:00:0A:00:00:00:00;1724371450;23/08/24;00:04:10;1.016;-0.013;0.071;-0.019547687843441963;-0.009773843921720982;0.004886921960860491
01:00:0A:00:00:00:00;1724371451;23/08/24;00:04:11;1.016;-0.014;0.072;-0.019547687843441963;-0.010995574295520782;0.004886921960860491
01:00:0A:00:00:00:00;1724371452;23/08/24;00:04:12;1.015;-0.012;0.069;-0.019547687843441963;-0.013439035043120384;0.0024434609804302454
01:00:0A:00:00:00:00;1724371453;23/08/24;00:04:13;1.015;-0.013;0.07;-0.018325956538319588;-0.012217304669320583;0.0024434609804302454
01:00:0A:00:00:00:00;1724371454;23/08/24;00:04:14;1.016;-0.015;0.072;-0.018325956538319588;-0.012217304669320583;0.0
01:00:0A:00:00:00:00;1724371455;23/08/24;00:04:15;1.016;-0.014;0.072;-0.019547687843441963;-0.009773843921720982;0.006108652334660292
01:00:0A:00:00:00:00;1724371456;23/08/24;00:04:16;1.014;-0.013;0.069;-0.019547687843441963;-0.012217304669320583;0.0036651913542300463
01:00:0A:00:00:00:00;1724371457;23/08/24;00:04:17;1.014;-0.013;0.07;-0.018325956538319588;-0.010995574295520782;0.0024434609804302454
01:00:0A:00:00:00:00;1724371458;23/08/24;00:04:18;1.016;-0.014;0.07;-0.018325956538319588;-0.013439035043120384;-0.0012217304902151227
01:00:0A:00:00:00:00;1724371459;23/08/24;00:04:19;1.015;-0.015;0.071;-0.018325956538319588;-0.010995574295520782;0.0024434609804302454
01:00:0A:00:00:00:00;1724371460;23/08/24;00:04:20;1.015;-0.012;0.069;-0.018325956538319588;-0.009773843921720982;0.004886921960860491
01:00:0A:00:00:00:00;1724371461;23/08/24;00:04:21;1.014;-0.013;0.069;-0.01710422709584236;-0.012217304669320583;0.0024434609804302454
01:00:0A:00:00:00:00;1724371462;23/08/24;00:04:22;1.016;-0.013;0.07;-0.01710422709584236;-0.010995574295520782;0.0012217304902151227
01:00:0A:00:00:00:00;1724371463;23/08/24;00:04:23;1.016;-0.014;0.071;-0.01710422709584236;-0.012217304669320583;0.0012217304902151227
01:00:0A:00:00:00:00;1724371464;23/08/24;00:04:24;1.014;-0.015;0.071;-0.015882495790719986;-0.010995574295520782;0.004886921960860491
01:00:0A:00:00:00:00;1724371465;23/08/24;00:04:25;1.016;-0.012;0.071;-0.015882495790719986;-0.012217304669320583;0.004886921960860491
01:00:0A:00:00:00:00;1724371466;23/08/24;00:04:26;1.015;-0.014;0.07;-0.015882495790719986;-0.012217304669320583;0.0012217304902151227
01:00:0A:00:00:00:00;1724371467;23/08/24;00:04:27;1.014;-0.012;0.071;-0.014660765416920185;-0.010995574295520782;0.0012217304902151227
01:00:0A:00:00:00:00;1724371468;23/08/24;00:04:28;1.015;-0.014;0.071;-0.014660765416920185;-0.010995574295520782;0.0024434609804302454
01:00:0A:00:00:00:00;1724371469;23/08/24;00:04:29;1.016;-0.013;0.071;-0.014660765416920185;-0.010995574295520782;0.006108652334660292
01:00:0A:00:00:00:00;1724371470;23/08/24;00:04:30;1.015;-0.011;0.071;-0.014660765416920185;-0.013439035043120384;0.0012217304902151227
01:00:0A:00:00:00:00;1724371471;23/08/24;00:04:31;1.016;-0.013;0.07;-0.014660765416920185;-0.012217304669320583;0.0012217304902151227
01:00:0A:00:00:00:00;1724371472;23/08/24;00:04:32;1.015;-0.014;0.072;-0.013439035043120384;-0.010995574295520782;0.0024434609804302454
01:00:0A:00:00:00:00;1724371473;23/08/24;00:04:33;1.015;-0.013;0.071;-0.014660765416920185;-0.010995574295520782;0.004886921960860491
01:00:0A:00:00:00:00;1724371474;23/08/24;00:04:34;1.016;-0.011;0.071;-0.014660765416920185;-0.010995574295520782;0.006108652334660292
01:00:0A:00:00:00:00;1724371475;23/08/24;00:04:35;1.014;-0.016;0.069;-0.013439035043120384;-0.019547687843441963;0.021991148591041565
01:00:0A:00:00:00:00;1724371476;23/08/24;00:04:36;1.016;-0.04;0.058;-0.0012217304902151227;-0.02321287989616394;0.014660765416920185
01:00:0A:00:00:00:00;1724371477;23/08/24;00:04:37;1.015;-0.036;0.056;0.021991148591041565;-0.018325956538319588;-0.0036651913542300463
01:00:0A:00:00:00:00;1724371478;23/08/24;00:04:38;1.016;-0.028;0.051;0.040317103266716;0.006108652334660292;-0.0012217304902151227
01:00:0A:00:00:00:00;1724371479;23/08/24;00:04:39;1.014;-0.003;0.084;0.04153883829712868;0.013439035043120384;-0.01710422709584236
01:00:0A:00:00:00:00;1724371480;23/08/24;00:04:40;1.014;-0.01;0.072;0.02321287989616394;-0.04642575979232788;0.02687807008624077
01:00:0A:00:00:00:00;1724371481;23/08/24;00:04:41;1.016;-0.026;0.057;0.0354301817715168;0.0012217304902151227;-0.0024434609804302454
01:00:0A:00:00:00:00;1724371482;23/08/24;00:04:42;1.013;-0.004;0.084;0.0354301817715168;0.0036651913542300463;-0.00855211354792118
01:00:0A:00:00:00:00;1724371483;23/08/24;00:04:43;1.016;-0.011;0.07;0.02076941914856434;-0.039095375686883926;0.02932153083384037
01:00:0A:00:00:00:00;1724371484;23/08/24;00:04:44;1.016;-0.022;0.06;0.03420845419168472;0.0024434609804302454;-0.006108652334660292
01:00:0A:00:00:00:00;1724371485;23/08/24;00:04:45;1.014;-0.005;0.081;0.03298672288656235;-0.0012217304902151227;-0.00855211354792118
01:00:0A:00:00:00:00;1724371486;23/08/24;00:04:46;1.016;-0.014;0.068;0.021991148591041565;-0.03176499158143997;0.024434609338641167
01:00:0A:00:00:00:00;1724371487;23/08/24;00:04:47;1.016;-0.022;0.064;0.03298672288656235;0.0024434609804302454;-0.0024434609804302454
01:00:0A:00:00:00:00;1724371488;23/08/24;00:04:48;1.015;-0.004;0.081;0.03176499158143997;-0.004886921960860491;-0.006108652334660292
01:00:0A:00:00:00:00;1724371489;23/08/24;00:04:49;1.016;-0.015;0.068;0.021991148591041565;-0.030543262138962746;0.019547687843441963
01:00:0A:00:00:00:00;1724371490;23/08/24;00:04:50;1.016;-0.021;0.065;0.03298672288656235;0.0024434609804302454;-0.006108652334660292
01:00:0A:00:00:00:00;1724371491;23/08/24;00:04:51;1.016;-0.006;0.081;0.02932153083384037;-0.00855211354792118;0.0012217304902151227
01:00:0A:00:00:00:00;1724371492;23/08/24;00:04:52;1.016;-0.015;0.067;0.02321287989616394;-0.025656338781118393;0.02076941914856434
01:00:0A:00:00:00:00;1724371493;23/08/24;00:04:53;1.015;-0.017;0.066;0.03298672288656235;0.0012217304902151227;-0.0073303827084600925
01:00:0A:00:00:00:00;1724371494;23/08/24;00:04:54;1.016;-0.007;0.08;0.02932153083384037;-0.012217304669320583;0.0
01:00:0A:00:00:00:00;1724371495;23/08/24;00:04:55;1.016;-0.016;0.067;0.024434609338641167;-0.021991148591041565;0.018325956538319588
01:00:0A:00:00:00:00;1724371496;23/08/24;00:04:56;1.015;-0.017;0.069;0.03298672288656235;0.0012217304902151227;-0.004886921960860491
01:00:0A:00:00:00:00;1724371497;23/08/24;00:04:57;1.016;-0.005;0.076;0.028099799528717995;-0.012217304669320583;0.0036651913542300463
01:00:0A:00:00:00:00;1724371498;23/08/24;00:04:58;1.016;-0.016;0.065;0.025656338781118393;-0.02076941914856434;0.012217304669320583
01:00:0A:00:00:00:00;1724371499;23/08/24;00:04:59;1.015;-0.016;0.07;0.03176499158143997;-0.0012217304902151227;-0.004886921960860491
01:00:0A:00:00:00:00;1724371500;23/08/24;00:05:00;1.016;-0.008;0.075;0.028099799528717995;-0.013439035043120384;0.006108652334660292
01:00:0A:00:00:00:00;1724371501;23/08/24;00:05:01;1.016;-0.015;0.066;0.025656338781118393;-0.01710422709584236;0.014660765416920185
01:00:0A:00:00:00:00;1724371502;23/08/24;00:05:02;1.016;-0.014;0.07;0.03176499158143997;-0.0036651913542300463;-0.004886921960860491
01:00:0A:00:00:00:00;1724371503;23/08/24;00:05:03;1.016;-0.008;0.075;0.028099799528717995;-0.015882495790719986;0.004886921960860491
01:00:0A:00:00:00:00;1724371504;23/08/24;00:05:04;1.016;-0.017;0.068;0.025656338781118393;-0.014660765416920185;0.012217304669320583
01:00:0A:00:00:00:00;1724371505;23/08/24;00:05:05;1.015;-0.014;0.072;0.030543262138962746;-0.0036651913542300463;-0.0036651913542300463
01:00:0A:00:00:00:00;1724371506;23/08/24;00:05:06;1.015;-0.008;0.074;0.02687807008624077;-0.014660765416920185;0.006108652334660292
01:00:0A:00:00:00:00;1724371507;23/08/24;00:05:07;1.016;-0.022;0.067;0.02687807008624077;-0.014660765416920185;0.0354301817715168
01:00:0A:00:00:00:00;1724371508;23/08/24;00:05:08;1.015;-0.027;0.072;0.04153883829712868;-0.00855211354792118;-0.02932153083384037
01:00:0A:00:00:00:00;1724371509;23/08/24;00:05:09;1.016;-0.019;0.075;0.040317103266716;-0.012217304669320583;0.024434609338641167
01:00:0A:00:00:00:00;1724371510;23/08/24;00:05:10;1.014;-0.019;0.068;0.045204028487205505;-0.018325956538319588;-0.013439035043120384
01:00:0A:00:00:00:00;1724371511;23/08/24;00:05:11;1.016;-0.011;0.072;0.045204028487205505;-0.004886921960860491;0.0036651913542300463
01:00:0A:00:00:00:00;1724371512;23/08/24;00:05:12;1.016;-0.013;0.073;0.04153883829712868;-0.01710422709584236;0.00855211354792118
01:00:0A:00:00:00:00;1724371513;23/08/24;00:05:13;1.015;-0.014;0.068;0.042760565876960754;-0.010995574295520782;0.0036651913542300463
01:00:0A:00:00:00:00;1724371514;23/08/24;00:05:14;1.015;-0.012;0.072;0.04153883829712868;-0.0036651913542300463;0.004886921960860491
01:00:0A:00:00:00:00;1724371515;23/08/24;00:05:15;1.015;-0.013;0.072;0.039095375686883926;-0.015882495790719986;0.0073303827084600925
01:00:0A:00:00:00:00;1724371516;23/08/24;00:05:16;1.015;-0.014;0.068;0.039095375686883926;-0.013439035043120384;0.0036651913542300463
01:00:0A:00:00:00:00;1724371517;23/08/24;00:05:17;1.016;-0.012;0.073;0.039095375686883926;-0.006108652334660292;0.0036651913542300463
01:00:0A:00:00:00:00;1724371518;23/08/24;00:05:18;1.016;-0.013;0.072;0.0354301817715168;-0.013439035043120384;0.0073303827084600925
01:00:0A:00:00:00:00;1724371519;23/08/24;00:05:19;1.015;-0.013;0.067;0.036651913076639175;-0.010995574295520782;0.0036651913542300463
01:00:0A:00:00:00:00;1724371520;23/08/24;00:05:20;1.016;-0.011;0.072;0.036651913076639175;-0.0073303827084600925;0.004886921960860491
01:00:0A:00:00:00:00;1724371521;23/08/24;00:05:21;1.016;-0.014;0.071;0.03420845419168472;-0.015882495790719986;0.00855211354792118
01:00:0A:00:00:00:00;1724371522;23/08/24;00:05:22;1.016;-0.014;0.069;0.0354301817715168;-0.009773843921720982;0.0024434609804302454
01:00:0A:00:00:00:00;1724371523;23/08/24;00:05:23;1.015;-0.012;0.071;0.03420845419168472;-0.0073303827084600925;0.006108652334660292
01:00:0A:00:00:00:00;1724371524;23/08/24;00:05:24;1.015;-0.012;0.071;0.03298672288656235;-0.015882495790719986;0.0073303827084600925
01:00:0A:00:00:00:00;1724371525;23/08/24;00:05:25;1.016;-0.014;0.069;0.03420845419168472;-0.010995574295520782;0.0036651913542300463
01:00:0A:00:00:00:00;1724371526;23/08/24;00:05:26;1.016;-0.012;0.071;0.03298672288656235;-0.009773843921720982;0.004886921960860491
01:00:0A:00:00:00:00;1724371527;23/08/24;00:05:27;1.015;-0.015;0.071;0.03298672288656235;-0.010995574295520782;0.006108652334660292
01:00:0A:00:00:00:00;1724371528;23/08/24;00:05:28;1.015;-0.014;0.069;0.03298672288656235;-0.010995574295520782;0.0036651913542300463
01:00:0A:00:00:00:00;1724371529;23/08/24;00:05:29;1.015;-0.012;0.071;0.03298672288656235;-0.009773843921720982;0.004886921960860491
01:00:0A:00:00:00:00;1724371530;23/08/24;00:05:30;1.015;-0.014;0.071;0.03176499158143997;-0.014660765416920185;0.0073303827084600925
01:00:0A:00:00:00:00;1724371531;23/08/24;00:05:31;1.016;-0.014;0.069;0.03298672288656235;-0.009773843921720982;0.0036651913542300463
01:00:0A:00:00:00:00;1724371532;23/08/24;00:05:32;1.015;-0.013;0.071;0.03298672288656235;-0.009773843921720982;0.0036651913542300463
01:00:0A:00:00:00:00;1724371533;23/08/24;00:05:33;1.015;-0.013;0.069;0.03176499158143997;-0.013439035043120384;0.0073303827084600925
01:00:0A:00:00:00:00;1724371534;23/08/24;00:05:34;1.016;-0.014;0.069;0.03420845419168472;-0.012217304669320583;0.0024434609804302454
01:00:0A:00:00:00:00;1724371535;23/08/24;00:05:35;1.015;-0.011;0.071;0.03420845419168472;-0.009773843921720982;0.006108652334660292
01:00:0A:00:00:00:00;1724371536;23/08/24;00:05:36;1.016;-0.014;0.071;0.03420845419168472;-0.012217304669320583;0.004886921960860491
01:00:0A:00:00:00:00;1724371537;23/08/24;00:05:37;1.015;-0.013;0.069;0.0354301817715168;-0.009773843921720982;0.0036651913542300463
01:00:0A:00:00:00:00;1724371538;23/08/24;00:05:38;1.016;-0.013;0.07;0.0354301817715168;-0.012217304669320583;0.006108652334660292
01:00:0A:00:00:00:00;1724371539;23/08/24;00:05:39;1.016;-0.014;0.07;0.0354301817715168;-0.013439035043120384;0.004886921960860491
01:00:0A:00:00:00:00;1724371540;23/08/24;00:05:40;1.015;-0.013;0.071;0.036651913076639175;-0.009773843921720982;0.004886921960860491
01:00:0A:00:00:00:00;1724371541;23/08/24;00:05:41;1.016;-0.014;0.07;0.036651913076639175;-0.009773843921720982;0.0036651913542300463
01:00:0A:00:00:00:00;1724371542;23/08/24;00:05:42;1.015;-0.015;0.07;0.0354301817715168;-0.013439035043120384;0.006108652334660292
01:00:0A:00:00:00:00;1724371543;23/08/24;00:05:43;1.015;-0.014;0.07;0.036651913076639175;-0.012217304669320583;0.004886921960860491
01:00:0A:00:00:00:00;1724371544;23/08/24;00:05:44;1.016;-0.013;0.072;0.036651913076639175;-0.010995574295520782;0.004886921960860491
01:00:0A:00:00:00:00;1724371545;23/08/24;00:05:45;1.016;-0.014;0.07;0.0354301817715168;-0.010995574295520782;0.006108652334660292
01:00:0A:00:00:00:00;1724371546;23/08/24;00:05:46;1.015;-0.014;0.07;0.036651913076639175;-0.010995574295520782;0.0024434609804302454
01:00:0A:00:00:00:00;1724371547;23/08/24;00:05:47;1.016;-0.013;0.07;0.0354301817715168;-0.012217304669320583;0.006108652334660292
01:00:0A:00:00:00:00;1724371548;23/08/24;00:05:48;1.016;-0.013;0.071;0.0354301817715168;-0.012217304669320583;0.004886921960860491
01:00:0A:00:00:00:00;1724371549;23/08/24;00:05:49;1.015;-0.013;0.071;0.036651913076639175;-0.009773843921720982;0.0036651913542300463
01:00:0A:00:00:00:00;1724371550;23/08/24;00:05:50;1.016;-0.013;0.069;0.0354301817715168;-0.009773843921720982;0.004886921960860491
01:00:0A:00:00:00:00;1724371551;23/08/24;00:05:51;1.015;-0.014;0.069;0.0354301817715168;-0.012217304669320583;0.004886921960860491
01:00:0A:00:00:00:00;1724371552;23/08/24;00:05:52;1.016;-0.013;0.069;0.0354301817715168;-0.010995574295520782;0.004886921960860491
01:00:0A:00:00:00:00;1724371553;23/08/24;00:05:53;1.015;-0.015;0.071;0.0354301817715168;-0.010995574295520782;0.004886921960860491
01:00:0A:00:00:00:00;1724371554;23/08/24;00:05:54;1.016;-0.014;0.07;0.0354301817715168;-0.009773843921720982;0.004886921960860491
01:00:0A:00:00:00:00;1724371555;23/08/24;00:05:55;1.016;-0.015;0.07;0.0354301817715168;-0.010995574295520782;0.0036651913542300463
01:00:0A:00:00:00:00;1724371556;23/08/24;00:05:56;1.016;-0.014;0.07;0.0354301817715168;-0.013439035043120384;0.006108652334660292
01:00:0A:00:00:00:00;1724371557;23/08/24;00:05:57;1.015;-0.014;0.07;0.0354301817715168;-0.010995574295520782;0.006108652334660292
01:00:0A:00:00:00:00;1724371558;23/08/24;00:05:58;1.016;-0.014;0.07;0.0354301817715168;-0.010995574295520782;0.004886921960860491
01:00:0A:00:00:00:00;1724371559;23/08/24;00:05:59;1.016;-0.013;0.07;0.03420845419168472;-0.009773843921720982;0.004886921960860491
01:00:0A:00:00:00:00;1724371560;23/08/24;00:06:00;1.015;-0.014;0.069;0.03420845419168472;-0.013439035043120384;0.004886921960860491
01:00:0A:00:00:00:00;1724371561;23/08/24;00:06:01;1.016;-0.012;0.069;0.03420845419168472;-0.010995574295520782;0.004886921960860491
01:00:0A:00:00:00:00;1724371562;23/08/24;00:06:02;1.015;-0.014;0.071;0.03420845419168472;-0.012217304669320583;0.006108652334660292
01:00:0A:00:00:00:00;1724371563;23/08/24;00:06:03;1.015;-0.013;0.07;0.03420845419168472;-0.010995574295520782;0.0036651913542300463
01:00:0A:00:00:00:00;1724371564;23/08/24;00:06:04;1.015;-0.012;0.07;0.03420845419168472;-0.010995574295520782;0.004886921960860491
01:00:0A:00:00:00:00;1724371565;23/08/24;00:06:05;1.016;-0.014;0.068;0.03420845419168472;-0.010995574295520782;0.004886921960860491
01:00:0A:00:00:00:00;1724371566;23/08/24;00:06:06;1.016;-0.013;0.07;0.03420845419168472;-0.012217304669320583;0.004886921960860491
01:00:0A:00:00:00:00;1724371567;23/08/24;00:06:07;1.015;-0.014;0.07;0.03420845419168472;-0.010995574295520782;0.0036651913542300463
01:00:0A:00:00:00:00;1724371568;23/08/24;00:06:08;1.016;-0.015;0.07;0.03420845419168472;-0.012217304669320583;0.004886921960860491
01:00:0A:00:00:00:00;1724371569;23/08/24;00:06:09;1.016;-0.014;0.07;0.03420845419168472;-0.010995574295520782;0.004886921960860491
01:00:0A:00:00:00:00;1724371570;23/08/24;00:06:10;1.015;-0.013;0.069;0.03420845419168472;-0.012217304669320583;0.004886921960860491
01:00:0A:00:00:00:00;1724371571;23/08/24;00:06:11;1.015;-0.013;0.07;0.03420845419168472;-0.010995574295520782;0.004886921960860491
01:00:0A:00:00:00:00;1724371572;23/08/24;00:06:12;1.015;-0.013;0.07;0.03298672288656235;-0.010995574295520782;0.004886921960860491
01:00:0A:00:00:00:00;1724371573;23/08/24;00:06:13;1.015;-0.013;0.069;0.03298672288656235;-0.010995574295520782;0.004886921960860491
01:00:0A:00:00:00:00;1724371574;23/08/24;00:06:14;1.015;-0.013;0.07;0.03298672288656235;-0.010995574295520782;0.004886921960860491
01:00:0A:00:00:00:00;1724371575;23/08/24;00:06:15;1.016;-0.013;0.069;0.03298672288656235;-0.010995574295520782;0.004886921960860491
01:00:0A:00:00:00:00;1724371576;23/08/24;00:06:16;1.016;-0.012;0.071;0.03298672288656235;-0.010995574295520782;0.004886921960860491
01:00:0A:00:00:00:00;1724371577;23/08/24;00:06:17;1.015;-0.014;0.071;0.03176499158143997;-0.010995574295520782;0.004886921960860491
01:00:0A:00:00:00:00;1724371578;23/08/24;00:06:18;1.015;-0.014;0.071;0.03176499158143997;-0.010995574295520782;0.004886921960860491
01:00:0A:00:00:00:00;1724371579;23/08/24;00:06:19;1.016;-0.014;0.071;0.03176499158143997;-0.010995574295520782;0.004886921960860491
01:00:0A:00:00:00:00;1724371580;23/08/24;00:06:20;1.016;-0.013;0.07;0.03176499158143997;-0.010995574295520782;0.004886921960860491
01:00:0A:00:00:00:00;1724371581;23/08/24;00:06:21;1.016;-0.014;0.071;0.03176499158143997;-0.010995574295520782;0.004886921960860491
01:00:0A:00:00:00:00;1724371582;23/08/24;00:06:22;1.015;-0.013;0.07;0.03176499158143997;-0.010995574295520782;0.004886921960860491
01:00:0A:00:00:00:00;1724371583;23/08/24;00:06:23;1.015;-0.014;0.07;0.030543262138962746;-0.010995574295520782;0.004886921960860491
01:00:0A:00:00:00:00;1724371584;23/08/24;00:06:24;1.015;-0.013;0.07;0.030543262138962746;-0.010995574295520782;0.004886921960860491
01:00:0A:00:00:00:00;1724371585;23/08/24;00:06:25;1.016;-0.013;0.071;0.030543262138962746;-0.010995574295520782;0.004886921960860491
01:00:0A:00:00:00:00;1724371586;23/08/24;00:06:26;1.015;-0.015;0.07;0.030543262138962746;-0.010995574295520782;0.004886921960860491
01:00:0A:00:00:00:00;1724371587;23/08/24;00:06:27;1.016;-0.014;0.07;0.030543262138962746;-0.012217304669320583;0.004886921960860491
01:00:0A:00:00:00:00;1724371588;23/08/24;00:06:28;1.016;-0.014;0.071;0.02932153083384037;-0.010995574295520782;0.004886921960860491
01:00:0A:00:00:00:00;1724371589;23/08/24;00:06:29;1.015;-0.014;0.071;0.02932153083384037;-0.010995574295520782;0.0036651913542300463
01:00:0A:00:00:00:00;1724371590;23/08/24;00:06:30;1.015;-0.014;0.07;0.02932153083384037;-0.010995574295520782;0.004886921960860491
01:00:0A:00:00:00:00;1724371591;23/08/24;00:06:31;1.015;-0.013;0.071;0.02932153083384037;-0.010995574295520782;0.0036651913542300463
01:00:0A:00:00:00:00;1724371592;23/08/24;00:06:32;1.016;-0.014;0.07;0.028099799528717995;-0.010995574295520782;0.004886921960860491
01:00:0A:00:00:00:00;1724371593;23/08/24;00:06:33;1.016;-0.013;0.07;0.028099799528717995;-0.010995574295520782;0.0036651913542300463
01:00:0A:00:00:00:00;1724371594;23/08/24;00:06:34;1.016;-0.014;0.071;0.028099799528717995;-0.010995574295520782;0.004886921960860491
01:00:0A:00:00:00:00;1724371595;23/08/24;00:06:35;1.015;-0.013;0.07;0.028099799528717995;-0.010995574295520782;0.0036651913542300463
01:00:0A:00:00:00:00;1724371596;23/08/24;00:06:36;1.014;-0.014;0.071;0.02687807008624077;-0.012217304669320583;0.004886921960860491
01:00:0A:00:00:00:00;1724371597;23/08/24;00:06:37;1.016;-0.013;0.071;0.02687807008624077;-0.012217304669320583;0.0036651913542300463
01:00:0A:00:00:00:00;1724371598;23/08/24;00:06:38;1.015;-0.012;0.071;0.02687807008624077;-0.010995574295520782;0.004886921960860491
01:00:0A:00:00:00:00;1724371599;23/08/24;00:06:39;1.016;-0.013;0.071;0.02687807008624077;-0.010995574295520782;0.004886921960860491
01:00:0A:00:00:00:00;1724371600;23/08/24;00:06:40;1.015;-0.013;0.071;0.025656338781118393;-0.010995574295520782;0.004886921960860491
01:00:0A:00:00:00:00;1724371601;23/08/24;00:06:41;1.016;-0.014;0.07;0.025656338781118393;-0.010995574295520782;0.0036651913542300463
01:00:0A:00:00:00:00;1724371602;23/08/24;00:06:42;1.015;-0.014;0.07;0.024434609338641167;-0.012217304669320583;0.004886921960860491
01:00:0A:00:00:00:00;1724371603;23/08/24;00:06:43;1.016;-0.013;0.07;0.024434609338641167;-0.010995574295520782;0.0036651913542300463
01:00:0A:00:00:00:00;1724371604;23/08/24;00:06:44;1.016;-0.013;0.07;0.024434609338641167;-0.010995574295520782;0.004886921960860491
01:00:0A:00:00:00:00;1724371605;23/08/24;00:06:45;1.016;-0.014;0.07;0.024434609338641167;-0.012217304669320583;0.0036651913542300463
01:00:0A:00:00:00:00;1724371606;23/08/24;00:06:46;1.015;-0.014;0.071;0.024434609338641167;-0.010995574295520782;0.004886921960860491
01:00:0A:00:00:00:00;1724371607;23/08/24;00:06:47;1.016;-0.013;0.07;0.024434609338641167;-0.010995574295520782;0.004886921960860491
01:00:0A:00:00:00:00;1724371608;23/08/24;00:06:48;1.016;-0.014;0.07;0.02321287989616394;-0.010995574295520782;0.004886921960860491
01:00:0A:00:00:00:00;1724371609;23/08/24;00:06:49;1.015;-0.013;0.069;0.02321287989616394;-0.010995574295520782;0.004886921960860491
01:00:0A:00:00:00:00;1724371610;23/08/24;00:06:50;1.015;-0.013;0.07;0.02321287989616394;-0.010995574295520782;0.0036651913542300463
01:00:0A:00:00:00:00;1724371611;23/08/24;00:06:51;1.016;-0.013;0.069;0.02321287989616394;-0.010995574295520782;0.004886921960860491
01:00:0A:00:00:00:00;1724371612;23/08/24;00:06:52;1.015;-0.014;0.069;0.02321287989616394;-0.010995574295520782;0.004886921960860491
01:00:0A:00:00:00:00;1724371613;23/08/24;00:06:53;1.016;-0.013;0.069;0.02321287989616394;-0.010995574295520782;0.004886921960860491
01:00:0A:00:00:00:00;1724371614;23/08/24;00:06:54;1.016;-0.013;0.069;0.02321287989616394;-0.012217304669320583;0.0036651913542300463
01:00:0A:00:00:00:00;1724371615;23/08/24;00:06:55;1.016;-0.013;0.07;0.02321287989616394;-0.010995574295520782;0.0036651913542300463
01:00:0A:00:00:00:00;1724371616;23/08/24;00:06:56;1.015;-0.014;0.07;0.02321287989616394;-0.010995574295520782;0.004886921960860491
01:00:0A:00:00:00:00;1724371617;23/08/24;00:06:57;1.015;-0.014;0.07;0.02321287989616394;-0.010995574295520782;0.004886921960860491
01:00:0A:00:00:00:00;1724371618;23/08/24;00:06:58;1.015;-0.013;0.07;0.02321287989616394;-0.010995574295520782;0.004886921960860491
01:00:0A:00:00:00:00;1724371619;23/08/24;00:06:59;1.016;-0.013;0.069;0.02321287989616394;-0.012217304669320583;0.0036651913542300463
01:00:0A:00:00:00:00;1724371620;23/08/24;00:07:00;1.016;-0.012;0.07;0.02321287989616394;-0.010995574295520782;0.004886921960860491
01:00:0A:00:00:00:00;1724371621;23/08/24;00:07:01;1.016;-0.013;0.07;0.02321287989616394;-0.010995574295520782;0.004886921960860491
01:00:0A:00:00:00:00;1724371622;23/08/24;00:07:02;1.016;-0.013;0.07;0.02321287989616394;-0.009773843921720982;0.004886921960860491
01:00:0A:00:00:00:00;1724371623;23/08/24;00:07:03;1.016;-0.014;0.07;0.02321287989616394;-0.012217304669320583;0.0036651913542300463
01:00:0A:00:00:00:00;1724371624;23/08/24;00:07:04;1.015;-0.014;0.07;0.02321287989616394;-0.010995574295520782;0.0036651913542300463
01:00:0A:00:00:00:00;1724371625;23/08/24;00:07:05;1.016;-0.013;0.07;0.02321287989616394;-0.010995574295520782;0.004886921960860491
01:00:0A:00:00:00:00;1724371626;23/08/24;00:07:06;1.015;-0.013;0.071;0.02321287989616394;-0.010995574295520782;0.004886921960860491
01:00:0A:00:00:00:00;1724371627;23/08/24;00:07:07;1.015;-0.014;0.07;0.02321287989616394;-0.010995574295520782;0.0036651913542300463
01:00:0A:00:00:00:00;1724371628;23/08/24;00:07:08;1.016;-0.013;0.069;0.02321287989616394;-0.012217304669320583;0.0036651913542300463
01:00:0A:00:00:00:00;1724371629;23/08/24;00:07:09;1.016;-0.013;0.07;0.02321287989616394;-0.010995574295520782;0.0036651913542300463
01:00:0A:00:00:00:00;1724371630;23/08/24;00:07:10;1.015;-0.014;0.07;0.02321287989616394;-0.010995574295520782;0.004886921960860491
01:00:0A:00:00:00:00;1724371631;23/08/24;00:07:11;1.016;-0.014;0.071;0.021991148591041565;-0.010995574295520782;0.0036651913542300463
01:00:0A:00:00:00:00;1724371632;23/08/24;00:07:12;1.015;-0.014;0.071;0.02321287989616394;-0.010995574295520782;0.004886921960860491
01:00:0A:00:00:00:00;1724371633;23/08/24;00:07:13;1.014;-0.014;0.07;0.021991148591041565;-0.012217304669320583;0.0036651913542300463
01:00:0A:00:00:00:00;1724371634;23/08/24;00:07:14;1.015;-0.016;0.071;0.02321287989616394;-0.0073303827084600925;0.014660765416920185
01:00:0A:00:00:00:00;1724371635;23/08/24;00:07:15;1.016;-0.035;0.075;0.02932153083384037;-0.010995574295520782;0.02076941914856434
01:00:0A:00:00:00:00;1724371636;23/08/24;00:07:16;1.015;-0.037;0.074;0.045204028487205505;-0.010995574295520782;0.0012217304902151227
01:00:0A:00:00:00:00;1724371637;23/08/24;00:07:17;1.016;-0.028;0.075;0.05619959905743599;-0.014660765416920185;-0.010995574295520782
01:00:0A:00:00:00:00;1724371638;23/08/24;00:07:18;1.016;-0.01;0.069;0.05497787147760391;-0.015882495790719986;-0.006108652334660292
01:00:0A:00:00:00:00;1724371639;23/08/24;00:07:19;1.015;-0.011;0.068;0.05009094998240471;-0.006108652334660292;0.01710422709584236
01:00:0A:00:00:00:00;1724371640;23/08/24;00:07:20;1.015;-0.021;0.074;0.05009094998240471;-0.010995574295520782;0.0036651913542300463
01:00:0A:00:00:00:00;1724371641;23/08/24;00:07:21;1.015;-0.01;0.07;0.04886921867728233;-0.015882495790719986;-0.004886921960860491
01:00:0A:00:00:00:00;1724371642;23/08/24;00:07:22;1.016;-0.012;0.07;0.045204028487205505;-0.006108652334660292;0.015882495790719986
01:00:0A:00:00:00:00;1724371643;23/08/24;00:07:23;1.016;-0.019;0.074;0.04642575979232788;-0.012217304669320583;0.0036651913542300463
01:00:0A:00:00:00:00;1724371644;23/08/24;00:07:24;1.015;-0.01;0.069;0.045204028487205505;-0.014660765416920185;-0.0012217304902151227
01:00:0A:00:00:00:00;1724371645;23/08/24;00:07:25;1.016;-0.013;0.07;0.042760565876960754;-0.006108652334660292;0.014660765416920185
01:00:0A:00:00:00:00;1724371646;23/08/24;00:07:26;1.016;-0.017;0.074;0.04398229718208313;-0.012217304669320583;0.0024434609804302454
01:00:0A:00:00:00:00;1724371647;23/08/24;00:07:27;1.016;-0.011;0.069;0.042760565876960754;-0.014660765416920185;0.0012217304902151227
01:00:0A:00:00:00:00;1724371648;23/08/24;00:07:28;1.016;-0.013;0.071;0.04153883829712868;-0.006108652334660292;0.012217304669320583
01:00:0A:00:00:00:00;1724371649;23/08/24;00:07:29;1.016;-0.018;0.073;0.04153883829712868;-0.013439035043120384;0.0012217304902151227
01:00:0A:00:00:00:00;1724371650;23/08/24;00:07:30;1.015;-0.01;0.069;0.040317103266716;-0.014660765416920185;0.0024434609804302454
01:00:0A:00:00:00:00;1724371651;23/08/24;00:07:31;1.015;-0.015;0.071;0.039095375686883926;-0.006108652334660292;0.010995574295520782
01:00:0A:00:00:00:00;1724371652;23/08/24;00:07:32;1.015;-0.015;0.073;0.039095375686883926;-0.013439035043120384;0.0024434609804302454
01:00:0A:00:00:00:00;1724371653;23/08/24;00:07:33;1.015;-0.011;0.068;0.039095375686883926;-0.012217304669320583;0.0036651913542300463
01:00:0A:00:00:00:00;1724371654;23/08/24;00:07:34;1.016;-0.013;0.071;0.03787364438176155;-0.0073303827084600925;0.00855211354792118
01:00:0A:00:00:00:00;1724371655;23/08/24;00:07:35;1.016;-0.014;0.071;0.03787364438176155;-0.014660765416920185;0.0024434609804302454
01:00:0A:00:00:00:00;1724371656;23/08/24;00:07:36;1.015;-0.012;0.069;0.036651913076639175;-0.012217304669320583;0.004886921960860491
01:00:0A:00:00:00:00;1724371657;23/08/24;00:07:37;1.015;-0.014;0.071;0.036651913076639175;-0.0073303827084600925;0.00855211354792118
01:00:0A:00:00:00:00;1724371658;23/08/24;00:07:38;1.015;-0.014;0.072;0.036651913076639175;-0.013439035043120384;0.0012217304902151227
01:00:0A:00:00:00:00;1724371659;23/08/24;00:07:39;1.016;-0.012;0.069;0.0354301817715168;-0.012217304669320583;0.004886921960860491
01:00:0A:00:00:00:00;1724371660;23/08/24;00:07:40;1.016;-0.014;0.071;0.0354301817715168;-0.00855211354792118;0.0073303827084600925
01:00:0A:00:00:00:00;1724371661;23/08/24;00:07:41;1.016;-0.014;0.071;0.0354301817715168;-0.013439035043120384;0.0024434609804302454
01:00:0A:00:00:00:00;1724371662;23/08/24;00:07:42;1.016;-0.011;0.069;0.0354301817715168;-0.010995574295520782;0.004886921960860491
01:00:0A:00:00:00:00;1724371663;23/08/24;00:07:43;1.015;-0.015;0.071;0.03420845419168472;-0.009773843921720982;0.006108652334660292
01:00:0A:00:00:00:00;1724371664;23/08/24;00:07:44;1.015;-0.014;0.071;0.03420845419168472;-0.013439035043120384;0.0024434609804302454
01:00:0A:00:00:00:00;1724371665;23/08/24;00:07:45;1.016;-0.013;0.07;0.03420845419168472;-0.010995574295520782;0.006108652334660292
01:00:0A:00:00:00:00;1724371666;23/08/24;00:07:46;1.016;-0.014;0.071;0.03420845419168472;-0.00855211354792118;0.006108652334660292
01:00:0A:00:00:00:00;1724371667;23/08/24;00:07:47;1.015;-0.013;0.07;0.03420845419168472;-0.013439035043120384;0.0024434609804302454
01:00:0A:00:00:00:00;1724371668;23/08/24;00:07:48;1.014;-0.012;0.069;0.03420845419168472;-0.010995574295520782;0.004886921960860491
01:00:0A:00:00:00:00;1724371669;23/08/24;00:07:49;1.015;-0.014;0.071;0.03420845419168472;-0.010995574295520782;0.006108652334660292
01:00:0A:00:00:00:00;1724371670;23/08/24;00:07:50;1.016;-0.013;0.071;0.03420845419168472;-0.013439035043120384;0.0036651913542300463
01:00:0A:00:00:00:00;1724371671;23/08/24;00:07:51;1.015;-0.012;0.07;0.03298672288656235;-0.009773843921720982;0.006108652334660292
01:00:0A:00:00:00:00;1724371672;23/08/24;00:07:52;1.016;-0.014;0.071;0.03298672288656235;-0.009773843921720982;0.004886921960860491
01:00:0A:00:00:00:00;1724371673;23/08/24;00:07:53;1.016;-0.013;0.069;0.03298672288656235;-0.013439035043120384;0.0036651913542300463
01:00:0A:00:00:00:00;1724371674;23/08/24;00:07:54;1.016;-0.014;0.068;0.03298672288656235;-0.009773843921720982;0.006108652334660292
01:00:0A:00:00:00:00;1724371675;23/08/24;00:07:55;1.014;-0.014;0.071;0.03298672288656235;-0.010995574295520782;0.004886921960860491
01:00:0A:00:00:00:00;1724371676;23/08/24;00:07:56;1.016;-0.014;0.07;0.03298672288656235;-0.012217304669320583;0.0036651913542300463
01:00:0A:00:00:00:00;1724371677;23/08/24;00:07:57;1.015;-0.012;0.07;0.03298672288656235;-0.009773843921720982;0.004886921960860491
01:00:0A:00:00:00:00;1724371678;23/08/24;00:07:58;1.015;-0.014;0.071;0.03176499158143997;-0.010995574295520782;0.004886921960860491
01:00:0A:00:00:00:00;1724371679;23/08/24;00:07:59;1.016;-0.014;0.07;0.03176499158143997;-0.012217304669320583;0.004886921960860491
01:00:0A:00:00:00:00;1724371680;23/08/24;00:08:00;1.016;-0.014;0.07;0.03176499158143997;-0.009773843921720982;0.004886921960860491
01:00:0A:00:00:00:00;1724371681;23/08/24;00:08:01;1.015;-0.014;0.071;0.03176499158143997;-0.010995574295520782;0.004886921960860491
01:00:0A:00:00:00:00;1724371682;23/08/24;00:08:02;1.016;-0.014;0.069;0.03176499158143997;-0.013439035043120384;0.0036651913542300463
01:00:0A:00:00:00:00;1724371683;23/08/24;00:08:03;1.016;-0.013;0.07;0.03176499158143997;-0.009773843921720982;0.004886921960860491
01:00:0A:00:00:00:00;1724371684;23/08/24;00:08:04;1.015;-0.013;0.07;0.03176499158143997;-0.010995574295520782;0.004886921960860491
01:00:0A:00:00:00:00;1724371685;23/08/24;00:08:05;1.016;-0.013;0.069;0.03176499158143997;-0.012217304669320583;0.0036651913542300463
01:00:0A:00:00:00:00;1724371686;23/08/24;00:08:06;1.015;-0.014;0.07;0.030543262138962746;-0.010995574295520782;0.004886921960860491
01:00:0A:00:00:00:00;1724371687;23/08/24;00:08:07;1.016;-0.014;0.07;0.030543262138962746;-0.012217304669320583;0.004886921960860491
01:00:0A:00:00:00:00;1724371688;23/08/24;00:08:08;1.015;-0.013;0.071;0.030543262138962746;-0.012217304669320583;0.004886921960860491
01:00:0A:00:00:00:00;1724371689;23/08/24;00:08:09;1.016;-0.014;0.07;0.030543262138962746;-0.009773843921720982;0.004886921960860491
01:00:0A:00:00:00:00;1724371690;23/08/24;00:08:10;1.015;-0.013;0.072;0.030543262138962746;-0.012217304669320583;0.0036651913542300463
01:00:0A:00:00:00:00;1724371691;23/08/24;00:08:11;1.016;-0.014;0.07;0.030543262138962746;-0.012217304669320583;0.004886921960860491
01:00:0A:00:00:00:00;1724371692;23/08/24;00:08:12;1.015;-0.013;0.07;0.02932153083384037;-0.010995574295520782;0.004886921960860491
01:00:0A:00:00:00:00;1724371693;23/08/24;00:08:13;1.015;-0.014;0.071;0.02932153083384037;-0.010995574295520782;0.004886921960860491
01:00:0A:00:00:00:00;1724371694;23/08/24;00:08:14;1.015;-0.014;0.07;0.02932153083384037;-0.010995574295520782;0.004886921960860491
01:00:0A:00:00:00:00;1724371695;23/08/24;00:08:15;1.016;-0.014;0.07;0.02932153083384037;-0.010995574295520782;0.004886921960860491
01:00:0A:00:00:00:00;1724371696;23/08/24;00:08:16;1.016;-0.014;0.07;0.02932153083384037;-0.012217304669320583;0.004886921960860491
01:00:0A:00:00:00:00;1724371697;23/08/24;00:08:17;1.015;-0.014;0.07;0.02932153083384037;-0.010995574295520782;0.004886921960860491
01:00:0A:00:00:00:00;1724371698;23/08/24;00:08:18;1.016;-0.014;0.07;0.02932153083384037;-0.009773843921720982;0.004886921960860491
01:00:0A:00:00:00:00;1724371699;23/08/24;00:08:19;1.015;-0.013;0.071;0.02932153083384037;-0.012217304669320583;0.004886921960860491
01:00:0A:00:00:00:00;1724371700;23/08/24;00:08:20;1.016;-0.014;0.07;0.02932153083384037;-0.010995574295520782;0.0036651913542300463
01:00:0A:00:00:00:00;1724371701;23/08/24;00:08:21;1.015;-0.014;0.071;0.028099799528717995;-0.010995574295520782;0.004886921960860491
01:00:0A:00:00:00:00;1724371702;23/08/24;00:08:22;1.015;-0.014;0.071;0.028099799528717995;-0.010995574295520782;0.004886921960860491
01:00:0A:00:00:00:00;1724371703;23/08/24;00:08:23;1.015;-0.014;0.07;0.028099799528717995;-0.010995574295520782;0.004886921960860491
01:00:0A:00:00:00:00;1724371704;23/08/24;00:08:24;1.014;-0.014;0.071;0.028099799528717995;-0.010995574295520782;0.004886921960860491
01:00:0A:00:00:00:00;1724371705;23/08/24;00:08:25;1.016;-0.013;0.071;0.028099799528717995;-0.010995574295520782;0.004886921960860491
01:00:0A:00:00:00:00;1724371706;23/08/24;00:08:26;1.016;-0.013;0.071;0.028099799528717995;-0.010995574295520782;0.004886921960860491
01:00:0A:00:00:00:00;1724371707;23/08/24;00:08:27;1.016;-0.014;0.071;0.028099799528717995;-0.010995574295520782;0.004886921960860491
01:00:0A:00:00:00:00;1724371708;23/08/24;00:08:28;1.015;-0.014;0.07;0.028099799528717995;-0.012217304669320583;0.004886921960860491
01:00:0A:00:00:00:00;1724371709;23/08/24;00:08:29;1.016;-0.013;0.071;0.028099799528717995;-0.012217304669320583;0.004886921960860491
01:00:0A:00:00:00:00;1724371710;23/08/24;00:08:30;1.014;-0.014;0.069;0.028099799528717995;-0.010995574295520782;0.004886921960860491
01:00:0A:00:00:00:00;1724371711;23/08/24;00:08:31;1.016;-0.014;0.071;0.028099799528717995;-0.012217304669320583;0.004886921960860491
01:00:0A:00:00:00:00;1724371712;23/08/24;00:08:32;1.015;-0.014;0.07;0.028099799528717995;-0.010995574295520782;0.004886921960860491
01:00:0A:00:00:00:00;1724371713;23/08/24;00:08:33;1.016;-0.013;0.071;0.028099799528717995;-0.010995574295520782;0.004886921960860491
01:00:0A:00:00:00:00;1724371714;23/08/24;00:08:34;1.016;-0.014;0.07;0.028099799528717995;-0.012217304669320583;0.004886921960860491
01:00:0A:00:00:00:00;1724371715;23/08/24;00:08:35;1.016;-0.013;0.07;0.028099799528717995;-0.010995574295520782;0.004886921960860491
01:00:0A:00:00:00:00;1724371716;23/08/24;00:08:36;1.015;-0.013;0.069;0.028099799528717995;-0.010995574295520782;0.004886921960860491
01:00:0A:00:00:00:00;1724371717;23/08/24;00:08:37;1.015;-0.013;0.071;0.02687807008624077;-0.012217304669320583;0.004886921960860491
01:00:0A:00:00:00:00;1724371718;23/08/24;00:08:38;1.014;-0.014;0.071;0.028099799528717995;-0.010995574295520782;0.004886921960860491
01:00:0A:00:00:00:00;1724371719;23/08/24;00:08:39;1.016;-0.013;0.07;0.02687807008624077;-0.010995574295520782;0.004886921960860491
01:00:0A:00:00:00:00;1724371720;23/08/24;00:08:40;1.016;-0.012;0.07;0.02687807008624077;-0.010995574295520782;0.004886921960860491
01:00:0A:00:00:00:00;1724371721;23/08/24;00:08:41;1.016;-0.014;0.07;0.028099799528717995;-0.010995574295520782;0.004886921960860491
01:00:0A:00:00:00:00;1724371722;23/08/24;00:08:42;1.015;-0.014;0.07;0.02687807008624077;-0.010995574295520782;0.004886921960860491
01:00:0A:00:00:00:00;1724371723;23/08/24;00:08:43;1.016;-0.014;0.07;0.02687807008624077;-0.012217304669320583;0.004886921960860491
01:00:0A:00:00:00:00;1724371724;23/08/24;00:08:44;1.015;-0.013;0.07;0.02687807008624077;-0.010995574295520782;0.004886921960860491
01:00:0A:00:00:00:00;1724371725;23/08/24;00:08:45;1.016;-0.014;0.069;0.02687807008624077;-0.010995574295520782;0.004886921960860491
01:00:0A:00:00:00:00;1724371726;23/08/24;00:08:46;1.016;-0.013;0.07;0.02687807008624077;-0.012217304669320583;0.004886921960860491
01:00:0A:00:00:00:00;1724371727;23/08/24;00:08:47;1.015;-0.014;0.071;0.02687807008624077;-0.010995574295520782;0.004886921960860491
01:00:0A:00:00:00:00;1724371728;23/08/24;00:08:48;1.015;-0.013;0.07;0.02687807008624077;-0.010995574295520782;0.004886921960860491
01:00:0A:00:00:00:00;1724371729;23/08/24;00:08:49;1.014;-0.013;0.069;0.02687807008624077;-0.010995574295520782;0.004886921960860491
01:00:0A:00:00:00:00;1724371730;23/08/24;00:08:50;1.015;-0.014;0.071;0.02687807008624077;-0.010995574295520782;0.004886921960860491
01:00:0A:00:00:00:00;1724371731;23/08/24;00:08:51;1.016;-0.015;0.07;0.02687807008624077;-0.010995574295520782;0.004886921960860491
01:00:0A:00:00:00:00;1724371732;23/08/24;00:08:52;1.015;-0.014;0.07;0.02687807008624077;-0.010995574295520782;0.004886921960860491
01:00:0A:00:00:00:00;1724371733;23/08/24;00:08:53;1.016;-0.013;0.07;0.02687807008624077;-0.010995574295520782;0.004886921960860491
01:00:0A:00:00:00:00;1724371734;23/08/24;00:08:54;1.015;-0.013;0.069;0.02687807008624077;-0.010995574295520782;0.004886921960860491
01:00:0A:00:00:00:00;1724371735;23/08/24;00:08:55;1.016;-0.012;0.07;0.02687807008624077;-0.010995574295520782;0.004886921960860491
01:00:0A:00:00:00:00;1724371736;23/08/24;00:08:56;1.016;-0.015;0.071;0.02687807008624077;-0.010995574295520782;0.004886921960860491
01:00:0A:00:00:00:00;1724371737;23/08/24;00:08:57;1.015;-0.013;0.071;0.02687807008624077;-0.010995574295520782;0.004886921960860491
01:00:0A:00:00:00:00;1724371738;23/08/24;00:08:58;1.016;-0.014;0.07;0.02687807008624077;-0.010995574295520782;0.004886921960860491
01:00:0A:00:00:00:00;1724371739;23/08/24;00:08:59;1.016;-0.013;0.071;0.02687807008624077;-0.010995574295520782;0.004886921960860491
01:00:0A:00:00:00:00;1724371740;23/08/24;00:09:00;1.016;-0.013;0.071;0.02687807008624077;-0.010995574295520782;0.004886921960860491
01:00:0A:00:00:00:00;1724371741;23/08/24;00:09:01;1.016;-0.014;0.07;0.02687807008624077;-0.012217304669320583;0.004886921960860491
01:00:0A:00:00:00:00;1724371742;23/08/24;00:09:02;1.016;-0.014;0.07;0.02687807008624077;-0.010995574295520782;0.004886921960860491
01:00:0A:00:00:00:00;1724371743;23/08/24;00:09:03;1.016;-0.014;0.071;0.02687807008624077;-0.010995574295520782;0.004886921960860491
01:00:0A:00:00:00:00;1724371744;23/08/24;00:09:04;1.015;-0.014;0.071;0.02687807008624077;-0.010995574295520782;0.0036651913542300463
01:00:0A:00:00:00:00;1724371745;23/08/24;00:09:05;1.015;-0.014;0.072;0.025656338781118393;-0.010995574295520782;0.004886921960860491
01:00:0A:00:00:00:00;1724371746;23/08/24;00:09:06;1.016;-0.014;0.07;0.025656338781118393;-0.010995574295520782;0.004886921960860491
01:00:0A:00:00:00:00;1724371747;23/08/24;00:09:07;1.016;-0.013;0.07;0.02687807008624077;-0.010995574295520782;0.004886921960860491
01:00:0A:00:00:00:00;1724371748;23/08/24;00:09:08;1.015;-0.013;0.071;0.025656338781118393;-0.010995574295520782;0.004886921960860491
01:00:0A:00:00:00:00;1724371749;23/08/24;00:09:09;1.016;-0.015;0.07;0.02687807008624077;-0.010995574295520782;0.004886921960860491
01:00:0A:00:00:00:00;1724371750;23/08/24;00:09:10;1.016;-0.013;0.07;0.025656338781118393;-0.010995574295520782;0.004886921960860491
01:00:0A:00:00:00:00;1724371751;23/08/24;00:09:11;1.016;-0.014;0.07;0.025656338781118393;-0.012217304669320583;0.004886921960860491
01:00:0A:00:00:00:00;1724371752;23/08/24;00:09:12;1.016;-0.014;0.07;0.02687807008624077;-0.010995574295520782;0.004886921960860491
01:00:0A:00:00:00:00;1724371753;23/08/24;00:09:13;1.015;-0.014;0.071;0.025656338781118393;-0.010995574295520782;0.004886921960860491
01:00:0A:00:00:00:00;1724371754;23/08/24;00:09:14;1.016;-0.013;0.07;0.025656338781118393;-0.010995574295520782;0.004886921960860491
01:00:0A:00:00:00:00;1724371755;23/08/24;00:09:15;1.016;-0.013;0.07;0.025656338781118393;-0.010995574295520782;0.004886921960860491
01:00:0A:00:00:00:00;1724371756;23/08/24;00:09:16;1.016;-0.013;0.071;0.025656338781118393;-0.010995574295520782;0.004886921960860491
01:00:0A:00:00:00:00;1724371757;23/08/24;00:09:17;1.016;-0.014;0.07;0.025656338781118393;-0.010995574295520782;0.004886921960860491
01:00:0A:00:00:00:00;1724371758;23/08/24;00:09:18;1.016;-0.014;0.07;0.025656338781118393;-0.010995574295520782;0.004886921960860491
01:00:0A:00:00:00:00;1724371759;23/08/24;00:09:19;1.016;-0.013;0.07;0.025656338781118393;-0.010995574295520782;0.004886921960860491
01:00:0A:00:00:00:00;1724371760;23/08/24;00:09:20;1.016;-0.014;0.07;0.025656338781118393;-0.010995574295520782;0.004886921960860491
01:00:0A:00:00:00:00;1724371761;23/08/24;00:09:21;1.016;-0.013;0.07;0.025656338781118393;-0.010995574295520782;0.004886921960860491
01:00:0A:00:00:00:00;1724371762;23/08/24;00:09:22;1.015;-0.014;0.07;0.025656338781118393;-0.010995574295520782;0.004886921960860491
01:00:0A:00:00:00:00;1724371763;23/08/24;00:09:23;1.016;-0.013;0.07;0.025656338781118393;-0.010995574295520782;0.004886921960860491
01:00:0A:00:00:00:00;1724371764;23/08/24;00:09:24;1.016;-0.013;0.071;0.024434609338641167;-0.010995574295520782;0.004886921960860491
01:00:0A:00:00:00:00;1724371765;23/08/24;00:09:25;1.014;-0.014;0.07;0.025656338781118393;-0.010995574295520782;0.004886921960860491
01:00:0A:00:00:00:00;1724371766;23/08/24;00:09:26;1.015;-0.014;0.07;0.024434609338641167;-0.010995574295520782;0.004886921960860491
01:00:0A:00:00:00:00;1724371767;23/08/24;00:09:27;1.015;-0.014;0.07;0.024434609338641167;-0.010995574295520782;0.004886921960860491
01:00:0A:00:00:00:00;1724371768;23/08/24;00:09:28;1.015;-0.012;0.07;0.024434609338641167;-0.012217304669320583;0.004886921960860491
01:00:0A:00:00:00:00;1724371769;23/08/24;00:09:29;1.015;-0.014;0.07;0.024434609338641167;-0.012217304669320583;0.004886921960860491
01:00:0A:00:00:00:00;1724371770;23/08/24;00:09:30;1.015;-0.013;0.069;0.024434609338641167;-0.010995574295520782;0.004886921960860491
01:00:0A:00:00:00:00;1724371771;23/08/24;00:09:31;1.014;-0.013;0.07;0.02321287989616394;-0.010995574295520782;0.0036651913542300463
01:00:0A:00:00:00:00;1724371772;23/08/24;00:09:32;1.016;-0.013;0.07;0.02321287989616394;-0.010995574295520782;0.004886921960860491
01:00:0A:00:00:00:00;1724371773;23/08/24;00:09:33;1.016;-0.013;0.07;0.02321287989616394;-0.012217304669320583;0.004886921960860491
01:00:0A:00:00:00:00;1724371774;23/08/24;00:09:34;1.015;-0.013;0.071;0.02321287989616394;-0.010995574295520782;0.004886921960860491
01:00:0A:00:00:00:00;1724371775;23/08/24;00:09:35;1.016;-0.014;0.07;0.02321287989616394;-0.010995574295520782;0.0036651913542300463
01:00:0A:00:00:00:00;1724371776;23/08/24;00:09:36;1.016;-0.013;0.071;0.02321287989616394;-0.010995574295520782;0.0036651913542300463
01:00:0A:00:00:00:00;1724371777;23/08/24;00:09:37;1.016;-0.013;0.07;0.021991148591041565;-0.010995574295520782;0.004886921960860491
01:00:0A:00:00:00:00;1724371778;23/08/24;00:09:38;1.015;-0.014;0.071;0.021991148591041565;-0.010995574295520782;0.004886921960860491
01:00:0A:00:00:00:00;1724371779;23/08/24;00:09:39;1.016;-0.014;0.07;0.021991148591041565;-0.010995574295520782;0.0036651913542300463
01:00:0A:00:00:00:00;1724371780;23/08/24;00:09:40;1.016;-0.014;0.071;0.021991148591041565;-0.010995574295520782;0.0036651913542300463
01:00:0A:00:00:00:00;1724371781;23/08/24;00:09:41;1.015;-0.012;0.071;0.021991148591041565;-0.010995574295520782;0.0036651913542300463
01:00:0A:00:00:00:00;1724371782;23/08/24;00:09:42;1.015;-0.014;0.071;0.021991148591041565;-0.010995574295520782;0.004886921960860491
01:00:0A:00:00:00:00;1724371783;23/08/24;00:09:43;1.016;-0.014;0.069;0.02076941914856434;-0.010995574295520782;0.004886921960860491
01:00:0A:00:00:00:00;1724371784;23/08/24;00:09:44;1.015;-0.013;0.071;0.02076941914856434;-0.010995574295520782;0.0036651913542300463
01:00:0A:00:00:00:00;1724371785;23/08/24;00:09:45;1.015;-0.013;0.071;0.02076941914856434;-0.010995574295520782;0.0036651913542300463
01:00:0A:00:00:00:00;1724371786;23/08/24;00:09:46;1.016;-0.012;0.07;0.02076941914856434;-0.010995574295520782;0.004886921960860491
01:00:0A:00:00:00:00;1724371787;23/08/24;00:09:47;1.015;-0.013;0.07;0.02076941914856434;-0.010995574295520782;0.004886921960860491
01:00:0A:00:00:00:00;1724371788;23/08/24;00:09:48;1.016;-0.012;0.071;0.02076941914856434;-0.010995574295520782;0.004886921960860491
01:00:0A:00:00:00:00;1724371789;23/08/24;00:09:49;1.016;-0.014;0.071;0.019547687843441963;-0.012217304669320583;0.0036651913542300463
01:00:0A:00:00:00:00;1724371790;23/08/24;00:09:50;1.015;-0.013;0.071;0.019547687843441963;-0.010995574295520782;0.0036651913542300463
01:00:0A:00:00:00:00;1724371791;23/08/24;00:09:51;1.015;-0.014;0.07;0.019547687843441963;-0.012217304669320583;0.004886921960860491
01:00:0A:00:00:00:00;1724371792;23/08/24;00:09:52;1.015;-0.013;0.07;0.019547687843441963;-0.010995574295520782;0.004886921960860491
01:00:0A:00:00:00:00;1724371793;23/08/24;00:09:53;1.015;-0.014;0.07;0.019547687843441963;-0.012217304669320583;0.0036651913542300463
01:00:0A:00:00:00:00;1724371794;23/08/24;00:09:54;1.014;-0.013;0.071;0.019547687843441963;-0.010995574295520782;0.0036651913542300463
01:00:0A:00:00:00:00;1724371795;23/08/24;00:09:55;1.016;-0.014;0.07;0.018325956538319588;-0.010995574295520782;0.0036651913542300463
01:00:0A:00:00:00:00;1724371796;23/08/24;00:09:56;1.016;-0.012;0.071;0.019547687843441963;-0.012217304669320583;0.0036651913542300463
01:00:0A:00:00:00:00;1724371797;23/08/24;00:09:57;1.014;-0.014;0.072;0.018325956538319588;-0.010995574295520782;0.0036651913542300463
01:00:0A:00:00:00:00;1724371798;23/08/24;00:09:58;1.016;-0.013;0.07;0.018325956538319588;-0.010995574295520782;0.0036651913542300463
01:00:0A:00:00:00:00;1724371799;23/08/24;00:09:59;1.014;-0.013;0.071;0.018325956538319588;-0.010995574295520782;0.0036651913542300463
01:00:0A:00:00:00:00;1724371800;23/08/24;00:10:00;1.015;-0.014;0.071;0.018325956538319588;-0.010995574295520782;0.0036651913542300463
01:00:0A:00:00:00:00;1724371801;23/08/24;00:10:01;1.015;-0.013;0.071;0.018325956538319588;-0.010995574295520782;0.0036651913542300463
01:00:0A:00:00:00:00;1724371802;23/08/24;00:10:02;1.014;-0.013;0.069;0.018325956538319588;-0.010995574295520782;0.0036651913542300463
01:00:0A:00:00:00:00;1724371803;23/08/24;00:10:03;1.015;-0.014;0.07;0.018325956538319588;-0.010995574295520782;0.0036651913542300463
01:00:0A:00:00:00:00;1724371804;23/08/24;00:10:04;1.016;-0.013;0.071;0.018325956538319588;-0.010995574295520782;0.0036651913542300463
01:00:0A:00:00:00:00;1724371805;23/08/24;00:10:05;1.015;-0.013;0.07;0.018325956538319588;-0.010995574295520782;0.004886921960860491
01:00:0A:00:00:00:00;1724371806;23/08/24;00:10:06;1.016;-0.014;0.07;0.018325956538319588;-0.010995574295520782;0.0036651913542300463
01:00:0A:00:00:00:00;1724371807;23/08/24;00:10:07;1.016;-0.014;0.07;0.01710422709584236;-0.010995574295520782;0.0036651913542300463
01:00:0A:00:00:00:00;1724371808;23/08/24;00:10:08;1.016;-0.013;0.07;0.018325956538319588;-0.010995574295520782;0.0036651913542300463
01:00:0A:00:00:00:00;1724371809;23/08/24;00:10:09;1.016;-0.013;0.071;0.01710422709584236;-0.010995574295520782;0.0036651913542300463
01:00:0A:00:00:00:00;1724371810;23/08/24;00:10:10;1.016;-0.013;0.071;0.01710422709584236;-0.010995574295520782;0.004886921960860491
01:00:0A:00:00:00:00;1724371811;23/08/24;00:10:11;1.015;-0.013;0.07;0.01710422709584236;-0.010995574295520782;0.004886921960860491
01:00:0A:00:00:00:00;1724371812;23/08/24;00:10:12;1.016;-0.014;0.071;0.01710422709584236;-0.010995574295520782;0.0036651913542300463
01:00:0A:00:00:00:00;1724371813;23/08/24;00:10:13;1.015;-0.028;0.084;0.018325956538319588;-0.0012217304902151227;0.013439035043120384
01:00:0A:00:00:00:00;1724371814;23/08/24;00:10:14;1.015;-0.031;0.089;0.021991148591041565;-0.00855211354792118;0.0073303827084600925
01:00:0A:00:00:00:00;1724371815;23/08/24;00:10:15;1.014;-0.035;0.08;0.025656338781118393;-0.02687807008624077;0.004886921960860491
01:00:0A:00:00:00:00;1724371816;23/08/24;00:10:16;1.014;-0.025;0.071;0.036651913076639175;-0.012217304669320583;-0.018325956538319588
01:00:0A:00:00:00:00;1724371817;23/08/24;00:10:17;1.015;0.0;0.07;0.03298672288656235;-0.012217304669320583;-0.0073303827084600925
01:00:0A:00:00:00:00;1724371818;23/08/24;00:10:18;1.016;-0.018;0.071;0.024434609338641167;-0.009773843921720982;0.03176499158143997
01:00:0A:00:00:00:00;1724371819;23/08/24;00:10:19;1.016;-0.023;0.071;0.03176499158143997;-0.012217304669320583;-0.013439035043120384
01:00:0A:00:00:00:00;1724371820;23/08/24;00:10:20;1.016;0.0;0.07;0.028099799528717995;-0.012217304669320583;0.0
01:00:0A:00:00:00:00;1724371821;23/08/24;00:10:21;1.016;-0.017;0.071;0.02321287989616394;-0.009773843921720982;0.028099799528717995
01:00:0A:00:00:00:00;1724371822;23/08/24;00:10:22;1.016;-0.019;0.071;0.030543262138962746;-0.013439035043120384;-0.014660765416920185
01:00:0A:00:00:00:00;1724371823;23/08/24;00:10:23;1.015;-0.002;0.069;0.025656338781118393;-0.012217304669320583;0.0024434609804302454
01:00:0A:00:00:00:00;1724371824;23/08/24;00:10:24;1.016;-0.018;0.071;0.021991148591041565;-0.00855211354792118;0.021991148591041565
01:00:0A:00:00:00:00;1724371825;23/08/24;00:10:25;1.015;-0.018;0.071;0.028099799528717995;-0.013439035043120384;-0.012217304669320583
01:00:0A:00:00:00:00;1724371826;23/08/24;00:10:26;1.015;-0.004;0.069;0.024434609338641167;-0.012217304669320583;0.0036651913542300463
01:00:0A:00:00:00:00;1724371827;23/08/24;00:10:27;1.015;-0.019;0.071;0.021991148591041565;-0.00855211354792118;0.019547687843441963
01:00:0A:00:00:00:00;1724371828;23/08/24;00:10:28;1.014;-0.017;0.072;0.02687807008624077;-0.013439035043120384;-0.009773843921720982
01:00:0A:00:00:00:00;1724371829;23/08/24;00:10:29;1.016;-0.006;0.07;0.02321287989616394;-0.010995574295520782;0.0073303827084600925
01:00:0A:00:00:00:00;1724371830;23/08/24;00:10:30;1.015;-0.019;0.071;0.02076941914856434;-0.00855211354792118;0.01710422709584236
01:00:0A:00:00:00:00;1724371831;23/08/24;00:10:31;1.014;-0.014;0.071;0.025656338781118393;-0.014660765416920185;-0.009773843921720982
01:00:0A:00:00:00:00;1724371832;23/08/24;00:10:32;1.014;-0.007;0.069;0.021991148591041565;-0.010995574295520782;0.00855211354792118
01:00:0A:00:00:00:00;1724371833;23/08/24;00:10:33;1.015;-0.019;0.072;0.02076941914856434;-0.00855211354792118;0.012217304669320583
01:00:0A:00:00:00:00;1724371834;23/08/24;00:10:34;1.015;-0.014;0.071;0.024434609338641167;-0.014660765416920185;-0.0073303827084600925
01:00:0A:00:00:00:00;1724371835;23/08/24;00:10:35;1.016;-0.009;0.068;0.021991148591041565;-0.010995574295520782;0.00855211354792118
01:00:0A:00:00:00:00;1724371836;23/08/24;00:10:36;1.015;-0.017;0.071;0.02076941914856434;-0.009773843921720982;0.009773843921720982
01:00:0A:00:00:00:00;1724371837;23/08/24;00:10:37;1.016;-0.014;0.071;0.02321287989616394;-0.014660765416920185;-0.006108652334660292
01:00:0A:00:00:00:00;1724371838;23/08/24;00:10:38;1.016;-0.01;0.069;0.02076941914856434;-0.010995574295520782;0.009773843921720982
01:00:0A:00:00:00:00;1724371839;23/08/24;00:10:39;1.016;-0.017;0.071;0.02076941914856434;-0.00855211354792118;0.009773843921720982
01:00:0A:00:00:00:00;1724371840;23/08/24;00:10:40;1.014;-0.013;0.07;0.02321287989616394;-0.014660765416920185;-0.004886921960860491
01:00:0A:00:00:00:00;1724371841;23/08/24;00:10:41;1.015;-0.01;0.069;0.02076941914856434;-0.009773843921720982;0.009773843921720982
01:00:0A:00:00:00:00;1724371842;23/08/24;00:10:42;1.015;-0.018;0.071;0.02076941914856434;-0.009773843921720982;0.006108652334660292
01:00:0A:00:00:00:00;1724371843;23/08/24;00:10:43;1.016;-0.013;0.07;0.021991148591041565;-0.014660765416920185;-0.0036651913542300463
01:00:0A:00:00:00:00;1724371844;23/08/24;00:10:44;1.015;-0.011;0.07;0.019547687843441963;-0.010995574295520782;0.00855211354792118
01:00:0A:00:00:00:00;1724371845;23/08/24;00:10:45;1.015;-0.016;0.072;0.02076941914856434;-0.009773843921720982;0.006108652334660292
01:00:0A:00:00:00:00;1724371846;23/08/24;00:10:46;1.016;-0.011;0.071;0.021991148591041565;-0.013439035043120384;-0.0024434609804302454
01:00:0A:00:00:00:00;1724371847;23/08/24;00:10:47;1.015;-0.012;0.07;0.019547687843441963;-0.009773843921720982;0.009773843921720982
01:00:0A:00:00:00:00;1724371848;23/08/24;00:10:48;1.015;-0.016;0.072;0.019547687843441963;-0.010995574295520782;0.004886921960860491
01:00:0A:00:00:00:00;1724371849;23/08/24;00:10:49;1.015;-0.012;0.071;0.02076941914856434;-0.013439035043120384;-0.0012217304902151227
01:00:0A:00:00:00:00;1724371850;23/08/24;00:10:50;1.016;-0.011;0.071;0.019547687843441963;-0.009773843921720982;0.00855211354792118
01:00:0A:00:00:00:00;1724371851;23/08/24;00:10:51;1.015;-0.016;0.071;0.019547687843441963;-0.010995574295520782;0.0036651913542300463
01:00:0A:00:00:00:00;1724371852;23/08/24;00:10:52;1.015;-0.012;0.07;0.019547687843441963;-0.013439035043120384;0.0
01:00:0A:00:00:00:00;1724371853;23/08/24;00:10:53;1.016;-0.012;0.069;0.018325956538319588;-0.009773843921720982;0.00855211354792118
01:00:0A:00:00:00:00;1724371854;23/08/24;00:10:54;1.016;-0.015;0.072;0.019547687843441963;-0.010995574295520782;0.0036651913542300463
01:00:0A:00:00:00:00;1724371855;23/08/24;00:10:55;1.016;-0.012;0.069;0.019547687843441963;-0.013439035043120384;0.0012217304902151227
01:00:0A:00:00:00:00;1724371856;23/08/24;00:10:56;1.015;-0.014;0.069;0.018325956538319588;-0.004886921960860491;0.00855211354792118
01:00:0A:00:00:00:00;1724371857;23/08/24;00:10:57;1.015;-0.018;0.08;0.01710422709584236;-0.0024434609804302454;0.00855211354792118
01:00:0A:00:00:00:00;1724371858;23/08/24;00:10:58;1.016;-0.015;0.078;0.014660765416920185;-0.012217304669320583;0.0
01:00:0A:00:00:00:00;1724371859;23/08/24;00:10:59;1.016;-0.015;0.075;0.009773843921720982;-0.013439035043120384;0.00855211354792118
01:00:0A:00:00:00:00;1724371860;23/08/24;00:11:00;1.015;-0.015;0.071;0.010995574295520782;-0.019547687843441963;-0.0036651913542300463
01:00:0A:00:00:00:00;1724371861;23/08/24;00:11:01;1.016;-0.009;0.066;0.010995574295520782;-0.010995574295520782;0.0012217304902151227
01:00:0A:00:00:00:00;1724371862;23/08/24;00:11:02;1.016;-0.015;0.072;0.009773843921720982;-0.006108652334660292;0.012217304669320583
01:00:0A:00:00:00:00;1724371863;23/08/24;00:11:03;1.016;-0.016;0.071;0.010995574295520782;-0.018325956538319588;-0.0036651913542300463
01:00:0A:00:00:00:00;1724371864;23/08/24;00:11:04;1.016;-0.009;0.067;0.010995574295520782;-0.010995574295520782;0.0024434609804302454
01:00:0A:00:00:00:00;1724371865;23/08/24;00:11:05;1.016;-0.015;0.073;0.009773843921720982;-0.0073303827084600925;0.010995574295520782
01:00:0A:00:00:00:00;1724371866;23/08/24;00:11:06;1.015;-0.015;0.071;0.010995574295520782;-0.01710422709584236;-0.0024434609804302454
01:00:0A:00:00:00:00;1724371867;23/08/24;00:11:07;1.015;-0.011;0.068;0.010995574295520782;-0.009773843921720982;0.0036651913542300463
01:00:0A:00:00:00:00;1724371868;23/08/24;00:11:08;1.015;-0.015;0.073;0.009773843921720982;-0.0073303827084600925;0.009773843921720982
01:00:0A:00:00:00:00;1724371869;23/08/24;00:11:09;1.016;-0.015;0.071;0.010995574295520782;-0.01710422709584236;-0.0012217304902151227
01:00:0A:00:00:00:00;1724371870;23/08/24;00:11:10;1.016;-0.01;0.068;0.009773843921720982;-0.009773843921720982;0.004886921960860491
01:00:0A:00:00:00:00;1724371871;23/08/24;00:11:11;1.015;-0.015;0.072;0.009773843921720982;-0.00855211354792118;0.00855211354792118
01:00:0A:00:00:00:00;1724371872;23/08/24;00:11:12;1.014;-0.014;0.071;0.010995574295520782;-0.015882495790719986;-0.0012217304902151227
01:00:0A:00:00:00:00;1724371873;23/08/24;00:11:13;1.015;-0.011;0.068;0.009773843921720982;-0.00855211354792118;0.004886921960860491
01:00:0A:00:00:00:00;1724371874;23/08/24;00:11:14;1.015;-0.015;0.072;0.009773843921720982;-0.009773843921720982;0.0073303827084600925
01:00:0A:00:00:00:00;1724371875;23/08/24;00:11:15;1.016;-0.014;0.071;0.009773843921720982;-0.015882495790719986;0.0
01:00:0A:00:00:00:00;1724371876;23/08/24;00:11:16;1.016;-0.011;0.07;0.009773843921720982;-0.00855211354792118;0.004886921960860491
01:00:0A:00:00:00:00;1724371877;23/08/24;00:11:17;1.016;-0.015;0.072;0.009773843921720982;-0.009773843921720982;0.006108652334660292
01:00:0A:00:00:00:00;1724371878;23/08/24;00:11:18;1.015;-0.015;0.07;0.009773843921720982;-0.014660765416920185;0.0
01:00:0A:00:00:00:00;1724371879;23/08/24;00:11:19;1.016;-0.011;0.07;0.009773843921720982;-0.00855211354792118;0.006108652334660292
01:00:0A:00:00:00:00;1724371880;23/08/24;00:11:20;1.016;-0.015;0.071;0.00855211354792118;-0.009773843921720982;0.006108652334660292
01:00:0A:00:00:00:00;1724371881;23/08/24;00:11:21;1.015;-0.015;0.07;0.009773843921720982;-0.013439035043120384;0.0
01:00:0A:00:00:00:00;1724371882;23/08/24;00:11:22;1.015;-0.012;0.068;0.009773843921720982;-0.009773843921720982;0.004886921960860491
01:00:0A:00:00:00:00;1724371883;23/08/24;00:11:23;1.016;-0.015;0.071;0.009773843921720982;-0.010995574295520782;0.004886921960860491
01:00:0A:00:00:00:00;1724371884;23/08/24;00:11:24;1.016;-0.013;0.07;0.009773843921720982;-0.013439035043120384;0.0012217304902151227
01:00:0A:00:00:00:00;1724371885;23/08/24;00:11:25;1.016;-0.012;0.069;0.009773843921720982;-0.009773843921720982;0.006108652334660292
01:00:0A:00:00:00:00;1724371886;23/08/24;00:11:26;1.016;-0.016;0.071;0.009773843921720982;-0.010995574295520782;0.004886921960860491
01:00:0A:00:00:00:00;1724371887;23/08/24;00:11:27;1.015;-0.012;0.069;0.009773843921720982;-0.013439035043120384;0.0012217304902151227
01:00:0A:00:00:00:00;1724371888;23/08/24;00:11:28;1.016;-0.012;0.07;0.009773843921720982;-0.009773843921720982;0.004886921960860491
01:00:0A:00:00:00:00;1724371889;23/08/24;00:11:29;1.015;-0.015;0.071;0.009773843921720982;-0.010995574295520782;0.004886921960860491
01:00:0A:00:00:00:00;1724371890;23/08/24;00:11:30;1.015;-0.013;0.07;0.009773843921720982;-0.013439035043120384;0.0012217304902151227
01:00:0A:00:00:00:00;1724371891;23/08/24;00:11:31;1.016;-0.012;0.069;0.009773843921720982;-0.009773843921720982;0.004886921960860491
01:00:0A:00:00:00:00;1724371892;23/08/24;00:11:32;1.015;-0.014;0.072;0.009773843921720982;-0.012217304669320583;0.0036651913542300463
01:00:0A:00:00:00:00;1724371893;23/08/24;00:11:33;1.015;-0.013;0.07;0.009773843921720982;-0.013439035043120384;0.0024434609804302454
01:00:0A:00:00:00:00;1724371894;23/08/24;00:11:34;1.016;-0.013;0.07;0.009773843921720982;-0.009773843921720982;0.004886921960860491
01:00:0A:00:00:00:00;1724371895;23/08/24;00:11:35;1.015;-0.014;0.071;0.009773843921720982;-0.012217304669320583;0.0036651913542300463
01:00:0A:00:00:00:00;1724371896;23/08/24;00:11:36;1.015;-0.014;0.069;0.009773843921720982;-0.012217304669320583;0.0024434609804302454
01:00:0A:00:00:00:00;1724371897;23/08/24;00:11:37;1.015;-0.013;0.071;0.009773843921720982;-0.009773843921720982;0.004886921960860491
01:00:0A:00:00:00:00;1724371898;23/08/24;00:11:38;1.016;-0.014;0.071;0.009773843921720982;-0.012217304669320583;0.0036651913542300463
01:00:0A:00:00:00:00;1724371899;23/08/24;00:11:39;1.015;-0.013;0.071;0.009773843921720982;-0.012217304669320583;0.0024434609804302454
01:00:0A:00:00:00:00;1724371900;23/08/24;00:11:40;1.016;-0.013;0.07;0.00855211354792118;-0.010995574295520782;0.004886921960860491
01:00:0A:00:00:00:00;1724371901;23/08/24;00:11:41;1.016;-0.014;0.071;0.009773843921720982;-0.012217304669320583;0.0036651913542300463
01:00:0A:00:00:00:00;1724371902;23/08/24;00:11:42;1.016;-0.013;0.069;0.009773843921720982;-0.012217304669320583;0.0024434609804302454
01:00:0A:00:00:00:00;1724371903;23/08/24;00:11:43;1.015;-0.013;0.071;0.00855211354792118;-0.009773843921720982;0.004886921960860491
01:00:0A:00:00:00:00;1724371904;23/08/24;00:11:44;1.016;-0.014;0.071;0.00855211354792118;-0.012217304669320583;0.0036651913542300463
01:00:0A:00:00:00:00;1724371905;23/08/24;00:11:45;1.014;-0.013;0.07;0.009773843921720982;-0.010995574295520782;0.0036651913542300463
01:00:0A:00:00:00:00;1724371906;23/08/24;00:11:46;1.015;-0.014;0.07;0.00855211354792118;-0.010995574295520782;0.004886921960860491
01:00:0A:00:00:00:00;1724371907;23/08/24;00:11:47;1.015;-0.013;0.071;0.00855211354792118;-0.012217304669320583;0.0036651913542300463
01:00:0A:00:00:00:00;1724371908;23/08/24;00:11:48;1.016;-0.013;0.069;0.00855211354792118;-0.012217304669320583;0.0036651913542300463
01:00:0A:00:00:00:00;1724371909;23/08/24;00:11:49;1.016;-0.014;0.071;0.00855211354792118;-0.010995574295520782;0.004886921960860491
01:00:0A:00:00:00:00;1724371910;23/08/24;00:11:50;1.016;-0.013;0.07;0.00855211354792118;-0.012217304669320583;0.0036651913542300463
01:00:0A:00:00:00:00;1724371911;23/08/24;00:11:51;1.016;-0.013;0.071;0.00855211354792118;-0.010995574295520782;0.0036651913542300463
01:00:0A:00:00:00:00;1724371912;23/08/24;00:11:52;1.016;-0.013;0.07;0.00855211354792118;-0.010995574295520782;0.004886921960860491
01:00:0A:00:00:00:00;1724371913;23/08/24;00:11:53;1.015;-0.014;0.07;0.00855211354792118;-0.012217304669320583;0.0036651913542300463
01:00:0A:00:00:00:00;1724371914;23/08/24;00:11:54;1.015;-0.013;0.07;0.00855211354792118;-0.010995574295520782;0.0036651913542300463
01:00:0A:00:00:00:00;1724371915;23/08/24;00:11:55;1.016;-0.014;0.071;0.00855211354792118;-0.010995574295520782;0.004886921960860491
01:00:0A:00:00:00:00;1724371916;23/08/24;00:11:56;1.016;-0.013;0.07;0.00855211354792118;-0.012217304669320583;0.0036651913542300463
01:00:0A:00:00:00:00;1724371917;23/08/24;00:11:57;1.016;-0.013;0.07;0.00855211354792118;-0.010995574295520782;0.0036651913542300463
01:00:0A:00:00:00:00;1724371918;23/08/24;00:11:58;1.015;-0.013;0.071;0.00855211354792118;-0.010995574295520782;0.0036651913542300463
01:00:0A:00:00:00:00;1724371919;23/08/24;00:11:59;1.015;-0.013;0.07;0.00855211354792118;-0.012217304669320583;0.0036651913542300463
01:00:0A:00:00:00:00;1724371920;23/08/24;00:12:00;1.016;-0.013;0.071;0.00855211354792118;-0.010995574295520782;0.0036651913542300463
01:00:0A:00:00:00:00;1724371921;23/08/24;00:12:01;1.014;-0.014;0.071;0.00855211354792118;-0.010995574295520782;0.0036651913542300463
01:00:0A:00:00:00:00;1724371922;23/08/24;00:12:02;1.015;-0.014;0.07;0.00855211354792118;-0.012217304669320583;0.0036651913542300463
01:00:0A:00:00:00:00;1724371923;23/08/24;00:12:03;1.016;-0.014;0.07;0.00855211354792118;-0.010995574295520782;0.0036651913542300463
01:00:0A:00:00:00:00;1724371924;23/08/24;00:12:04;1.015;-0.014;0.071;0.00855211354792118;-0.010995574295520782;0.0036651913542300463
01:00:0A:00:00:00:00;1724371925;23/08/24;00:12:05;1.016;-0.013;0.07;0.00855211354792118;-0.012217304669320583;0.0036651913542300463
01:00:0A:00:00:00:00;1724371926;23/08/24;00:12:06;1.016;-0.014;0.07;0.00855211354792118;-0.010995574295520782;0.0036651913542300463
01:00:0A:00:00:00:00;1724371927;23/08/24;00:12:07;1.015;-0.015;0.072;0.00855211354792118;-0.010995574295520782;0.0036651913542300463
01:00:0A:00:00:00:00;1724371928;23/08/24;00:12:08;1.016;-0.014;0.07;0.00855211354792118;-0.010995574295520782;0.0036651913542300463
01:00:0A:00:00:00:00;1724371929;23/08/24;00:12:09;1.016;-0.014;0.07;0.00855211354792118;-0.010995574295520782;0.0036651913542300463
01:00:0A:00:00:00:00;1724371930;23/08/24;00:12:10;1.016;-0.014;0.07;0.00855211354792118;-0.010995574295520782;0.0036651913542300463
01:00:0A:00:00:00:00;1724371931;23/08/24;00:12:11;1.015;-0.013;0.07;0.00855211354792118;-0.012217304669320583;0.0024434609804302454
01:00:0A:00:00:00:00;1724371932;23/08/24;00:12:12;1.016;-0.013;0.071;0.00855211354792118;-0.010995574295520782;0.0036651913542300463
01:00:0A:00:00:00:00;1724371933;23/08/24;00:12:13;1.015;-0.014;0.07;0.00855211354792118;-0.010995574295520782;0.0036651913542300463
01:00:0A:00:00:00:00;1724371934;23/08/24;00:12:14;1.015;-0.014;0.07;0.00855211354792118;-0.010995574295520782;0.0036651913542300463
01:00:0A:00:00:00:00;1724371935;23/08/24;00:12:15;1.015;-0.013;0.07;0.00855211354792118;-0.010995574295520782;0.0036651913542300463
01:00:0A:00:00:00:00;1724371936;23/08/24;00:12:16;1.015;-0.013;0.07;0.00855211354792118;-0.010995574295520782;0.0036651913542300463
01:00:0A:00:00:00:00;1724371937;23/08/24;00:12:17;1.015;-0.014;0.07;0.00855211354792118;-0.012217304669320583;0.0036651913542300463
01:00:0A:00:00:00:00;1724371938;23/08/24;00:12:18;1.015;-0.013;0.07;0.00855211354792118;-0.010995574295520782;0.0036651913542300463
01:00:0A:00:00:00:00;1724371939;23/08/24;00:12:19;1.015;-0.014;0.071;0.009773843921720982;-0.010995574295520782;0.0036651913542300463
01:00:0A:00:00:00:00;1724371940;23/08/24;00:12:20;1.015;-0.014;0.071;0.009773843921720982;-0.010995574295520782;0.0036651913542300463
01:00:0A:00:00:00:00;1724371941;23/08/24;00:12:21;1.016;-0.013;0.07;0.009773843921720982;-0.010995574295520782;0.0036651913542300463
01:00:0A:00:00:00:00;1724371942;23/08/24;00:12:22;1.015;-0.013;0.069;0.00855211354792118;-0.010995574295520782;0.0036651913542300463
01:00:0A:00:00:00:00;1724371943;23/08/24;00:12:23;1.016;-0.014;0.07;0.009773843921720982;-0.010995574295520782;0.0036651913542300463
01:00:0A:00:00:00:00;1724371944;23/08/24;00:12:24;1.016;-0.012;0.07;0.009773843921720982;-0.010995574295520782;0.0036651913542300463
01:00:0A:00:00:00:00;1724371945;23/08/24;00:12:25;1.015;-0.014;0.071;0.009773843921720982;-0.012217304669320583;0.0036651913542300463
01:00:0A:00:00:00:00;1724371946;23/08/24;00:12:26;1.015;-0.013;0.07;0.009773843921720982;-0.012217304669320583;0.0036651913542300463
01:00:0A:00:00:00:00;1724371947;23/08/24;00:12:27;1.016;-0.013;0.07;0.009773843921720982;-0.010995574295520782;0.0036651913542300463
01:00:0A:00:00:00:00;1724371948;23/08/24;00:12:28;1.016;-0.014;0.071;0.009773843921720982;-0.010995574295520782;0.0036651913542300463
01:00:0A:00:00:00:00;1724371949;23/08/24;00:12:29;1.016;-0.013;0.07;0.009773843921720982;-0.010995574295520782;0.0036651913542300463
01:00:0A:00:00:00:00;1724371950;23/08/24;00:12:30;1.016;-0.013;0.07;0.009773843921720982;-0.010995574295520782;0.0036651913542300463
01:00:0A:00:00:00:00;1724371951;23/08/24;00:12:31;1.016;-0.013;0.07;0.009773843921720982;-0.012217304669320583;0.0036651913542300463
01:00:0A:00:00:00:00;1724371952;23/08/24;00:12:32;1.015;-0.014;0.07;0.009773843921720982;-0.010995574295520782;0.0036651913542300463
01:00:0A:00:00:00:00;1724371953;23/08/24;00:12:33;1.015;-0.013;0.071;0.009773843921720982;-0.010995574295520782;0.0036651913542300463
01:00:0A:00:00:00:00;1724371954;23/08/24;00:12:34;1.015;-0.013;0.07;0.009773843921720982;-0.010995574295520782;0.0036651913542300463
01:00:0A:00:00:00:00;1724371955;23/08/24;00:12:35;1.016;-0.014;0.069;0.009773843921720982;-0.012217304669320583;0.0036651913542300463
01:00:0A:00:00:00:00;1724371956;23/08/24;00:12:36;1.015;-0.013;0.071;0.009773843921720982;-0.010995574295520782;0.0036651913542300463
01:00:0A:00:00:00:00;1724371957;23/08/24;00:12:37;1.016;-0.014;0.071;0.009773843921720982;-0.010995574295520782;0.0036651913542300463
01:00:0A:00:00:00:00;1724371958;23/08/24;00:12:38;1.018;-0.002;0.069;0.009773843921720982;-0.012217304669320583;-0.018325956538319588
01:00:0A:00:00:00:00;1724371959;23/08/24;00:12:39;0.828;0.696;0.009;-2.4752259254455566;-0.08429940044879913;-0.45204028487205505
01:00:0A:00:00:00:00;1724371960;23/08/24;00:12:40;0.849;-0.596;-0.179;-4.533841609954834;0.34574973583221436;2.395813465118408
01:00:0A:00:00:00:00;1724371961;23/08/24;00:12:41;0.837;0.7;-0.159;-2.353053092956543;-0.3188716471195221;0.5326744914054871
01:00:0A:00:00:00:00;1724371962;23/08/24;00:12:42;0.416;0.252;-0.65;-3.749490737915039;0.20647244155406952;-1.0836749076843262
01:00:0A:00:00:00:00;1724371963;23/08/24;00:12:43;0.715;-0.636;0.622;-3.1813862323760986;1.7421876192092896;-0.3494149148464203
01:00:0A:00:00:00:00;1724371964;23/08/24;00:12:44;1.064;-0.084;0.054;-1.7531832456588745;0.5400049090385437;-0.7550294399261475
01:00:0A:00:00:00:00;1724371965;23/08/24;00:12:45;0.566;-0.413;0.76;-1.957212209701538;-0.13927726447582245;0.11972958594560623
01:00:0A:00:00:00:00;1724371966;23/08/24;00:12:46;1.034;-0.096;-0.181;-9.961990356445312;-0.7305948734283447;-0.05375614017248154
01:00:0A:00:00:00:00;1724371967;23/08/24;00:12:47;1.013;-0.211;0.102;-6.368880748748779;0.38240164518356323;0.19914205372333527
01:00:0A:00:00:00:00;1724371968;23/08/24;00:12:48;1.02;0.009;-0.001;-4.493524551391602;-0.11972958594560623;0.12461651116609573
01:00:0A:00:00:00:00;1724371969;23/08/24;00:12:49;0.547;-0.358;-0.987;-1.3170254230499268;-0.5143485069274902;0.08918632566928864
01:00:0A:00:00:00:00;1724371970;23/08/24;00:12:50;0.926;0.034;-0.147;-0.4801400899887085;0.014660765416920185;0.08307767659425735
01:00:0A:00:00:00:00;1724371971;23/08/24;00:12:51;0.337;-0.361;0.76;-2.593733787536621;-0.9896016716957092;0.862541675567627
01:00:0A:00:00:00:00;1724371972;23/08/24;00:12:52;0.949;0.223;-0.394;-1.0018190145492554;0.3481931686401367;-1.5943583250045776
01:00:0A:00:00:00:00;1724371973;23/08/24;00:12:53;0.979;-0.273;-0.061;-0.8185594081878662;-0.6927211880683899;0.5204571485519409
01:00:0A:00:00:00:00;1724371974;23/08/24;00:12:54;0.95;-0.168;-0.334;0.2565633952617645;-0.3237585723400116;-0.22968533635139465
01:00:0A:00:00:00:00;1724371975;23/08/24;00:12:55;0.876;-0.317;-0.517;0.8833111524581909;-0.4752531349658966;-0.38728854060173035
01:00:0A:00:00:00:00;1724371976;23/08/24;00:12:56;1.032;-0.09;0.044;1.1496483087539673;0.4300491213798523;-0.41783180832862854
01:00:0A:00:00:00:00;1724371977;23/08/24;00:12:57;1.002;0.173;0.127;0.7171557545661926;0.1111774742603302;0.16249015927314758
01:00:0A:00:00:00:00;1724371978;23/08/24;00:12:58;0.701;-0.186;-0.464;-0.5803219676017761;-3.6774086952209473;0.3090977966785431
01:00:0A:00:00:00:00;1724371979;23/08/24;00:12:59;0.93;-0.254;-0.158;0.2871066629886627;0.8710938096046448;1.026253581047058
01:00:0A:00:00:00:00;1724371980;23/08/24;00:13:00;0.841;0.378;0.556;-1.2693779468536377;-0.31642818450927734;-1.4758504629135132
01:00:0A:00:00:00:00;1724371981;23/08/24;00:13:01;1.03;0.081;0.17;-1.5613715648651123;-0.598647952079773;0.16249015927314758
01:00:0A:00:00:00:00;1724371982;23/08/24;00:13:02;0.802;0.093;-0.464;-1.1239920854568481;-0.5412266254425049;-0.3323107063770294
01:00:0A:00:00:00:00;1724371983;23/08/24;00:13:03;0.827;-0.375;0.379;-7.704232215881348;0.8112289905548096;0.607200026512146
01:00:0A:00:00:00:00;1724371984;23/08/24;00:13:04;0.997;-0.061;0.333;-4.734205722808838;-0.6340781450271606;-0.02687807008624077
01:00:0A:00:00:00:00;1724371985;23/08/24;00:13:05;0.974;0.231;0.117;-3.517362117767334;-0.15027284622192383;0.10506881773471832
01:00:0A:00:00:00:00;1724371986;23/08/24;00:13:06;0.635;0.454;-0.155;-2.1783454418182373;-2.665815830230713;-2.643824815750122
01:00:0A:00:00:00:00;1724371987;23/08/24;00:13:07;1.041;0.219;0.135;-1.7079792022705078;-0.3445279896259308;1.1227703094482422
01:00:0A:00:00:00:00;1724371988;23/08/24;00:13:08;0.839;-0.492;-0.385;-1.290147304534912;-0.4300491213798523;0.6181955933570862
01:00:0A:00:00:00:00;1724371989;23/08/24;00:13:09;0.724;0.754;-0.213;-0.5375614166259766;0.7342600226402283;-1.6004669666290283
01:00:0A:00:00:00:00;1724371990;23/08/24;00:13:10;0.692;0.181;0.778;-0.9822713136672974;-0.1417207270860672;0.6145303845405579
01:00:0A:00:00:00:00;1724371991;23/08/24;00:13:11;0.802;-0.684;0.216;-0.7757988572120667;-0.375071257352829;-0.4764748811721802
01:00:0A:00:00:00:00;1724371992;23/08/24;00:13:12;0.87;0.189;-0.394;0.19547687470912933;0.9944885969161987;-2.8429667949676514
01:00:0A:00:00:00:00;1724371993;23/08/24;00:13:13;0.808;-0.351;0.74;0.22113320231437683;-1.2473868131637573;2.0537290573120117
01:00:0A:00:00:00:00;1724371994;23/08/24;00:13:14;0.37;-0.536;0.946;-1.3939944505691528;-0.5155702233314514;-0.3323107063770294
01:00:0A:00:00:00:00;1724371995;23/08/24;00:13:15;0.802;-0.363;-0.357;1.3133602142333984;-1.2510520219802856;2.0305159091949463
01:00:0A:00:00:00:00;1724371996;23/08/24;00:13:16;0.752;-0.508;0.557;-1.8460347652435303;1.8839082717895508;0.7318165302276611
01:00:0A:00:00:00:00;1724371997;23/08/24;00:13:17;0.953;-0.436;-0.316;-1.0103710889816284;0.2981022298336029;-0.08552113175392151
01:00:0A:00:00:00:00;1724371998;23/08/24;00:13:18;0.552;-0.315;-0.628;-6.569244861602783;-0.15393804013729095;-1.9217820167541504
01:00:0A:00:00:00:00;1724371999;23/08/24;00:13:19;0.424;-1.146;-0.051;-1.5540411472320557;-1.0042624473571777;-0.6890559792518616
01:00:0A:00:00:00:00;1724372000;23/08/24;00:13:20;0.366;-0.394;0.979;-0.5668829083442688;-1.529606580734253;-1.4196507930755615
01:00:0A:00:00:00:00;1724372001;23/08/24;00:13:21;0.688;-0.769;-0.234;-0.7819074988365173;-2.046398639678955;3.649308919906616
01:00:0A:00:00:00:00;1724372002;23/08/24;00:13:22;0.679;-0.772;-0.017;1.1215485334396362;-0.2370157092809677;-1.2791517972946167
01:00:0A:00:00:00:00;1724372003;23/08/24;00:13:23;0.922;-0.444;-0.148;2.2821927070617676;-0.34574973583221436;-0.4141666293144226
01:00:0A:00:00:00:00;1724372004;23/08/24;00:13:24;0.554;-0.303;-0.747;0.24190263450145721;0.04886921867728233;-1.1166616678237915
01:00:0A:00:00:00:00;1724372005;23/08/24;00:13:25;0.956;-0.533;0.386;1.0739011764526367;0.45692718029022217;-0.10018189996480942
01:00:0A:00:00:00:00;1724372006;23/08/24;00:13:26;0.976;0.459;0.176;0.42149701714515686;-0.13316862285137177;0.1270599663257599
01:00:0A:00:00:00:00;1724372007;23/08/24;00:13:27;1.005;-0.428;0.237;0.32498031854629517;-0.9370672702789307;0.27122414112091064
01:00:0A:00:00:00:00;1724372008;23/08/24;00:13:28;0.779;0.114;-0.635;-0.24190263450145721;0.779464066028595;-0.8026769161224365
01:00:0A:00:00:00:00;1724372009;23/08/24;00:13:29;0.907;-0.342;0.388;-0.12950342893600464;0.13927726447582245;0.778242290019989
01:00:0A:00:00:00:00;1724372010;23/08/24;00:13:30;0.565;-0.451;0.656;-0.10995574295520782;-2.1685714721679688;-1.137431025505066
01:00:0A:00:00:00:00;1724372011;23/08/24;00:13:31;0.785;0.321;0.384;-0.6218608021736145;0.2541199326515198;0.49235740303993225
01:00:0A:00:00:00:00;1724372012;23/08/24;00:13:32;0.979;-0.205;-0.001;-0.8564330339431763;-1.330464482307434;-0.12461651116609573
01:00:0A:00:00:00:00;1724372013;23/08/24;00:13:33;0.942;0.228;-0.203;-0.3274237811565399;0.22602014243602753;-0.22602014243602753
01:00:0A:00:00:00:00;1724372014;23/08/24;00:13:34;0.996;-0.426;0.375;-0.19058994948863983;0.7672467231750488;0.2541199326515198
01:00:0A:00:00:00:00;1724372015;23/08/24;00:13:35;0.552;0.778;0.263;-2.464230537414551;-0.960280179977417;0.41172316670417786
01:00:0A:00:00:00:00;1724372016;23/08/24;00:13:36;0.845;-0.394;-0.171;-1.9889771938323975;0.5583308339118958;0.05864306166768074
01:00:0A:00:00:00:00;1724372017;23/08/24;00:13:37;0.619;0.568;-0.135;-1.938886284828186;0.16371189057826996;0.8967502117156982
01:00:0A:00:00:00:00;1724372018;23/08/24;00:13:38;0.966;0.084;0.136;-1.4648548364639282;0.13072516024112701;0.740368664264679
01:00:0A:00:00:00:00;1724372019;23/08/24;00:13:39;0.866;-0.456;-0.333;-0.8784241676330566;-0.42638394236564636;-0.8588765263557434
01:00:0A:00:00:00:00;1724372020;23/08/24;00:13:40;0.366;0.773;-0.756;0.5119050741195679;0.6902776956558228;0.7721336483955383
01:00:0A:00:00:00:00;1724372021;23/08/24;00:13:41;0.36;0.219;-1.051;-1.1349875926971436;-0.6829473376274109;0.06108652427792549
01:00:0A:00:00:00:00;1724372022;23/08/24;00:13:42;0.55;0.849;0.452;-3.4208452701568604;0.929736852645874;-2.3933699131011963
01:00:0A:00:00:00:00;1724372023;23/08/24;00:13:43;0.67;-0.663;-0.219;-1.6982053518295288;-0.23090705275535583;-1.2754865884780884
01:00:0A:00:00:00:00;1724372024;23/08/24;00:13:44;0.718;-0.742;-0.024;-0.1270599663257599;0.32620203495025635;-0.8735373020172119
01:00:0A:00:00:00:00;1724372025;23/08/24;00:13:45;0.595;-0.773;-0.243;0.5448917746543884;-0.2675589621067047;-1.3939944505691528
01:00:0A:00:00:00:00;1724372026;23/08/24;00:13:46;0.602;-0.888;-0.029;-0.7867944240570068;-0.5070181488990784;0.6878342032432556
01:00:0A:00:00:00:00;1724372027;23/08/24;00:13:47;0.736;-0.023;-0.753;0.7855727076530457;0.09407324343919754;-1.0201449394226074
01:00:0A:00:00:00:00;1724372028;23/08/24;00:13:48;0.79;0.052;-0.584;0.3543018400669098;-0.3701843321323395;-1.2889256477355957
01:00:0A:00:00:00:00;1724372029;23/08/24;00:13:49;1.036;0.385;-0.035;1.222952127456665;1.6456708908081055;0.0012217304902151227
01:00:0A:00:00:00:00;1724372030;23/08/24;00:13:50;0.276;-0.273;1.031;0.7990117073059082;1.1875219345092773;0.921184778213501
01:00:0A:00:00:00:00;1724372031;23/08/24;00:13:51;0.849;-0.157;0.353;0.3335324227809906;-1.7935004234313965;0.2675589621067047
01:00:0A:00:00:00:00;1724372032;23/08/24;00:13:52;0.853;-0.373;-0.191;0.7733554244041443;1.026253581047058;-0.998153805732727
01:00:0A:00:00:00:00;1724372033;23/08/24;00:13:53;0.757;-0.69;-0.113;1.5735888481140137;-2.169793128967285;0.20647244155406952
01:00:0A:00:00:00:00;1724372034;23/08/24;00:13:54;0.554;-0.5;-0.839;0.17592918872833252;-1.164309024810791;-1.2693779468536377
01:00:0A:00:00:00:00;1724372035;23/08/24;00:13:55;0.975;0.141;-0.159;1.2791517972946167;1.8093827962875366;-0.2785545289516449
01:00:0A:00:00:00:00;1724372036;23/08/24;00:13:56;0.816;-0.23;0.482;0.5595525503158569;-0.3176499307155609;1.459967851638794
01:00:0A:00:00:00:00;1724372037;23/08/24;00:13:57;0.952;-0.159;-0.035;0.38240164518356323;-1.0091493129730225;-0.6291911602020264
01:00:0A:00:00:00:00;1724372038;23/08/24;00:13:58;0.962;0.099;-0.074;0.7024949789047241;0.6023131012916565;-0.2480112910270691
01:00:0A:00:00:00:00;1724372039;23/08/24;00:13:59;0.93;-0.111;0.279;0.5070181488990784;0.44104471802711487;0.5241223573684692
01:00:0A:00:00:00:00;1724372040;23/08/24;00:14:00;0.946;-0.24;0.14;0.161268413066864;-0.7623597979545593;0.02687807008624077
01:00:0A:00:00:00:00;1724372041;23/08/24;00:14:01;0.933;-0.351;0.058;0.36529743671417236;0.4447098970413208;0.09773843735456467
01:00:0A:00:00:00:00;1724372042;23/08/24;00:14:02;0.874;-0.225;0.349;0.1918116807937622;-0.32009339332580566;-0.3897320330142975
01:00:0A:00:00:00:00;1724372043;23/08/24;00:14:03;0.907;0.293;0.462;-0.35063666105270386;0.0036651913542300463;-0.24190263450145721
01:00:0A:00:00:00:00;1724372044;23/08/24;00:14:04;0.989;0.195;-0.034;-0.7990117073059082;-0.5216788649559021;-0.294437050819397
01:00:0A:00:00:00:00;1724372045;23/08/24;00:14:05;0.924;0.366;0.193;-1.595579981803894;-0.10018189996480942;-0.10506881773471832
01:00:0A:00:00:00:00;1724372046;23/08/24;00:14:06;0.91;-0.397;0.194;-2.403143882751465;-0.10262535512447357;-0.4642575681209564
01:00:0A:00:00:00:00;1724372047;23/08/24;00:14:07;0.955;0.235;-0.112;-2.847853660583496;0.27611109614372253;0.33719760179519653
01:00:0A:00:00:00:00;1724372048;23/08/24;00:14:08;1.018;-0.201;-0.058;-2.9358184337615967;-0.16004669666290283;-0.24678954482078552
01:00:0A:00:00:00:00;1724372049;23/08/24;00:14:09;0.464;-0.819;0.325;-1.7531832456588745;-0.41661006212234497;-1.0421360731124878
01:00:0A:00:00:00:00;1724372050;23/08/24;00:14:10;1.004;0.032;-0.162;-0.42760565876960754;0.6731734871864319;-1.4770721197128296
01:00:0A:00:00:00:00;1724372051;23/08/24;00:14:11;0.903;0.407;0.328;-1.0714576244354248;-0.1869247555732727;-0.0024434609804302454
01:00:0A:00:00:00:00;1724372052;23/08/24;00:14:12;0.957;0.037;-0.325;-1.1288789510726929;-0.6988298296928406;0.07330382615327835
01:00:0A:00:00:00:00;1724372053;23/08/24;00:14:13;0.997;0.068;0.109;-0.7709119319915771;0.7489207983016968;0.31642818450927734
01:00:0A:00:00:00:00;1724372054;23/08/24;00:14:14;0.953;-0.214;0.054;-0.6914994716644287;-0.20525071024894714;-0.03298672288656235
01:00:0A:00:00:00:00;1724372055;23/08/24;00:14:15;0.965;0.06;0.092;-0.4056144952774048;0.22602014243602753;-0.41783180832862854
01:00:0A:00:00:00:00;1724372056;23/08/24;00:14:16;0.992;-0.017;0.203;-0.7867944240570068;-0.5717698335647583;0.2590068578720093
01:00:0A:00:00:00:00;1724372057;23/08/24;00:14:17;0.986;-0.128;-0.324;-0.2431243658065796;0.685390830039978;-0.16493360698223114
01:00:0A:00:00:00:00;1724372058;23/08/24;00:14:18;0.998;-0.013;0.411;-0.33108896017074585;-0.36651912331581116;-0.13439035415649414
01:00:0A:00:00:00:00;1724372059;23/08/24;00:14:19;0.961;-0.121;-0.445;-0.2174680233001709;-0.41783180832862854;0.1417207270860672
01:00:0A:00:00:00:00;1724372060;23/08/24;00:14:20;0.985;-0.091;0.299;0.10873401165008545;0.47769662737846375;-0.006108652334660292
01:00:0A:00:00:00:00;1724372061;23/08/24;00:14:21;0.959;-0.074;0.153;-0.21380282938480377;-0.7318165302276611;0.11484266817569733
01:00:0A:00:00:00:00;1724372062;23/08/24;00:14:22;0.971;-0.081;-0.087;0.20525071024894714;0.3946189284324646;-0.07819075137376785
01:00:0A:00:00:00:00;1724372063;23/08/24;00:14:23;1.032;0.122;0.027;0.20525071024894714;0.04886921867728233;0.16249015927314758
01:00:0A:00:00:00:00;1724372064;23/08/24;00:14:24;1.013;-0.345;0.016;0.3481931686401367;0.12461651116609573;0.24068090319633484
01:00:0A:00:00:00:00;1724372065;23/08/24;00:14:25;0.9;-0.408;0.34;0.5106833577156067;-0.4251621961593628;0.4080579876899719
01:00:0A:00:00:00:00;1724372066;23/08/24;00:14:26;0.937;-0.379;0.083;0.6499606370925903;-0.03176499158143997;-0.010995574295520782
01:00:0A:00:00:00:00;1724372067;23/08/24;00:14:27;0.876;0.18;0.418;0.4031710624694824;0.14049901068210602;-0.42149701714515686
01:00:0A:00:00:00:00;1724372068;23/08/24;00:14:28;0.85;0.133;0.498;-0.6414085030555725;-0.2272418737411499;0.3274237811565399
01:00:0A:00:00:00:00;1724372069;23/08/24;00:14:29;0.94;-0.152;-0.16;-0.7122688889503479;-0.862541675567627;-0.34697145223617554
01:00:0A:00:00:00:00;1724372070;23/08/24;00:14:30;0.875;-0.136;-0.404;0.2028072476387024;1.0604619979858398;0.436157763004303
01:00:0A:00:00:00:00;1724372071;23/08/24;00:14:31;0.866;-0.274;0.522;0.6524040699005127;-0.3347541391849518;-0.4862487316131592
01:00:0A:00:00:00:00;1724372072;23/08/24;00:14:32;0.954;-0.244;0.328;0.43737950921058655;-0.4080579876899719;-0.2626720666885376
01:00:0A:00:00:00:00;1724372073;23/08/24;00:14:33;0.768;-0.243;0.668;0.2370157092809677;0.9810495376586914;0.33719760179519653
01:00:0A:00:00:00:00;1724372074;23/08/24;00:14:34;0.866;-0.631;0.13;-0.27488934993743896;-1.0873401165008545;0.17104226350784302
01:00:0A:00:00:00:00;1724372075;23/08/24;00:14:35;0.805;-0.649;-0.212;0.7269296050071716;0.5326744914054871;-0.7159340977668762
01:00:0A:00:00:00:00;1724372076;23/08/24;00:14:36;1.024;0.255;-0.051;0.7428121566772461;0.042760565876960754;-0.16859880089759827
01:00:0A:00:00:00:00;1724372077;23/08/24;00:14:37;1.008;-0.113;0.277;0.3946189284324646;0.2541199326515198;0.34574973583221436
01:00:0A:00:00:00:00;1724372078;23/08/24;00:14:38;1.003;-0.218;-0.06;0.2871066629886627;-0.4752531349658966;0.16249015927314758
01:00:0A:00:00:00:00;1724372079;23/08/24;00:14:39;0.958;0.105;0.119;0.5461135506629944;0.21013763546943665;-0.4715879559516907
01:00:0A:00:00:00:00;1724372080;23/08/24;00:14:40;0.964;0.004;0.131;0.14905111491680145;0.10873401165008545;0.7183775305747986
01:00:0A:00:00:00:00;1724372081;23/08/24;00:14:41;0.981;-0.178;0.137;0.3836233615875244;-0.27122414112091064;-0.7367035150527954
01:00:0A:00:00:00:00;1724372082;23/08/24;00:14:42;1.01;0.298;-0.043;0.16859880089759827;0.27611109614372253;0.4789183437824249
01:00:0A:00:00:00:00;1724372083;23/08/24;00:14:43;0.948;-0.452;0.296;0.2919935882091522;-0.03420845419168472;-0.05742133408784866
01:00:0A:00:00:00:00;1724372084;23/08/24;00:14:44;1.016;0.244;-0.122;0.3384193480014801;-0.35185837745666504;-0.4031710624694824
01:00:0A:00:00:00:00;1724372085;23/08/24;00:14:45;0.998;-0.245;0.25;0.313984751701355;0.3799581527709961;0.3445279896259308
01:00:0A:00:00:00:00;1724372085;23/08/24;00:14:45;1.01;0.043;0.131;0.22602014243602753;-0.3042108714580536;-0.33597588539123535
01:00:0A:00:00:00:00;1724372086;23/08/24;00:14:46;0.96;-0.024;-0.07;0.19058994948863983;-0.10995574295520782;0.20525071024894714
01:00:0A:00:00:00:00;1724372087;23/08/24;00:14:47;0.933;-0.061;0.139;0.40683624148368835;0.3591887652873993;-0.10995574295520782
01:00:0A:00:00:00:00;1724372088;23/08/24;00:14:48;0.952;0.002;0.058;0.12339477241039276;-0.7061601877212524;0.09162978082895279
01:00:0A:00:00:00:00;1724372089;23/08/24;00:14:49;0.971;-0.055;0.01;0.5705481767654419;0.8319984674453735;-0.30054569244384766
01:00:0A:00:00:00:00;1724372090;23/08/24;00:14:50;0.949;0.136;0.354;0.0073303827084600925;-0.6621779203414917;0.3017674386501312
01:00:0A:00:00:00:00;1724372091;23/08/24;00:14:51;1.001;-0.192;-0.203;0.2834414541721344;0.2028072476387024;-0.14294245839118958
01:00:0A:00:00:00:00;1724372092;23/08/24;00:14:52;1.001;0.139;0.262;0.3481931686401367;0.2883284091949463;-0.18814648687839508
01:00:0A:00:00:00:00;1724372093;23/08/24;00:14:53;0.996;-0.069;0.061;-0.02687807008624077;-0.27977627515792847;0.36529743671417236
01:00:0A:00:00:00:00;1724372094;23/08/24;00:14:54;0.991;-0.102;-0.002;0.2919935882091522;0.13561207056045532;-0.24678954482078552
01:00:0A:00:00:00:00;1724372095;23/08/24;00:14:55;1.048;0.115;0.152;0.13439035415649414;-0.1563815027475357;0.1869247555732727
01:00:0A:00:00:00:00;1724372096;23/08/24;00:14:56;1.074;-0.265;0.038;0.2431243658065796;-0.004886921960860491;-0.019547687843441963
01:00:0A:00:00:00:00;1724372097;23/08/24;00:14:57;0.983;0.365;0.065;0.20647244155406952;-0.00855211354792118;-0.5534439086914062
01:00:0A:00:00:00:00;1724372098;23/08/24;00:14:58;0.884;-0.518;0.112;0.02687807008624077;0.024434609338641167;1.0983357429504395
01:00:0A:00:00:00:00;1724372099;23/08/24;00:14:59;0.991;0.038;0.045;0.533896267414093;-0.36163222789764404;-0.8991935849189758
01:00:0A:00:00:00:00;1724372100;23/08/24;00:15:00;0.971;0.0;0.073;0.32620203495025635;0.3995058536529541;0.45326200127601624
01:00:0A:00:00:00:00;1724372101;23/08/24;00:15:01;0.972;-0.116;0.226;0.26511549949645996;-0.21624629199504852;-0.1368338167667389
01:00:0A:00:00:00:00;1724372102;23/08/24;00:15:02;1.039;0.007;-0.014;0.24190263450145721;-0.039095375686883926;-0.05253440886735916
01:00:0A:00:00:00:00;1724372103;23/08/24;00:15:03;1.04;-0.037;0.09;0.2565633952617645;0.15271630883216858;0.09162978082895279
01:00:0A:00:00:00:00;1724372104;23/08/24;00:15:04;0.987;-0.052;0.133;0.1661553531885147;-0.012217304669320583;0.09040805697441101
01:00:0A:00:00:00:00;1724372105;23/08/24;00:15:05;0.972;-0.002;0.038;0.14538592100143433;-0.13927726447582245;0.0012217304902151227
01:00:0A:00:00:00:00;1724372106;23/08/24;00:15:06;0.999;-0.009;0.064;0.2125810980796814;0.14294245839118958;0.018325956538319588
01:00:0A:00:00:00:00;1724372107;23/08/24;00:15:07;1.017;-0.025;0.155;0.09651670604944229;-0.28099802136421204;-0.02932153083384037
01:00:0A:00:00:00:00;1724372108;23/08/24;00:15:08;1.025;-0.085;-0.032;0.1722639948129654;-0.05864306166768074;0.19425514340400696
01:00:0A:00:00:00:00;1724372109;23/08/24;00:15:09;1.016;-0.14;0.19;0.37629297375679016;0.1111774742603302;-0.1966986060142517
01:00:0A:00:00:00:00;1724372110;23/08/24;00:15:10;1.054;0.133;0.06;0.20647244155406952;-0.013439035043120384;0.009773843921720982
01:00:0A:00:00:00:00;1724372111;23/08/24;00:15:11;1.006;-0.126;0.124;0.09407324343919754;0.0;0.24068090319633484
01:00:0A:00:00:00:00;1724372112;23/08/24;00:15:12;1.018;-0.07;0.051;0.23090705275535583;-0.13072516024112701;-0.2541199326515198
01:00:0A:00:00:00:00;1724372113;23/08/24;00:15:13;1.013;0.095;0.037;0.18814648687839508;0.019547687843441963;-0.0024434609804302454
01:00:0A:00:00:00:00;1724372114;23/08/24;00:15:14;1.006;-0.078;0.167;0.09040805697441101;-0.03176499158143997;0.19425514340400696
01:00:0A:00:00:00:00;1724372115;23/08/24;00:15:15;0.999;-0.066;0.094;0.161268413066864;-0.1368338167667389;-0.1576032191514969
01:00:0A:00:00:00:00;1724372116;23/08/24;00:15:16;1.002;0.004;0.15;0.13072516024112701;0.10751228034496307;0.0
01:00:0A:00:00:00:00;1724372117;23/08/24;00:15:17;1.005;-0.052;0.087;0.04153883829712868;-0.12095131725072861;0.07819075137376785
