Source;Epoch timestamp (UTC);Date;Time (UTC);Accel X (G);Accel Y (G);Accel Z (G);Gyro X (rad/s);Gyro Y (rad/s);Gyro Z (rad/s)
01:00:0A:00:00:00:00;1726963186;21/09/24;23:59:46;1.008;-0.006;0.161;0.07452555745840073;-0.010995574295520782;0.010995574295520782
01:00:0A:00:00:00:00;1726963187;21/09/24;23:59:47;1.009;-0.005;0.162;0.07208210229873657;-0.00855211354792118;0.014660765416920185
01:00:0A:00:00:00:00;1726963188;21/09/24;23:59:48;1.006;-0.006;0.163;0.0708603635430336;-0.010995574295520782;0.012217304669320583
01:00:0A:00:00:00:00;1726963189;21/09/24;23:59:49;1.008;-0.005;0.162;0.06963863223791122;-0.010995574295520782;0.010995574295520782
01:00:0A:00:00:00:00;1726963190;21/09/24;23:59:50;1.007;-0.005;0.162;0.06841690838336945;-0.0073303827084600925;0.013439035043120384
01:00:0A:00:00:00:00;1726963191;21/09/24;23:59:51;1.008;-0.006;0.162;0.06719517707824707;-0.012217304669320583;0.010995574295520782
01:00:0A:00:00:00:00;1726963192;21/09/24;23:59:52;1.008;-0.005;0.162;0.0659734457731247;-0.009773843921720982;0.012217304669320583
01:00:0A:00:00:00:00;1726963193;21/09/24;23:59:53;1.007;-0.006;0.162;0.0659734457731247;-0.009773843921720982;0.012217304669320583
01:00:0A:00:00:00:00;1726963194;21/09/24;23:59:54;1.007;-0.005;0.162;0.06475171446800232;-0.010995574295520782;0.010995574295520782
01:00:0A:00:00:00:00;1726963195;21/09/24;23:59:55;1.008;-0.005;0.162;0.06352998316287994;-0.010995574295520782;0.012217304669320583
01:00:0A:00:00:00:00;1726963196;21/09/24;23:59:56;1.007;-0.005;0.163;0.06230825558304787;-0.00855211354792118;0.010995574295520782
01:00:0A:00:00:00:00;1726963197;21/09/24;23:59:57;1.008;-0.006;0.162;0.06108652427792549;-0.010995574295520782;0.010995574295520782
01:00:0A:00:00:00:00;1726963198;21/09/24;23:59:58;1.008;-0.005;0.162;0.059864792972803116;-0.009773843921720982;0.010995574295520782
01:00:0A:00:00:00:00;1726963199;21/09/24;23:59:59;1.007;-0.006;0.162;0.05864306166768074;-0.009773843921720982;0.010995574295520782
01:00:0A:00:00:00:00;1726963200;22/09/24;00:00:00;1.008;-0.006;0.162;0.05742133408784866;-0.010995574295520782;0.009773843921720982
01:00:0A:00:00:00:00;1726963201;22/09/24;00:00:01;1.008;-0.005;0.162;0.05497787147760391;-0.010995574295520782;0.010995574295520782
01:00:0A:00:00:00:00;1726963202;22/09/24;00:00:02;1.008;-0.005;0.162;0.05497787147760391;-0.00855211354792118;0.009773843921720982
01:00:0A:00:00:00:00;1726963203;22/09/24;00:00:03;1.007;-0.005;0.162;0.05375614017248154;-0.012217304669320583;0.009773843921720982
01:00:0A:00:00:00:00;1726963204;22/09/24;00:00:04;1.008;-0.005;0.161;0.05253440886735916;-0.009773843921720982;0.00855211354792118
01:00:0A:00:00:00:00;1726963205;22/09/24;00:00:05;1.008;-0.005;0.163;0.051312677562236786;-0.010995574295520782;0.010995574295520782
01:00:0A:00:00:00:00;1726963206;22/09/24;00:00:06;1.008;-0.006;0.162;0.051312677562236786;-0.010995574295520782;0.009773843921720982
01:00:0A:00:00:00:00;1726963207;22/09/24;00:00:07;1.007;-0.005;0.162;0.05009094998240471;-0.009773843921720982;0.009773843921720982
01:00:0A:00:00:00:00;1726963208;22/09/24;00:00:08;1.007;-0.005;0.163;0.04886921867728233;-0.009773843921720982;0.00855211354792118
01:00:0A:00:00:00:00;1726963209;22/09/24;00:00:09;1.009;-0.004;0.162;0.04764748737215996;-0.012217304669320583;0.009773843921720982
01:00:0A:00:00:00:00;1726963210;22/09/24;00:00:10;1.007;-0.007;0.162;0.04764748737215996;-0.009773843921720982;0.00855211354792118
01:00:0A:00:00:00:00;1726963211;22/09/24;00:00:11;1.008;-0.006;0.162;0.04642575979232788;-0.010995574295520782;0.009773843921720982
01:00:0A:00:00:00:00;1726963212;22/09/24;00:00:12;1.007;-0.006;0.162;0.045204028487205505;-0.010995574295520782;0.00855211354792118
01:00:0A:00:00:00:00;1726963213;22/09/24;00:00:13;1.007;-0.004;0.162;0.04398229718208313;-0.010995574295520782;0.00855211354792118
01:00:0A:00:00:00:00;1726963214;22/09/24;00:00:14;1.007;-0.006;0.162;0.04398229718208313;-0.010995574295520782;0.00855211354792118
01:00:0A:00:00:00:00;1726963215;22/09/24;00:00:15;1.008;-0.005;0.162;0.04153883829712868;-0.010995574295520782;0.00855211354792118
01:00:0A:00:00:00:00;1726963216;22/09/24;00:00:16;1.008;-0.005;0.162;0.04153883829712868;-0.010995574295520782;0.0073303827084600925
01:00:0A:00:00:00:00;1726963217;22/09/24;00:00:17;1.008;-0.006;0.163;0.039095375686883926;-0.010995574295520782;0.00855211354792118
01:00:0A:00:00:00:00;1726963218;22/09/24;00:00:18;1.008;-0.005;0.162;0.039095375686883926;-0.010995574295520782;0.0073303827084600925
01:00:0A:00:00:00:00;1726963219;22/09/24;00:00:19;1.007;-0.005;0.162;0.036651913076639175;-0.010995574295520782;0.0073303827084600925
01:00:0A:00:00:00:00;1726963220;22/09/24;00:00:20;1.008;-0.005;0.162;0.0354301817715168;-0.010995574295520782;0.006108652334660292
01:00:0A:00:00:00:00;1726963221;22/09/24;00:00:21;1.009;-0.005;0.162;0.03298672288656235;-0.010995574295520782;0.0073303827084600925
01:00:0A:00:00:00:00;1726963222;22/09/24;00:00:22;1.007;-0.006;0.162;0.03176499158143997;-0.009773843921720982;0.006108652334660292
01:00:0A:00:00:00:00;1726963223;22/09/24;00:00:23;1.007;-0.005;0.162;0.030543262138962746;-0.010995574295520782;0.0073303827084600925
01:00:0A:00:00:00:00;1726963224;22/09/24;00:00:24;1.007;-0.004;0.162;0.028099799528717995;-0.010995574295520782;0.006108652334660292
01:00:0A:00:00:00:00;1726963225;22/09/24;00:00:25;1.008;-0.005;0.162;0.02687807008624077;-0.010995574295520782;0.006108652334660292
01:00:0A:00:00:00:00;1726963226;22/09/24;00:00:26;1.008;-0.006;0.162;0.025656338781118393;-0.010995574295520782;0.006108652334660292
01:00:0A:00:00:00:00;1726963227;22/09/24;00:00:27;1.008;-0.005;0.162;0.024434609338641167;-0.010995574295520782;0.006108652334660292
01:00:0A:00:00:00:00;1726963228;22/09/24;00:00:28;1.007;-0.004;0.162;0.02321287989616394;-0.010995574295520782;0.004886921960860491
01:00:0A:00:00:00:00;1726963229;22/09/24;00:00:29;1.007;-0.006;0.162;0.021991148591041565;-0.010995574295520782;0.006108652334660292
01:00:0A:00:00:00:00;1726963230;22/09/24;00:00:30;1.007;-0.004;0.162;0.02076941914856434;-0.010995574295520782;0.004886921960860491
01:00:0A:00:00:00:00;1726963231;22/09/24;00:00:31;1.008;-0.005;0.162;0.019547687843441963;-0.010995574295520782;0.006108652334660292
01:00:0A:00:00:00:00;1726963232;22/09/24;00:00:32;1.008;-0.004;0.162;0.018325956538319588;-0.010995574295520782;0.004886921960860491
01:00:0A:00:00:00:00;1726963233;22/09/24;00:00:33;1.008;-0.004;0.162;0.01710422709584236;-0.010995574295520782;0.006108652334660292
01:00:0A:00:00:00:00;1726963234;22/09/24;00:00:34;1.006;-0.005;0.162;0.015882495790719986;-0.010995574295520782;0.0036651913542300463
01:00:0A:00:00:00:00;1726963235;22/09/24;00:00:35;1.008;-0.005;0.162;0.014660765416920185;-0.010995574295520782;0.006108652334660292
01:00:0A:00:00:00:00;1726963236;22/09/24;00:00:36;1.009;-0.004;0.162;0.014660765416920185;-0.010995574295520782;0.0036651913542300463
01:00:0A:00:00:00:00;1726963237;22/09/24;00:00:37;1.008;-0.004;0.162;0.013439035043120384;-0.010995574295520782;0.004886921960860491
01:00:0A:00:00:00:00;1726963238;22/09/24;00:00:38;1.007;-0.005;0.162;0.012217304669320583;-0.010995574295520782;0.0036651913542300463
01:00:0A:00:00:00:00;1726963239;22/09/24;00:00:39;1.007;-0.005;0.162;0.010995574295520782;-0.010995574295520782;0.004886921960860491
01:00:0A:00:00:00:00;1726963240;22/09/24;00:00:40;1.008;-0.005;0.162;0.010995574295520782;-0.010995574295520782;0.0036651913542300463
01:00:0A:00:00:00:00;1726963241;22/09/24;00:00:41;1.007;-0.004;0.162;0.010995574295520782;-0.010995574295520782;0.004886921960860491
01:00:0A:00:00:00:00;1726963242;22/09/24;00:00:42;1.007;-0.004;0.162;0.009773843921720982;-0.010995574295520782;0.0036651913542300463
01:00:0A:00:00:00:00;1726963243;22/09/24;00:00:43;1.006;-0.004;0.162;0.009773843921720982;-0.010995574295520782;0.004886921960860491
01:00:0A:00:00:00:00;1726963244;22/09/24;00:00:44;1.007;-0.005;0.162;0.009773843921720982;-0.010995574295520782;0.0036651913542300463
01:00:0A:00:00:00:00;1726963245;22/09/24;00:00:45;1.008;-0.005;0.162;0.009773843921720982;-0.010995574295520782;0.004886921960860491
01:00:0A:00:00:00:00;1726963246;22/09/24;00:00:46;1.007;-0.005;0.162;0.009773843921720982;-0.010995574295520782;0.0036651913542300463
01:00:0A:00:00:00:00;1726963247;22/09/24;00:00:47;1.008;-0.004;0.162;0.009773843921720982;-0.010995574295520782;0.004886921960860491
01:00:0A:00:00:00:00;1726963248;22/09/24;00:00:48;1.009;-0.006;0.162;0.009773843921720982;-0.010995574295520782;0.0036651913542300463
01:00:0A:00:00:00:00;1726963249;22/09/24;00:00:49;1.006;-0.026;0.17;0.02076941914856434;0.0012217304902151227;0.024434609338641167
01:00:0A:00:00:00:00;1726963250;22/09/24;00:00:50;1.005;-0.031;0.175;0.045204028487205505;-0.018325956538319588;-0.004886921960860491
01:00:0A:00:00:00:00;1726963251;22/09/24;00:00:51;1.007;-0.016;0.168;0.05864306166768074;-0.014660765416920185;-0.0036651913542300463
01:00:0A:00:00:00:00;1726963252;22/09/24;00:00:52;1.007;-0.001;0.164;0.05619959905743599;-0.01710422709584236;-0.004886921960860491
01:00:0A:00:00:00:00;1726963253;22/09/24;00:00:53;1.008;0.0;0.16;0.04153883829712868;-0.0073303827084600925;0.025656338781118393
01:00:0A:00:00:00:00;1726963254;22/09/24;00:00:54;1.007;-0.014;0.163;0.04398229718208313;-0.00855211354792118;0.010995574295520782
01:00:0A:00:00:00:00;1726963255;22/09/24;00:00:55;1.008;-0.002;0.162;0.04642575979232788;-0.015882495790719986;-0.006108652334660292
01:00:0A:00:00:00:00;1726963256;22/09/24;00:00:56;1.007;-0.002;0.161;0.036651913076639175;-0.006108652334660292;0.02076941914856434
01:00:0A:00:00:00:00;1726963257;22/09/24;00:00:57;1.008;-0.012;0.165;0.039095375686883926;-0.009773843921720982;0.00855211354792118
01:00:0A:00:00:00:00;1726963258;22/09/24;00:00:58;1.009;-0.001;0.161;0.040317103266716;-0.015882495790719986;-0.0024434609804302454
01:00:0A:00:00:00:00;1726963259;22/09/24;00:00:59;1.007;-0.003;0.161;0.03298672288656235;-0.006108652334660292;0.018325956538319588
01:00:0A:00:00:00:00;1726963260;22/09/24;00:01:00;1.007;-0.01;0.165;0.0354301817715168;-0.010995574295520782;0.004886921960860491
01:00:0A:00:00:00:00;1726963261;22/09/24;00:01:01;1.008;-0.003;0.161;0.036651913076639175;-0.015882495790719986;0.0
01:00:0A:00:00:00:00;1726963262;22/09/24;00:01:02;1.007;-0.005;0.161;0.030543262138962746;-0.004886921960860491;0.015882495790719986
01:00:0A:00:00:00:00;1726963263;22/09/24;00:01:03;1.007;-0.009;0.165;0.03298672288656235;-0.010995574295520782;0.004886921960860491
01:00:0A:00:00:00:00;1726963264;22/09/24;00:01:04;1.007;-0.001;0.16;0.03298672288656235;-0.015882495790719986;0.0012217304902151227
01:00:0A:00:00:00:00;1726963265;22/09/24;00:01:05;1.007;-0.005;0.162;0.02932153083384037;-0.004886921960860491;0.013439035043120384
01:00:0A:00:00:00:00;1726963266;22/09/24;00:01:06;1.008;-0.008;0.164;0.030543262138962746;-0.012217304669320583;0.0036651913542300463
01:00:0A:00:00:00:00;1726963267;22/09/24;00:01:07;1.008;-0.004;0.16;0.02932153083384037;-0.014660765416920185;0.0036651913542300463
01:00:0A:00:00:00:00;1726963268;22/09/24;00:01:08;1.007;-0.005;0.162;0.02687807008624077;-0.004886921960860491;0.012217304669320583
01:00:0A:00:00:00:00;1726963269;22/09/24;00:01:09;1.006;-0.007;0.164;0.028099799528717995;-0.013439035043120384;0.0036651913542300463
01:00:0A:00:00:00:00;1726963270;22/09/24;00:01:10;1.007;-0.002;0.16;0.02687807008624077;-0.014660765416920185;0.0036651913542300463
01:00:0A:00:00:00:00;1726963271;22/09/24;00:01:11;1.008;-0.006;0.162;0.024434609338641167;-0.006108652334660292;0.010995574295520782
01:00:0A:00:00:00:00;1726963272;22/09/24;00:01:12;1.007;-0.007;0.165;0.025656338781118393;-0.013439035043120384;0.0036651913542300463
01:00:0A:00:00:00:00;1726963273;22/09/24;00:01:13;1.008;-0.003;0.16;0.024434609338641167;-0.013439035043120384;0.004886921960860491
01:00:0A:00:00:00:00;1726963274;22/09/24;00:01:14;1.009;-0.006;0.162;0.021991148591041565;-0.006108652334660292;0.00855211354792118
01:00:0A:00:00:00:00;1726963275;22/09/24;00:01:15;1.008;-0.006;0.164;0.02321287989616394;-0.012217304669320583;0.0036651913542300463
01:00:0A:00:00:00:00;1726963276;22/09/24;00:01:16;1.009;-0.005;0.162;0.021991148591041565;-0.0073303827084600925;0.0073303827084600925
01:00:0A:00:00:00:00;1726963277;22/09/24;00:01:17;1.008;-0.005;0.165;0.021991148591041565;-0.0073303827084600925;0.0073303827084600925
01:00:0A:00:00:00:00;1726963278;22/09/24;00:01:18;1.006;-0.008;0.166;0.02076941914856434;-0.010995574295520782;0.006108652334660292
01:00:0A:00:00:00:00;1726963279;22/09/24;00:01:19;1.008;-0.008;0.165;0.02076941914856434;-0.013439035043120384;0.006108652334660292
01:00:0A:00:00:00:00;1726963280;22/09/24;00:01:20;1.008;-0.005;0.162;0.021991148591041565;-0.012217304669320583;0.004886921960860491
01:00:0A:00:00:00:00;1726963281;22/09/24;00:01:21;1.008;-0.007;0.162;0.02076941914856434;-0.0073303827084600925;0.0073303827084600925
01:00:0A:00:00:00:00;1726963282;22/09/24;00:01:22;1.008;-0.005;0.162;0.02076941914856434;-0.014660765416920185;0.0036651913542300463
01:00:0A:00:00:00:00;1726963283;22/09/24;00:01:23;1.008;-0.005;0.161;0.019547687843441963;-0.009773843921720982;0.0073303827084600925
01:00:0A:00:00:00:00;1726963284;22/09/24;00:01:24;1.008;-0.007;0.162;0.019547687843441963;-0.009773843921720982;0.006108652334660292
01:00:0A:00:00:00:00;1726963285;22/09/24;00:01:25;1.007;-0.004;0.162;0.019547687843441963;-0.012217304669320583;0.0036651913542300463
01:00:0A:00:00:00:00;1726963286;22/09/24;00:01:26;1.008;-0.005;0.162;0.018325956538319588;-0.009773843921720982;0.006108652334660292
01:00:0A:00:00:00:00;1726963287;22/09/24;00:01:27;1.007;-0.005;0.162;0.019547687843441963;-0.009773843921720982;0.006108652334660292
01:00:0A:00:00:00:00;1726963288;22/09/24;00:01:28;1.008;-0.005;0.162;0.018325956538319588;-0.012217304669320583;0.0036651913542300463
01:00:0A:00:00:00:00;1726963289;22/09/24;00:01:29;1.007;-0.005;0.162;0.018325956538319588;-0.009773843921720982;0.006108652334660292
01:00:0A:00:00:00:00;1726963290;22/09/24;00:01:30;1.008;-0.005;0.163;0.018325956538319588;-0.010995574295520782;0.004886921960860491
01:00:0A:00:00:00:00;1726963291;22/09/24;00:01:31;1.008;-0.005;0.162;0.018325956538319588;-0.012217304669320583;0.004886921960860491
01:00:0A:00:00:00:00;1726963292;22/09/24;00:01:32;1.008;-0.005;0.162;0.01710422709584236;-0.009773843921720982;0.006108652334660292
01:00:0A:00:00:00:00;1726963293;22/09/24;00:01:33;1.008;-0.005;0.162;0.01710422709584236;-0.009773843921720982;0.004886921960860491
01:00:0A:00:00:00:00;1726963294;22/09/24;00:01:34;1.007;-0.004;0.161;0.01710422709584236;-0.012217304669320583;0.004886921960860491
01:00:0A:00:00:00:00;1726963295;22/09/24;00:01:35;1.008;-0.005;0.162;0.01710422709584236;-0.009773843921720982;0.006108652334660292
01:00:0A:00:00:00:00;1726963296;22/09/24;00:01:36;1.008;-0.006;0.162;0.01710422709584236;-0.010995574295520782;0.004886921960860491
01:00:0A:00:00:00:00;1726963297;22/09/24;00:01:37;1.008;-0.004;0.161;0.01710422709584236;-0.012217304669320583;0.004886921960860491
01:00:0A:00:00:00:00;1726963298;22/09/24;00:01:38;1.008;-0.005;0.162;0.01710422709584236;-0.009773843921720982;0.006108652334660292
01:00:0A:00:00:00:00;1726963299;22/09/24;00:01:39;1.007;-0.007;0.162;0.01710422709584236;-0.010995574295520782;0.004886921960860491
01:00:0A:00:00:00:00;1726963300;22/09/24;00:01:40;1.008;-0.005;0.162;0.015882495790719986;-0.012217304669320583;0.004886921960860491
01:00:0A:00:00:00:00;1726963301;22/09/24;00:01:41;1.007;-0.005;0.162;0.01710422709584236;-0.009773843921720982;0.004886921960860491
01:00:0A:00:00:00:00;1726963302;22/09/24;00:01:42;1.008;-0.006;0.162;0.015882495790719986;-0.010995574295520782;0.004886921960860491
01:00:0A:00:00:00:00;1726963303;22/09/24;00:01:43;1.008;-0.004;0.162;0.015882495790719986;-0.010995574295520782;0.004886921960860491
01:00:0A:00:00:00:00;1726963304;22/09/24;00:01:44;1.006;-0.005;0.162;0.015882495790719986;-0.009773843921720982;0.004886921960860491
01:00:0A:00:00:00:00;1726963305;22/09/24;00:01:45;1.007;-0.006;0.162;0.015882495790719986;-0.010995574295520782;0.004886921960860491
01:00:0A:00:00:00:00;1726963306;22/09/24;00:01:46;1.008;-0.005;0.162;0.015882495790719986;-0.012217304669320583;0.0036651913542300463
01:00:0A:00:00:00:00;1726963307;22/09/24;00:01:47;1.008;-0.006;0.162;0.015882495790719986;-0.009773843921720982;0.006108652334660292
01:00:0A:00:00:00:00;1726963308;22/09/24;00:01:48;1.008;-0.006;0.162;0.015882495790719986;-0.010995574295520782;0.004886921960860491
01:00:0A:00:00:00:00;1726963309;22/09/24;00:01:49;1.008;-0.005;0.162;0.015882495790719986;-0.010995574295520782;0.004886921960860491
01:00:0A:00:00:00:00;1726963310;22/09/24;00:01:50;1.008;-0.005;0.162;0.015882495790719986;-0.010995574295520782;0.004886921960860491
01:00:0A:00:00:00:00;1726963311;22/09/24;00:01:51;1.008;-0.005;0.162;0.015882495790719986;-0.010995574295520782;0.004886921960860491
01:00:0A:00:00:00:00;1726963312;22/09/24;00:01:52;1.007;-0.006;0.162;0.015882495790719986;-0.010995574295520782;0.004886921960860491
01:00:0A:00:00:00:00;1726963313;22/09/24;00:01:53;1.007;-0.006;0.162;0.015882495790719986;-0.009773843921720982;0.004886921960860491
01:00:0A:00:00:00:00;1726963314;22/09/24;00:01:54;1.008;-0.004;0.162;0.015882495790719986;-0.012217304669320583;0.004886921960860491
01:00:0A:00:00:00:00;1726963315;22/09/24;00:01:55;1.008;-0.005;0.162;0.014660765416920185;-0.010995574295520782;0.004886921960860491
01:00:0A:00:00:00:00;1726963316;22/09/24;00:01:56;1.008;-0.005;0.162;0.014660765416920185;-0.010995574295520782;0.004886921960860491
01:00:0A:00:00:00:00;1726963317;22/09/24;00:01:57;1.008;-0.005;0.162;0.014660765416920185;-0.010995574295520782;0.004886921960860491
01:00:0A:00:00:00:00;1726963318;22/09/24;00:01:58;1.009;-0.006;0.162;0.014660765416920185;-0.010995574295520782;0.004886921960860491
01:00:0A:00:00:00:00;1726963319;22/09/24;00:01:59;1.007;-0.005;0.162;0.015882495790719986;-0.010995574295520782;0.004886921960860491
01:00:0A:00:00:00:00;1726963320;22/09/24;00:02:00;1.007;-0.005;0.162;0.014660765416920185;-0.010995574295520782;0.004886921960860491
01:00:0A:00:00:00:00;1726963321;22/09/24;00:02:01;1.008;-0.006;0.162;0.014660765416920185;-0.010995574295520782;0.004886921960860491
01:00:0A:00:00:00:00;1726963322;22/09/24;00:02:02;1.008;-0.006;0.162;0.014660765416920185;-0.010995574295520782;0.004886921960860491
01:00:0A:00:00:00:00;1726963323;22/09/24;00:02:03;1.006;-0.005;0.162;0.014660765416920185;-0.010995574295520782;0.004886921960860491
01:00:0A:00:00:00:00;1726963324;22/09/24;00:02:04;1.008;-0.006;0.162;0.014660765416920185;-0.010995574295520782;0.004886921960860491
01:00:0A:00:00:00:00;1726963325;22/09/24;00:02:05;1.008;-0.006;0.162;0.014660765416920185;-0.010995574295520782;0.004886921960860491
01:00:0A:00:00:00:00;1726963326;22/09/24;00:02:06;1.007;-0.006;0.162;0.014660765416920185;-0.010995574295520782;0.004886921960860491
01:00:0A:00:00:00:00;1726963327;22/09/24;00:02:07;1.008;-0.006;0.162;0.014660765416920185;-0.010995574295520782;0.004886921960860491
01:00:0A:00:00:00:00;1726963328;22/09/24;00:02:08;1.007;-0.006;0.162;0.014660765416920185;-0.010995574295520782;0.004886921960860491
01:00:0A:00:00:00:00;1726963329;22/09/24;00:02:09;1.008;-0.006;0.162;0.014660765416920185;-0.010995574295520782;0.004886921960860491
01:00:0A:00:00:00:00;1726963330;22/09/24;00:02:10;1.008;-0.006;0.162;0.014660765416920185;-0.010995574295520782;0.004886921960860491
01:00:0A:00:00:00:00;1726963331;22/09/24;00:02:11;1.007;-0.005;0.162;0.014660765416920185;-0.010995574295520782;0.004886921960860491
01:00:0A:00:00:00:00;1726963332;22/09/24;00:02:12;1.008;-0.005;0.162;0.014660765416920185;-0.010995574295520782;0.004886921960860491
01:00:0A:00:00:00:00;1726963333;22/09/24;00:02:13;1.008;-0.005;0.162;0.014660765416920185;-0.010995574295520782;0.004886921960860491
01:00:0A:00:00:00:00;1726963334;22/09/24;00:02:14;1.007;-0.005;0.162;0.014660765416920185;-0.010995574295520782;0.004886921960860491
01:00:0A:00:00:00:00;1726963335;22/09/24;00:02:15;1.007;-0.005;0.162;0.014660765416920185;-0.010995574295520782;0.004886921960860491
01:00:0A:00:00:00:00;1726963336;22/09/24;00:02:16;1.007;-0.005;0.162;0.014660765416920185;-0.010995574295520782;0.004886921960860491
01:00:0A:00:00:00:00;1726963337;22/09/24;00:02:17;1.008;-0.005;0.162;0.014660765416920185;-0.010995574295520782;0.004886921960860491
01:00:0A:00:00:00:00;1726963338;22/09/24;00:02:18;1.008;-0.005;0.162;0.014660765416920185;-0.010995574295520782;0.004886921960860491
01:00:0A:00:00:00:00;1726963339;22/09/24;00:02:19;1.008;-0.006;0.162;0.014660765416920185;-0.009773843921720982;0.004886921960860491
01:00:0A:00:00:00:00;1726963340;22/09/24;00:02:20;1.008;-0.004;0.162;0.013439035043120384;-0.010995574295520782;0.004886921960860491
01:00:0A:00:00:00:00;1726963341;22/09/24;00:02:21;1.008;-0.006;0.162;0.013439035043120384;-0.010995574295520782;0.0036651913542300463
01:00:0A:00:00:00:00;1726963342;22/09/24;00:02:22;1.007;-0.004;0.162;0.013439035043120384;-0.010995574295520782;0.0036651913542300463
01:00:0A:00:00:00:00;1726963343;22/09/24;00:02:23;1.007;-0.006;0.162;0.013439035043120384;-0.010995574295520782;0.004886921960860491
01:00:0A:00:00:00:00;1726963344;22/09/24;00:02:24;1.007;-0.006;0.162;0.013439035043120384;-0.010995574295520782;0.004886921960860491
01:00:0A:00:00:00:00;1726963345;22/09/24;00:02:25;1.006;-0.005;0.162;0.013439035043120384;-0.009773843921720982;0.0036651913542300463
01:00:0A:00:00:00:00;1726963346;22/09/24;00:02:26;1.008;-0.004;0.164;0.010995574295520782;-0.009773843921720982;0.0036651913542300463
01:00:0A:00:00:00:00;1726963347;22/09/24;00:02:27;1.008;-0.004;0.166;0.0073303827084600925;-0.010995574295520782;0.004886921960860491
01:00:0A:00:00:00:00;1726963348;22/09/24;00:02:28;1.007;-0.006;0.163;0.006108652334660292;-0.013439035043120384;0.004886921960860491
01:00:0A:00:00:00:00;1726963349;22/09/24;00:02:29;1.007;-0.007;0.162;0.0073303827084600925;-0.013439035043120384;0.0012217304902151227
01:00:0A:00:00:00:00;1726963350;22/09/24;00:02:30;1.008;-0.004;0.162;0.0073303827084600925;-0.00855211354792118;0.0036651913542300463
01:00:0A:00:00:00:00;1726963351;22/09/24;00:02:31;1.008;-0.006;0.163;0.006108652334660292;-0.010995574295520782;0.0073303827084600925
01:00:0A:00:00:00:00;1726963352;22/09/24;00:02:32;1.007;-0.005;0.162;0.0073303827084600925;-0.013439035043120384;0.0012217304902151227
01:00:0A:00:00:00:00;1726963353;22/09/24;00:02:33;1.007;-0.004;0.161;0.0073303827084600925;-0.00855211354792118;0.0036651913542300463
01:00:0A:00:00:00:00;1726963354;22/09/24;00:02:34;1.007;-0.007;0.163;0.006108652334660292;-0.010995574295520782;0.006108652334660292
01:00:0A:00:00:00:00;1726963355;22/09/24;00:02:35;1.007;-0.006;0.162;0.0073303827084600925;-0.013439035043120384;0.0012217304902151227
01:00:0A:00:00:00:00;1726963356;22/09/24;00:02:36;1.008;-0.004;0.161;0.0073303827084600925;-0.00855211354792118;0.0036651913542300463
01:00:0A:00:00:00:00;1726963357;22/09/24;00:02:37;1.006;-0.006;0.162;0.006108652334660292;-0.010995574295520782;0.004886921960860491
01:00:0A:00:00:00:00;1726963358;22/09/24;00:02:38;1.007;-0.007;0.162;0.0073303827084600925;-0.012217304669320583;0.0012217304902151227
01:00:0A:00:00:00:00;1726963359;22/09/24;00:02:39;1.007;-0.005;0.162;0.0073303827084600925;-0.009773843921720982;0.0036651913542300463
01:00:0A:00:00:00:00;1726963360;22/09/24;00:02:40;1.007;-0.006;0.162;0.006108652334660292;-0.012217304669320583;0.004886921960860491
01:00:0A:00:00:00:00;1726963361;22/09/24;00:02:41;1.008;-0.005;0.162;0.0073303827084600925;-0.012217304669320583;0.0012217304902151227
01:00:0A:00:00:00:00;1726963362;22/09/24;00:02:42;1.008;-0.004;0.162;0.0073303827084600925;-0.009773843921720982;0.0036651913542300463
01:00:0A:00:00:00:00;1726963363;22/09/24;00:02:43;1.008;-0.006;0.162;0.006108652334660292;-0.010995574295520782;0.004886921960860491
01:00:0A:00:00:00:00;1726963364;22/09/24;00:02:44;1.007;-0.006;0.162;0.0073303827084600925;-0.012217304669320583;0.0024434609804302454
01:00:0A:00:00:00:00;1726963365;22/09/24;00:02:45;1.008;-0.005;0.162;0.006108652334660292;-0.009773843921720982;0.0036651913542300463
01:00:0A:00:00:00:00;1726963366;22/09/24;00:02:46;1.007;-0.005;0.163;0.006108652334660292;-0.012217304669320583;0.0036651913542300463
01:00:0A:00:00:00:00;1726963367;22/09/24;00:02:47;1.007;-0.005;0.162;0.006108652334660292;-0.010995574295520782;0.0024434609804302454
01:00:0A:00:00:00:00;1726963368;22/09/24;00:02:48;1.008;-0.004;0.162;0.006108652334660292;-0.009773843921720982;0.0036651913542300463
01:00:0A:00:00:00:00;1726963369;22/09/24;00:02:49;1.008;-0.005;0.162;0.004886921960860491;-0.012217304669320583;0.0036651913542300463
01:00:0A:00:00:00:00;1726963370;22/09/24;00:02:50;1.01;-0.006;0.162;0.006108652334660292;-0.012217304669320583;0.0024434609804302454
01:00:0A:00:00:00:00;1726963371;22/09/24;00:02:51;1.008;-0.004;0.162;0.004886921960860491;-0.009773843921720982;0.0036651913542300463
01:00:0A:00:00:00:00;1726963372;22/09/24;00:02:52;1.009;-0.006;0.162;0.004886921960860491;-0.012217304669320583;0.0036651913542300463
01:00:0A:00:00:00:00;1726963373;22/09/24;00:02:53;1.007;-0.004;0.162;0.004886921960860491;-0.010995574295520782;0.0024434609804302454
01:00:0A:00:00:00:00;1726963374;22/09/24;00:02:54;1.007;-0.004;0.162;0.004886921960860491;-0.010995574295520782;0.0036651913542300463
01:00:0A:00:00:00:00;1726963375;22/09/24;00:02:55;1.006;-0.006;0.162;0.004886921960860491;-0.012217304669320583;0.0036651913542300463
01:00:0A:00:00:00:00;1726963376;22/09/24;00:02:56;1.007;-0.005;0.162;0.004886921960860491;-0.010995574295520782;0.0024434609804302454
01:00:0A:00:00:00:00;1726963377;22/09/24;00:02:57;1.008;-0.004;0.162;0.0036651913542300463;-0.010995574295520782;0.0036651913542300463
01:00:0A:00:00:00:00;1726963378;22/09/24;00:02:58;1.007;-0.005;0.162;0.0036651913542300463;-0.012217304669320583;0.0036651913542300463
01:00:0A:00:00:00:00;1726963379;22/09/24;00:02:59;1.008;-0.005;0.162;0.0036651913542300463;-0.010995574295520782;0.0024434609804302454
01:00:0A:00:00:00:00;1726963380;22/09/24;00:03:00;1.008;-0.005;0.162;0.0036651913542300463;-0.010995574295520782;0.0036651913542300463
01:00:0A:00:00:00:00;1726963381;22/09/24;00:03:01;1.007;-0.005;0.162;0.0036651913542300463;-0.012217304669320583;0.0036651913542300463
01:00:0A:00:00:00:00;1726963382;22/09/24;00:03:02;1.008;-0.005;0.162;0.0036651913542300463;-0.010995574295520782;0.0036651913542300463
01:00:0A:00:00:00:00;1726963383;22/09/24;00:03:03;1.007;-0.006;0.162;0.0036651913542300463;-0.010995574295520782;0.0036651913542300463
01:00:0A:00:00:00:00;1726963384;22/09/24;00:03:04;1.008;-0.005;0.162;0.0024434609804302454;-0.012217304669320583;0.0036651913542300463
01:00:0A:00:00:00:00;1726963385;22/09/24;00:03:05;1.007;-0.005;0.162;0.0024434609804302454;-0.010995574295520782;0.0024434609804302454
01:00:0A:00:00:00:00;1726963386;22/09/24;00:03:06;1.008;-0.004;0.162;0.0024434609804302454;-0.010995574295520782;0.0036651913542300463
01:00:0A:00:00:00:00;1726963387;22/09/24;00:03:07;1.008;-0.005;0.162;0.0024434609804302454;-0.010995574295520782;0.0036651913542300463
01:00:0A:00:00:00:00;1726963388;22/09/24;00:03:08;1.007;-0.006;0.162;0.0024434609804302454;-0.010995574295520782;0.0024434609804302454
01:00:0A:00:00:00:00;1726963389;22/09/24;00:03:09;1.007;-0.005;0.162;0.0024434609804302454;-0.010995574295520782;0.0036651913542300463
01:00:0A:00:00:00:00;1726963390;22/09/24;00:03:10;1.008;-0.006;0.163;0.0024434609804302454;-0.012217304669320583;0.0036651913542300463
01:00:0A:00:00:00:00;1726963391;22/09/24;00:03:11;1.008;-0.006;0.162;0.0024434609804302454;-0.010995574295520782;0.0024434609804302454
01:00:0A:00:00:00:00;1726963392;22/09/24;00:03:12;1.008;-0.004;0.161;0.0012217304902151227;-0.010995574295520782;0.0036651913542300463
01:00:0A:00:00:00:00;1726963393;22/09/24;00:03:13;1.008;-0.005;0.162;0.0024434609804302454;-0.010995574295520782;0.0024434609804302454
01:00:0A:00:00:00:00;1726963394;22/09/24;00:03:14;1.008;-0.005;0.162;0.0012217304902151227;-0.010995574295520782;0.0024434609804302454
01:00:0A:00:00:00:00;1726963395;22/09/24;00:03:15;1.007;-0.005;0.162;0.0012217304902151227;-0.010995574295520782;0.0036651913542300463
01:00:0A:00:00:00:00;1726963396;22/09/24;00:03:16;1.007;-0.006;0.162;0.0012217304902151227;-0.010995574295520782;0.0024434609804302454
01:00:0A:00:00:00:00;1726963397;22/09/24;00:03:17;1.008;-0.005;0.162;0.0012217304902151227;-0.010995574295520782;0.0024434609804302454
01:00:0A:00:00:00:00;1726963398;22/09/24;00:03:18;1.008;-0.006;0.162;0.0012217304902151227;-0.010995574295520782;0.0024434609804302454
01:00:0A:00:00:00:00;1726963399;22/09/24;00:03:19;1.008;-0.005;0.162;0.0012217304902151227;-0.010995574295520782;0.0024434609804302454
01:00:0A:00:00:00:00;1726963400;22/09/24;00:03:20;1.007;-0.005;0.162;0.0012217304902151227;-0.010995574295520782;0.0024434609804302454
01:00:0A:00:00:00:00;1726963401;22/09/24;00:03:21;1.008;-0.004;0.162;0.0012217304902151227;-0.010995574295520782;0.0024434609804302454
01:00:0A:00:00:00:00;1726963402;22/09/24;00:03:22;1.007;-0.006;0.162;0.0012217304902151227;-0.010995574295520782;0.0036651913542300463
01:00:0A:00:00:00:00;1726963403;22/09/24;00:03:23;1.008;-0.005;0.162;0.0012217304902151227;-0.010995574295520782;0.0024434609804302454
01:00:0A:00:00:00:00;1726963404;22/09/24;00:03:24;1.008;-0.004;0.162;0.0012217304902151227;-0.010995574295520782;0.0024434609804302454
01:00:0A:00:00:00:00;1726963405;22/09/24;00:03:25;1.007;-0.005;0.162;0.0012217304902151227;-0.010995574295520782;0.0024434609804302454
01:00:0A:00:00:00:00;1726963406;22/09/24;00:03:26;1.007;-0.005;0.162;0.0012217304902151227;-0.010995574295520782;0.0024434609804302454
01:00:0A:00:00:00:00;1726963407;22/09/24;00:03:27;1.009;-0.005;0.162;0.0;-0.010995574295520782;0.0024434609804302454
01:00:0A:00:00:00:00;1726963408;22/09/24;00:03:28;1.008;-0.005;0.162;0.0;-0.010995574295520782;0.0024434609804302454
01:00:0A:00:00:00:00;1726963409;22/09/24;00:03:29;1.008;-0.005;0.162;0.0;-0.010995574295520782;0.0024434609804302454
01:00:0A:00:00:00:00;1726963410;22/09/24;00:03:30;1.008;-0.006;0.162;0.0;-0.010995574295520782;0.0024434609804302454
01:00:0A:00:00:00:00;1726963411;22/09/24;00:03:31;1.008;-0.005;0.162;0.0;-0.010995574295520782;0.0024434609804302454
01:00:0A:00:00:00:00;1726963412;22/09/24;00:03:32;1.008;-0.005;0.162;0.0;-0.010995574295520782;0.0024434609804302454
01:00:0A:00:00:00:00;1726963413;22/09/24;00:03:33;1.008;-0.006;0.162;0.0;-0.010995574295520782;0.0024434609804302454
01:00:0A:00:00:00:00;1726963414;22/09/24;00:03:34;1.008;-0.005;0.162;0.0;-0.010995574295520782;0.0024434609804302454
01:00:0A:00:00:00:00;1726963415;22/09/24;00:03:35;1.008;-0.005;0.161;0.0;-0.010995574295520782;0.0024434609804302454
01:00:0A:00:00:00:00;1726963416;22/09/24;00:03:36;1.008;-0.005;0.162;0.0;-0.010995574295520782;0.0024434609804302454
01:00:0A:00:00:00:00;1726963417;22/09/24;00:03:37;1.008;-0.004;0.162;0.0;-0.010995574295520782;0.0024434609804302454
01:00:0A:00:00:00:00;1726963418;22/09/24;00:03:38;1.008;-0.005;0.162;-0.0012217304902151227;-0.010995574295520782;0.0024434609804302454
01:00:0A:00:00:00:00;1726963419;22/09/24;00:03:39;1.008;-0.005;0.162;-0.0012217304902151227;-0.010995574295520782;0.0024434609804302454
01:00:0A:00:00:00:00;1726963420;22/09/24;00:03:40;1.006;-0.005;0.162;-0.0012217304902151227;-0.010995574295520782;0.0024434609804302454
01:00:0A:00:00:00:00;1726963421;22/09/24;00:03:41;1.008;-0.005;0.162;-0.0012217304902151227;-0.010995574295520782;0.0024434609804302454
01:00:0A:00:00:00:00;1726963422;22/09/24;00:03:42;1.007;-0.006;0.163;-0.0012217304902151227;-0.012217304669320583;0.0024434609804302454
01:00:0A:00:00:00:00;1726963423;22/09/24;00:03:43;1.006;-0.006;0.162;-0.0012217304902151227;-0.010995574295520782;0.0024434609804302454
01:00:0A:00:00:00:00;1726963424;22/09/24;00:03:44;1.007;-0.004;0.162;-0.0012217304902151227;-0.010995574295520782;0.0024434609804302454
01:00:0A:00:00:00:00;1726963425;22/09/24;00:03:45;1.008;-0.005;0.162;-0.0012217304902151227;-0.010995574295520782;0.0024434609804302454
01:00:0A:00:00:00:00;1726963426;22/09/24;00:03:46;1.007;-0.005;0.162;-0.0012217304902151227;-0.010995574295520782;0.0024434609804302454
01:00:0A:00:00:00:00;1726963427;22/09/24;00:03:47;1.007;-0.005;0.162;-0.0012217304902151227;-0.010995574295520782;0.0024434609804302454
01:00:0A:00:00:00:00;1726963428;22/09/24;00:03:48;1.008;-0.005;0.162;-0.0012217304902151227;-0.010995574295520782;0.0024434609804302454
01:00:0A:00:00:00:00;1726963429;22/09/24;00:03:49;1.008;-0.006;0.162;-0.0012217304902151227;-0.010995574295520782;0.0024434609804302454
01:00:0A:00:00:00:00;1726963430;22/09/24;00:03:50;1.008;-0.005;0.162;-0.0012217304902151227;-0.010995574295520782;0.0024434609804302454
01:00:0A:00:00:00:00;1726963431;22/09/24;00:03:51;1.008;-0.005;0.162;-0.0012217304902151227;-0.010995574295520782;0.0024434609804302454
01:00:0A:00:00:00:00;1726963432;22/09/24;00:03:52;1.007;-0.005;0.162;-0.0012217304902151227;-0.010995574295520782;0.0024434609804302454
01:00:0A:00:00:00:00;1726963433;22/09/24;00:03:53;1.007;-0.006;0.162;-0.0012217304902151227;-0.010995574295520782;0.0024434609804302454
01:00:0A:00:00:00:00;1726963434;22/09/24;00:03:54;1.008;-0.005;0.162;-0.0012217304902151227;-0.010995574295520782;0.0024434609804302454
01:00:0A:00:00:00:00;1726963435;22/09/24;00:03:55;1.006;-0.005;0.162;-0.0012217304902151227;-0.010995574295520782;0.0024434609804302454
01:00:0A:00:00:00:00;1726963436;22/09/24;00:03:56;1.008;-0.004;0.162;-0.0012217304902151227;-0.010995574295520782;0.0024434609804302454
01:00:0A:00:00:00:00;1726963437;22/09/24;00:03:57;1.007;-0.004;0.162;-0.0012217304902151227;-0.010995574295520782;0.0024434609804302454
01:00:0A:00:00:00:00;1726963438;22/09/24;00:03:58;1.008;-0.006;0.162;0.0;-0.010995574295520782;0.0024434609804302454
01:00:0A:00:00:00:00;1726963439;22/09/24;00:03:59;1.007;-0.005;0.162;-0.0012217304902151227;-0.010995574295520782;0.0024434609804302454
01:00:0A:00:00:00:00;1726963440;22/09/24;00:04:00;1.007;-0.005;0.162;-0.0012217304902151227;-0.010995574295520782;0.0024434609804302454
01:00:0A:00:00:00:00;1726963441;22/09/24;00:04:01;1.007;-0.005;0.162;0.0;-0.010995574295520782;0.0024434609804302454
01:00:0A:00:00:00:00;1726963442;22/09/24;00:04:02;1.008;-0.005;0.162;0.0;-0.010995574295520782;0.0024434609804302454
01:00:0A:00:00:00:00;1726963443;22/09/24;00:04:03;1.008;-0.005;0.162;-0.0012217304902151227;-0.010995574295520782;0.0024434609804302454
01:00:0A:00:00:00:00;1726963444;22/09/24;00:04:04;1.008;-0.006;0.163;-0.0012217304902151227;-0.010995574295520782;0.0024434609804302454
01:00:0A:00:00:00:00;1726963445;22/09/24;00:04:05;1.009;-0.005;0.162;0.0;-0.010995574295520782;0.0024434609804302454
01:00:0A:00:00:00:00;1726963446;22/09/24;00:04:06;1.008;-0.005;0.162;-0.0012217304902151227;-0.010995574295520782;0.0024434609804302454
01:00:0A:00:00:00:00;1726963447;22/09/24;00:04:07;1.007;-0.005;0.162;0.0;-0.010995574295520782;0.0024434609804302454
01:00:0A:00:00:00:00;1726963448;22/09/24;00:04:08;1.008;-0.006;0.162;0.0;-0.010995574295520782;0.0024434609804302454
01:00:0A:00:00:00:00;1726963449;22/09/24;00:04:09;1.007;-0.005;0.162;-0.0012217304902151227;-0.010995574295520782;0.0024434609804302454
01:00:0A:00:00:00:00;1726963450;22/09/24;00:04:10;1.008;-0.005;0.162;0.0;-0.010995574295520782;0.0024434609804302454
01:00:0A:00:00:00:00;1726963451;22/09/24;00:04:11;1.008;-0.005;0.162;-0.0012217304902151227;-0.010995574295520782;0.0024434609804302454
01:00:0A:00:00:00:00;1726963452;22/09/24;00:04:12;1.008;-0.005;0.162;0.0;-0.010995574295520782;0.0024434609804302454
01:00:0A:00:00:00:00;1726963453;22/09/24;00:04:13;1.008;-0.005;0.162;-0.0012217304902151227;-0.010995574295520782;0.0024434609804302454
01:00:0A:00:00:00:00;1726963454;22/09/24;00:04:14;1.007;-0.005;0.162;0.0;-0.010995574295520782;0.0024434609804302454
01:00:0A:00:00:00:00;1726963455;22/09/24;00:04:15;1.008;-0.005;0.162;-0.0012217304902151227;-0.010995574295520782;0.0024434609804302454
01:00:0A:00:00:00:00;1726963456;22/09/24;00:04:16;1.007;-0.004;0.162;0.0;-0.010995574295520782;0.0024434609804302454
01:00:0A:00:00:00:00;1726963457;22/09/24;00:04:17;1.007;-0.005;0.162;0.0;-0.010995574295520782;0.0024434609804302454
01:00:0A:00:00:00:00;1726963458;22/09/24;00:04:18;1.007;-0.005;0.162;-0.0012217304902151227;-0.010995574295520782;0.0024434609804302454
01:00:0A:00:00:00:00;1726963459;22/09/24;00:04:19;1.008;-0.005;0.162;-0.0012217304902151227;-0.010995574295520782;0.0024434609804302454
01:00:0A:00:00:00:00;1726963460;22/09/24;00:04:20;1.007;-0.005;0.162;-0.0012217304902151227;-0.010995574295520782;0.0024434609804302454
01:00:0A:00:00:00:00;1726963461;22/09/24;00:04:21;1.008;-0.006;0.162;-0.0012217304902151227;-0.010995574295520782;0.0024434609804302454
01:00:0A:00:00:00:00;1726963462;22/09/24;00:04:22;1.008;-0.005;0.162;0.0;-0.010995574295520782;0.0024434609804302454
01:00:0A:00:00:00:00;1726963463;22/09/24;00:04:23;1.008;-0.005;0.162;-0.0012217304902151227;-0.010995574295520782;0.0024434609804302454
01:00:0A:00:00:00:00;1726963464;22/09/24;00:04:24;1.006;-0.005;0.162;0.0;-0.010995574295520782;0.0024434609804302454
01:00:0A:00:00:00:00;1726963465;22/09/24;00:04:25;1.007;-0.005;0.162;0.0;-0.010995574295520782;0.0024434609804302454
01:00:0A:00:00:00:00;1726963466;22/09/24;00:04:26;1.009;-0.006;0.162;-0.0012217304902151227;-0.010995574295520782;0.0024434609804302454
01:00:0A:00:00:00:00;1726963467;22/09/24;00:04:27;1.008;-0.005;0.162;-0.0012217304902151227;-0.010995574295520782;0.0024434609804302454
01:00:0A:00:00:00:00;1726963468;22/09/24;00:04:28;1.008;-0.006;0.162;0.0;-0.010995574295520782;0.0024434609804302454
01:00:0A:00:00:00:00;1726963469;22/09/24;00:04:29;1.008;-0.005;0.162;-0.0012217304902151227;-0.010995574295520782;0.0024434609804302454
01:00:0A:00:00:00:00;1726963470;22/09/24;00:04:30;1.008;-0.006;0.162;0.0;-0.010995574295520782;0.0024434609804302454
01:00:0A:00:00:00:00;1726963471;22/09/24;00:04:31;1.008;-0.005;0.162;0.0;-0.010995574295520782;0.0024434609804302454
01:00:0A:00:00:00:00;1726963472;22/09/24;00:04:32;1.008;-0.005;0.162;0.0;-0.010995574295520782;0.0024434609804302454
01:00:0A:00:00:00:00;1726963473;22/09/24;00:04:33;1.007;-0.005;0.162;0.0;-0.010995574295520782;0.0024434609804302454
01:00:0A:00:00:00:00;1726963474;22/09/24;00:04:34;1.007;-0.005;0.162;0.0;-0.010995574295520782;0.0024434609804302454
01:00:0A:00:00:00:00;1726963475;22/09/24;00:04:35;1.008;-0.005;0.162;0.0;-0.010995574295520782;0.0024434609804302454
01:00:0A:00:00:00:00;1726963476;22/09/24;00:04:36;1.009;-0.005;0.162;0.0;-0.010995574295520782;0.0024434609804302454
01:00:0A:00:00:00:00;1726963477;22/09/24;00:04:37;1.009;-0.005;0.162;0.0;-0.010995574295520782;0.0024434609804302454
01:00:0A:00:00:00:00;1726963478;22/09/24;00:04:38;1.008;-0.005;0.162;0.0;-0.010995574295520782;0.0024434609804302454
01:00:0A:00:00:00:00;1726963479;22/09/24;00:04:39;1.008;-0.004;0.162;0.0;-0.010995574295520782;0.0024434609804302454
01:00:0A:00:00:00:00;1726963480;22/09/24;00:04:40;1.007;-0.006;0.162;0.0;-0.010995574295520782;0.0024434609804302454
01:00:0A:00:00:00:00;1726963481;22/09/24;00:04:41;1.007;-0.006;0.162;0.0;-0.010995574295520782;0.0024434609804302454
01:00:0A:00:00:00:00;1726963482;22/09/24;00:04:42;1.007;-0.005;0.162;0.0;-0.010995574295520782;0.0024434609804302454
01:00:0A:00:00:00:00;1726963483;22/09/24;00:04:43;1.007;-0.004;0.162;0.0;-0.010995574295520782;0.0024434609804302454
01:00:0A:00:00:00:00;1726963484;22/09/24;00:04:44;1.007;-0.005;0.162;0.0;-0.010995574295520782;0.0024434609804302454
01:00:0A:00:00:00:00;1726963485;22/09/24;00:04:45;1.009;-0.006;0.162;0.0;-0.010995574295520782;0.0024434609804302454
01:00:0A:00:00:00:00;1726963486;22/09/24;00:04:46;1.006;-0.006;0.162;0.0;-0.010995574295520782;0.0024434609804302454
01:00:0A:00:00:00:00;1726963487;22/09/24;00:04:47;1.008;-0.005;0.162;0.0;-0.010995574295520782;0.0024434609804302454
01:00:0A:00:00:00:00;1726963488;22/09/24;00:04:48;1.007;-0.005;0.162;0.0;-0.010995574295520782;0.0024434609804302454
01:00:0A:00:00:00:00;1726963489;22/09/24;00:04:49;1.008;-0.005;0.162;0.0;-0.010995574295520782;0.0024434609804302454
01:00:0A:00:00:00:00;1726963490;22/09/24;00:04:50;1.007;-0.005;0.162;0.0;-0.010995574295520782;0.0024434609804302454
01:00:0A:00:00:00:00;1726963491;22/09/24;00:04:51;1.008;-0.005;0.162;0.0;-0.010995574295520782;0.0024434609804302454
01:00:0A:00:00:00:00;1726963492;22/09/24;00:04:52;1.007;-0.006;0.162;0.0;-0.010995574295520782;0.0024434609804302454
01:00:0A:00:00:00:00;1726963493;22/09/24;00:04:53;1.009;-0.005;0.162;0.0;-0.010995574295520782;0.0024434609804302454
01:00:0A:00:00:00:00;1726963494;22/09/24;00:04:54;1.007;-0.006;0.162;0.0012217304902151227;-0.010995574295520782;0.0024434609804302454
01:00:0A:00:00:00:00;1726963495;22/09/24;00:04:55;1.008;-0.006;0.162;0.0012217304902151227;-0.010995574295520782;0.0024434609804302454
01:00:0A:00:00:00:00;1726963496;22/09/24;00:04:56;1.008;-0.005;0.162;0.0012217304902151227;-0.010995574295520782;0.0024434609804302454
01:00:0A:00:00:00:00;1726963497;22/09/24;00:04:57;1.007;-0.005;0.162;0.0;-0.010995574295520782;0.0024434609804302454
01:00:0A:00:00:00:00;1726963498;22/09/24;00:04:58;1.007;-0.005;0.162;0.0;-0.010995574295520782;0.0024434609804302454
01:00:0A:00:00:00:00;1726963499;22/09/24;00:04:59;1.009;-0.005;0.162;0.0012217304902151227;-0.010995574295520782;0.0024434609804302454
01:00:0A:00:00:00:00;1726963500;22/09/24;00:05:00;1.007;-0.006;0.162;0.0;-0.010995574295520782;0.0024434609804302454
01:00:0A:00:00:00:00;1726963501;22/09/24;00:05:01;1.008;-0.005;0.162;0.0;-0.010995574295520782;0.0024434609804302454
01:00:0A:00:00:00:00;1726963502;22/09/24;00:05:02;1.008;-0.006;0.162;0.0012217304902151227;-0.010995574295520782;0.0024434609804302454
01:00:0A:00:00:00:00;1726963503;22/09/24;00:05:03;1.007;-0.006;0.161;0.0012217304902151227;-0.010995574295520782;0.0024434609804302454
01:00:0A:00:00:00:00;1726963504;22/09/24;00:05:04;1.009;-0.004;0.162;0.0;-0.010995574295520782;0.0024434609804302454
01:00:0A:00:00:00:00;1726963505;22/09/24;00:05:05;1.007;-0.005;0.162;0.0;-0.010995574295520782;0.0024434609804302454
01:00:0A:00:00:00:00;1726963506;22/09/24;00:05:06;1.007;-0.005;0.162;0.0;-0.010995574295520782;0.0024434609804302454
01:00:0A:00:00:00:00;1726963507;22/09/24;00:05:07;1.009;-0.004;0.162;0.0;-0.010995574295520782;0.0024434609804302454
01:00:0A:00:00:00:00;1726963508;22/09/24;00:05:08;1.008;-0.006;0.162;0.0;-0.010995574295520782;0.0024434609804302454
01:00:0A:00:00:00:00;1726963509;22/09/24;00:05:09;1.007;-0.005;0.162;0.0;-0.010995574295520782;0.0024434609804302454
01:00:0A:00:00:00:00;1726963510;22/09/24;00:05:10;1.007;-0.005;0.162;0.0;-0.010995574295520782;0.0024434609804302454
01:00:0A:00:00:00:00;1726963511;22/09/24;00:05:11;1.008;-0.005;0.162;0.0;-0.010995574295520782;0.0024434609804302454
01:00:0A:00:00:00:00;1726963512;22/09/24;00:05:12;1.008;-0.005;0.162;0.0;-0.010995574295520782;0.0024434609804302454
01:00:0A:00:00:00:00;1726963513;22/09/24;00:05:13;1.008;-0.005;0.162;0.0;-0.010995574295520782;0.0024434609804302454
01:00:0A:00:00:00:00;1726963514;22/09/24;00:05:14;1.007;-0.006;0.162;0.0;-0.010995574295520782;0.0024434609804302454
01:00:0A:00:00:00:00;1726963515;22/09/24;00:05:15;1.008;-0.005;0.162;0.0;-0.010995574295520782;0.0024434609804302454
01:00:0A:00:00:00:00;1726963516;22/09/24;00:05:16;1.008;-0.005;0.162;0.0;-0.010995574295520782;0.0024434609804302454
01:00:0A:00:00:00:00;1726963517;22/09/24;00:05:17;1.008;-0.005;0.162;0.0;-0.010995574295520782;0.0024434609804302454
01:00:0A:00:00:00:00;1726963518;22/09/24;00:05:18;1.007;-0.005;0.162;0.0;-0.010995574295520782;0.0024434609804302454
01:00:0A:00:00:00:00;1726963519;22/09/24;00:05:19;1.006;-0.007;0.162;0.0;-0.010995574295520782;0.0024434609804302454
01:00:0A:00:00:00:00;1726963520;22/09/24;00:05:20;1.006;-0.006;0.162;0.0;-0.010995574295520782;0.0024434609804302454
01:00:0A:00:00:00:00;1726963521;22/09/24;00:05:21;1.008;-0.005;0.162;-0.0012217304902151227;-0.010995574295520782;0.0024434609804302454
01:00:0A:00:00:00:00;1726963522;22/09/24;00:05:22;1.006;-0.005;0.162;-0.0012217304902151227;-0.010995574295520782;0.0024434609804302454
01:00:0A:00:00:00:00;1726963523;22/09/24;00:05:23;1.007;-0.004;0.162;-0.0012217304902151227;-0.010995574295520782;0.0024434609804302454
01:00:0A:00:00:00:00;1726963524;22/09/24;00:05:24;1.008;-0.005;0.162;-0.0012217304902151227;-0.010995574295520782;0.0024434609804302454
01:00:0A:00:00:00:00;1726963525;22/09/24;00:05:25;1.008;-0.005;0.162;-0.0012217304902151227;-0.010995574295520782;0.0024434609804302454
01:00:0A:00:00:00:00;1726963526;22/09/24;00:05:26;1.007;-0.005;0.162;-0.0012217304902151227;-0.010995574295520782;0.0024434609804302454
01:00:0A:00:00:00:00;1726963527;22/09/24;00:05:27;1.008;-0.005;0.162;-0.0012217304902151227;-0.010995574295520782;0.0024434609804302454
01:00:0A:00:00:00:00;1726963528;22/09/24;00:05:28;1.007;-0.005;0.162;-0.0012217304902151227;-0.010995574295520782;0.0024434609804302454
01:00:0A:00:00:00:00;1726963529;22/09/24;00:05:29;1.009;-0.006;0.162;-0.0012217304902151227;-0.010995574295520782;0.0024434609804302454
01:00:0A:00:00:00:00;1726963530;22/09/24;00:05:30;1.008;-0.006;0.162;-0.0012217304902151227;-0.010995574295520782;0.0024434609804302454
01:00:0A:00:00:00:00;1726963531;22/09/24;00:05:31;1.008;-0.005;0.162;-0.0012217304902151227;-0.010995574295520782;0.0024434609804302454
01:00:0A:00:00:00:00;1726963532;22/09/24;00:05:32;1.008;-0.005;0.162;-0.0012217304902151227;-0.010995574295520782;0.0024434609804302454
01:00:0A:00:00:00:00;1726963533;22/09/24;00:05:33;1.008;-0.005;0.162;-0.0024434609804302454;-0.010995574295520782;0.0024434609804302454
01:00:0A:00:00:00:00;1726963534;22/09/24;00:05:34;1.007;-0.006;0.162;-0.0024434609804302454;-0.010995574295520782;0.0024434609804302454
01:00:0A:00:00:00:00;1726963535;22/09/24;00:05:35;1.008;-0.009;0.165;-0.0012217304902151227;-0.006108652334660292;0.0073303827084600925
01:00:0A:00:00:00:00;1726963536;22/09/24;00:05:36;1.007;-0.011;0.168;0.0024434609804302454;-0.012217304669320583;0.0036651913542300463
01:00:0A:00:00:00:00;1726963537;22/09/24;00:05:37;1.008;-0.011;0.165;0.004886921960860491;-0.013439035043120384;0.0
01:00:0A:00:00:00:00;1726963538;22/09/24;00:05:38;1.006;-0.006;0.162;0.006108652334660292;-0.013439035043120384;0.0012217304902151227
01:00:0A:00:00:00:00;1726963539;22/09/24;00:05:39;1.009;-0.005;0.161;0.004886921960860491;-0.010995574295520782;0.0036651913542300463
01:00:0A:00:00:00:00;1726963540;22/09/24;00:05:40;1.007;-0.007;0.163;0.0036651913542300463;-0.009773843921720982;0.004886921960860491
01:00:0A:00:00:00:00;1726963541;22/09/24;00:05:41;1.008;-0.005;0.162;0.0036651913542300463;-0.013439035043120384;0.0012217304902151227
01:00:0A:00:00:00:00;1726963542;22/09/24;00:05:42;1.008;-0.004;0.161;0.0036651913542300463;-0.009773843921720982;0.0036651913542300463
01:00:0A:00:00:00:00;1726963543;22/09/24;00:05:43;1.008;-0.007;0.163;0.0024434609804302454;-0.009773843921720982;0.0036651913542300463
01:00:0A:00:00:00:00;1726963544;22/09/24;00:05:44;1.007;-0.004;0.162;0.0036651913542300463;-0.013439035043120384;0.0012217304902151227
01:00:0A:00:00:00:00;1726963545;22/09/24;00:05:45;1.009;-0.005;0.162;0.0024434609804302454;-0.009773843921720982;0.0036651913542300463
01:00:0A:00:00:00:00;1726963546;22/09/24;00:05:46;1.005;-0.006;0.162;0.0024434609804302454;-0.009773843921720982;0.0036651913542300463
01:00:0A:00:00:00:00;1726963547;22/09/24;00:05:47;1.008;-0.005;0.162;0.0024434609804302454;-0.013439035043120384;0.0012217304902151227
01:00:0A:00:00:00:00;1726963548;22/09/24;00:05:48;1.008;-0.004;0.162;0.0012217304902151227;-0.009773843921720982;0.0036651913542300463
01:00:0A:00:00:00:00;1726963549;22/09/24;00:05:49;1.008;-0.007;0.162;0.0012217304902151227;-0.010995574295520782;0.0036651913542300463
01:00:0A:00:00:00:00;1726963550;22/09/24;00:05:50;1.008;-0.004;0.162;0.0012217304902151227;-0.012217304669320583;0.0012217304902151227
01:00:0A:00:00:00:00;1726963551;22/09/24;00:05:51;1.009;-0.005;0.161;0.0012217304902151227;-0.009773843921720982;0.0036651913542300463
01:00:0A:00:00:00:00;1726963552;22/09/24;00:05:52;1.008;-0.006;0.162;0.0012217304902151227;-0.010995574295520782;0.0024434609804302454
01:00:0A:00:00:00:00;1726963553;22/09/24;00:05:53;1.008;-0.005;0.161;0.0012217304902151227;-0.012217304669320583;0.0012217304902151227
01:00:0A:00:00:00:00;1726963554;22/09/24;00:05:54;1.008;-0.005;0.161;0.0012217304902151227;-0.009773843921720982;0.0036651913542300463
01:00:0A:00:00:00:00;1726963555;22/09/24;00:05:55;1.007;-0.006;0.163;0.0012217304902151227;-0.010995574295520782;0.0024434609804302454
01:00:0A:00:00:00:00;1726963556;22/09/24;00:05:56;1.007;-0.005;0.162;0.0012217304902151227;-0.012217304669320583;0.0024434609804302454
01:00:0A:00:00:00:00;1726963557;22/09/24;00:05:57;1.008;-0.005;0.161;0.0;-0.009773843921720982;0.0036651913542300463
01:00:0A:00:00:00:00;1726963558;22/09/24;00:05:58;1.007;-0.006;0.162;0.0;-0.010995574295520782;0.0024434609804302454
01:00:0A:00:00:00:00;1726963559;22/09/24;00:05:59;1.008;-0.005;0.161;0.0;-0.012217304669320583;0.0024434609804302454
01:00:0A:00:00:00:00;1726963560;22/09/24;00:06:00;1.008;-0.006;0.162;0.0;-0.009773843921720982;0.0036651913542300463
01:00:0A:00:00:00:00;1726963561;22/09/24;00:06:01;1.008;-0.007;0.162;0.0;-0.010995574295520782;0.004886921960860491
01:00:0A:00:00:00:00;1726963562;22/09/24;00:06:02;1.008;-0.008;0.162;0.0036651913542300463;-0.012217304669320583;0.0012217304902151227
01:00:0A:00:00:00:00;1726963563;22/09/24;00:06:03;1.008;-0.008;0.162;0.004886921960860491;-0.010995574295520782;0.0036651913542300463
01:00:0A:00:00:00:00;1726963564;22/09/24;00:06:04;1.008;-0.008;0.162;0.0073303827084600925;-0.012217304669320583;0.0024434609804302454
01:00:0A:00:00:00:00;1726963565;22/09/24;00:06:05;1.008;-0.005;0.161;0.0073303827084600925;-0.009773843921720982;0.0024434609804302454
01:00:0A:00:00:00:00;1726963566;22/09/24;00:06:06;1.007;-0.005;0.162;0.006108652334660292;-0.009773843921720982;0.0036651913542300463
01:00:0A:00:00:00:00;1726963567;22/09/24;00:06:07;1.008;-0.005;0.162;0.006108652334660292;-0.012217304669320583;0.0036651913542300463
01:00:0A:00:00:00:00;1726963568;22/09/24;00:06:08;1.007;-0.006;0.162;0.006108652334660292;-0.009773843921720982;0.0024434609804302454
01:00:0A:00:00:00:00;1726963569;22/09/24;00:06:09;1.008;-0.005;0.162;0.006108652334660292;-0.009773843921720982;0.0036651913542300463
01:00:0A:00:00:00:00;1726963570;22/09/24;00:06:10;1.007;-0.007;0.162;0.004886921960860491;-0.012217304669320583;0.0036651913542300463
01:00:0A:00:00:00:00;1726963571;22/09/24;00:06:11;1.007;-0.005;0.162;0.004886921960860491;-0.009773843921720982;0.0036651913542300463
01:00:0A:00:00:00:00;1726963572;22/09/24;00:06:12;1.008;-0.005;0.162;0.004886921960860491;-0.010995574295520782;0.0036651913542300463
01:00:0A:00:00:00:00;1726963573;22/09/24;00:06:13;1.008;-0.005;0.161;0.004886921960860491;-0.012217304669320583;0.0036651913542300463
01:00:0A:00:00:00:00;1726963574;22/09/24;00:06:14;1.008;-0.006;0.162;0.004886921960860491;-0.009773843921720982;0.0036651913542300463
01:00:0A:00:00:00:00;1726963575;22/09/24;00:06:15;1.008;-0.006;0.162;0.004886921960860491;-0.010995574295520782;0.0036651913542300463
01:00:0A:00:00:00:00;1726963576;22/09/24;00:06:16;1.007;-0.007;0.162;0.004886921960860491;-0.010995574295520782;0.0036651913542300463
01:00:0A:00:00:00:00;1726963577;22/09/24;00:06:17;1.006;-0.007;0.162;0.006108652334660292;-0.010995574295520782;0.0036651913542300463
01:00:0A:00:00:00:00;1726963578;22/09/24;00:06:18;1.007;-0.005;0.163;0.006108652334660292;-0.010995574295520782;0.0024434609804302454
01:00:0A:00:00:00:00;1726963579;22/09/24;00:06:19;1.007;-0.004;0.162;0.006108652334660292;-0.012217304669320583;0.0036651913542300463
01:00:0A:00:00:00:00;1726963580;22/09/24;00:06:20;1.009;-0.005;0.162;0.004886921960860491;-0.010995574295520782;0.0036651913542300463
01:00:0A:00:00:00:00;1726963581;22/09/24;00:06:21;1.007;-0.005;0.162;0.004886921960860491;-0.010995574295520782;0.0036651913542300463
01:00:0A:00:00:00:00;1726963582;22/09/24;00:06:22;1.008;-0.005;0.162;0.004886921960860491;-0.012217304669320583;0.0024434609804302454
01:00:0A:00:00:00:00;1726963583;22/09/24;00:06:23;1.007;-0.006;0.162;0.004886921960860491;-0.010995574295520782;0.0036651913542300463
01:00:0A:00:00:00:00;1726963584;22/09/24;00:06:24;1.006;-0.006;0.162;0.004886921960860491;-0.010995574295520782;0.0036651913542300463
01:00:0A:00:00:00:00;1726963585;22/09/24;00:06:25;1.009;-0.004;0.162;0.004886921960860491;-0.010995574295520782;0.0036651913542300463
01:00:0A:00:00:00:00;1726963586;22/09/24;00:06:26;1.008;-0.007;0.162;0.004886921960860491;-0.010995574295520782;0.0036651913542300463
01:00:0A:00:00:00:00;1726963587;22/09/24;00:06:27;1.008;-0.007;0.162;0.004886921960860491;-0.010995574295520782;0.0036651913542300463
01:00:0A:00:00:00:00;1726963588;22/09/24;00:06:28;1.007;-0.005;0.162;0.006108652334660292;-0.010995574295520782;0.0036651913542300463
01:00:0A:00:00:00:00;1726963589;22/09/24;00:06:29;1.008;-0.005;0.162;0.006108652334660292;-0.012217304669320583;0.0036651913542300463
01:00:0A:00:00:00:00;1726963590;22/09/24;00:06:30;1.008;-0.005;0.162;0.006108652334660292;-0.010995574295520782;0.0036651913542300463
01:00:0A:00:00:00:00;1726963591;22/09/24;00:06:31;1.007;-0.005;0.162;0.004886921960860491;-0.010995574295520782;0.0036651913542300463
01:00:0A:00:00:00:00;1726963592;22/09/24;00:06:32;1.009;-0.006;0.162;0.006108652334660292;-0.010995574295520782;0.0024434609804302454
01:00:0A:00:00:00:00;1726963593;22/09/24;00:06:33;1.008;-0.006;0.163;0.004886921960860491;-0.010995574295520782;0.0036651913542300463
01:00:0A:00:00:00:00;1726963594;22/09/24;00:06:34;1.007;-0.005;0.162;0.004886921960860491;-0.010995574295520782;0.0024434609804302454
01:00:0A:00:00:00:00;1726963595;22/09/24;00:06:35;1.008;-0.005;0.162;0.004886921960860491;-0.010995574295520782;0.0036651913542300463
01:00:0A:00:00:00:00;1726963596;22/09/24;00:06:36;1.008;-0.006;0.162;0.004886921960860491;-0.010995574295520782;0.0036651913542300463
01:00:0A:00:00:00:00;1726963597;22/09/24;00:06:37;1.009;-0.005;0.162;0.006108652334660292;-0.010995574295520782;0.0012217304902151227
01:00:0A:00:00:00:00;1726963598;22/09/24;00:06:38;1.004;-0.023;0.197;0.00855211354792118;0.018325956538319588;0.02932153083384037
01:00:0A:00:00:00:00;1726963599;22/09/24;00:06:39;0.997;-0.002;0.174;0.03176499158143997;-0.014660765416920185;-0.06841690838336945
01:00:0A:00:00:00:00;1726963600;22/09/24;00:06:40;0.997;-0.057;0.132;0.03787364438176155;-0.0024434609804302454;0.021991148591041565
01:00:0A:00:00:00:00;1726963601;22/09/24;00:06:41;0.976;-0.025;0.183;0.03420845419168472;-0.11239919811487198;0.04153883829712868
01:00:0A:00:00:00:00;1726963602;22/09/24;00:06:42;0.99;-0.019;0.124;0.06963863223791122;-0.03420845419168472;-0.07696902006864548
01:00:0A:00:00:00:00;1726963603;22/09/24;00:06:43;1.062;-0.108;0.134;0.06841690838336945;-0.06230825558304787;-0.0073303827084600925
01:00:0A:00:00:00:00;1726963604;22/09/24;00:06:44;1.006;0.097;0.318;-0.03787364438176155;0.16004669666290283;0.04886921867728233
01:00:0A:00:00:00:00;1726963605;22/09/24;00:06:45;0.941;-0.036;0.215;-0.2321287840604782;0.06963863223791122;0.2993239760398865
01:00:0A:00:00:00:00;1726963606;22/09/24;00:06:46;0.953;-0.108;0.129;-0.750142514705658;0.20647244155406952;0.2919935882091522
01:00:0A:00:00:00:00;1726963607;22/09/24;00:06:47;1.01;-0.121;0.031;-2.3298401832580566;0.7880162000656128;-0.14049901068210602
01:00:0A:00:00:00:00;1726963608;22/09/24;00:06:48;0.675;-0.265;0.232;-5.145928859710693;3.3450980186462402;-1.1691960096359253
01:00:0A:00:00:00:00;1726963609;22/09/24;00:06:49;0.89;0.02;-0.452;-3.023782968521118;0.4398229718208313;0.15882496535778046
01:00:0A:00:00:00:00;1726963610;22/09/24;00:06:50;0.914;-0.567;0.221;-2.8344147205352783;-0.5143485069274902;1.0836749076843262
01:00:0A:00:00:00:00;1726963611;22/09/24;00:06:51;1.023;0.199;-0.089;-1.8949038982391357;0.36651912331581116;-0.1661553531885147
01:00:0A:00:00:00:00;1726963612;22/09/24;00:06:52;0.964;-0.412;0.049;-1.4428637027740479;-0.36529743671417236;-0.03298672288656235
01:00:0A:00:00:00:00;1726963613;22/09/24;00:06:53;0.716;-0.48;-0.266;-1.4184291362762451;1.6725490093231201;-0.1319468915462494
01:00:0A:00:00:00:00;1726963614;22/09/24;00:06:54;0.913;0.259;0.229;-0.9773843884468079;0.6377432942390442;-1.9938641786575317
01:00:0A:00:00:00:00;1726963615;22/09/24;00:06:55;0.799;-0.569;0.475;-1.624901533126831;-0.6695082783699036;-0.7819074988365173
01:00:0A:00:00:00:00;1726963616;22/09/24;00:06:56;0.961;0.381;0.071;-1.1679743528366089;0.15027284622192383;-0.23945917189121246
01:00:0A:00:00:00:00;1726963617;22/09/24;00:06:57;1.024;-0.258;0.215;-0.8967502117156982;-0.3885102868080139;-0.27000245451927185
01:00:0A:00:00:00:00;1726963618;22/09/24;00:06:58;0.6;-0.377;0.747;-0.9358454942703247;0.26633724570274353;-0.8148941993713379
01:00:0A:00:00:00:00;1726963619;22/09/24;00:06:59;0.938;-0.22;0.055;0.06108652427792549;-1.1301007270812988;-1.2290607690811157
01:00:0A:00:00:00:00;1726963620;22/09/24;00:07:00;0.941;0.04;0.263;0.036651913076639175;0.9224064946174622;0.7855727076530457
01:00:0A:00:00:00:00;1726963621;22/09/24;00:07:01;0.888;-0.302;0.414;0.3481931686401367;-0.5277875661849976;-0.10262535512447357
01:00:0A:00:00:00:00;1726963622;22/09/24;00:07:02;0.655;-0.686;0.759;-1.1032226085662842;0.587652325630188;0.051312677562236786
01:00:0A:00:00:00:00;1726963623;22/09/24;00:07:03;0.596;0.079;0.951;-0.3604104816913605;0.5693264007568359;-0.6902776956558228
01:00:0A:00:00:00:00;1726963624;22/09/24;00:07:04;0.646;0.209;0.754;-0.34086278080940247;-0.8258897662162781;-0.9236282110214233
01:00:0A:00:00:00:00;1726963625;22/09/24;00:07:05;0.777;0.144;0.617;-1.017701506614685;-0.9321803450584412;-0.19547687470912933
01:00:0A:00:00:00:00;1726963626;22/09/24;00:07:06;0.981;0.291;-0.192;-0.8820894360542297;-0.2223549485206604;-0.43737950921058655
01:00:0A:00:00:00:00;1726963627;22/09/24;00:07:07;0.973;-0.033;0.447;-1.226617455482483;0.15271630883216858;0.48258352279663086
01:00:0A:00:00:00:00;1726963628;22/09/24;00:07:08;0.936;-0.397;-0.078;-0.5827654600143433;-0.2834414541721344;0.04764748737215996
01:00:0A:00:00:00:00;1726963629;22/09/24;00:07:09;0.94;0.084;0.327;-0.1258382350206375;0.7464773058891296;-0.48747044801712036
01:00:0A:00:00:00:00;1726963630;22/09/24;00:07:10;0.949;0.034;0.264;-0.3946189284324646;-0.645073652267456;-0.0354301817715168
01:00:0A:00:00:00:00;1726963631;22/09/24;00:07:11;0.978;0.127;-0.027;-0.4190535545349121;0.17470745742321014;-0.04764748737215996
01:00:0A:00:00:00:00;1726963632;22/09/24;00:07:12;1.033;0.038;0.225;-0.45814892649650574;0.059864792972803116;0.1673770695924759
01:00:0A:00:00:00:00;1726963633;22/09/24;00:07:13;0.997;-0.158;0.096;-0.38606682419776917;-0.31642818450927734;0.2871066629886627
01:00:0A:00:00:00:00;1726963634;22/09/24;00:07:14;0.943;-0.147;0.074;0.039095375686883926;0.2382374405860901;-0.5485569834709167
01:00:0A:00:00:00:00;1726963635;22/09/24;00:07:15;0.981;-0.284;0.1;0.08796459436416626;0.2773328125476837;-0.2981022298336029
01:00:0A:00:00:00:00;1726963636;22/09/24;00:07:16;0.874;-0.556;0.251;0.16493360698223114;-0.6145303845405579;-0.48869219422340393
01:00:0A:00:00:00:00;1726963637;22/09/24;00:07:17;0.83;0.15;-0.447;0.3701843321323395;-0.5534439086914062;-0.21135938167572021
01:00:0A:00:00:00:00;1726963638;22/09/24;00:07:18;0.9;-0.333;-0.186;0.6707300543785095;0.7061601877212524;0.27488934993743896
01:00:0A:00:00:00:00;1726963639;22/09/24;00:07:19;0.953;0.07;0.331;0.6633996367454529;-0.6389650106430054;-0.4483751058578491
01:00:0A:00:00:00:00;1726963640;22/09/24;00:07:20;0.681;-0.017;-0.84;-1.841147780418396;-0.12095131725072861;-0.19058994948863983
01:00:0A:00:00:00:00;1726963641;22/09/24;00:07:21;0.737;0.598;-0.111;-1.1850786209106445;0.4764748811721802;0.48869219422340393
01:00:0A:00:00:00:00;1726963642;22/09/24;00:07:22;0.988;-0.106;0.28;-1.1093312501907349;-0.7159340977668762;0.6536257863044739
01:00:0A:00:00:00:00;1726963643;22/09/24;00:07:23;0.948;0.114;-0.236;-0.645073652267456;0.36529743671417236;-0.42149701714515686
01:00:0A:00:00:00:00;1726963644;22/09/24;00:07:24;0.916;-0.096;0.366;-0.607200026512146;0.10751228034496307;0.33719760179519653
01:00:0A:00:00:00:00;1726963645;22/09/24;00:07:25;0.971;0.014;0.107;-0.2834414541721344;-0.3946189284324646;-0.8136724829673767
01:00:0A:00:00:00:00;1726963646;22/09/24;00:07:26;0.937;0.209;0.219;-0.588874101638794;0.30054569244384766;0.6084217429161072
01:00:0A:00:00:00:00;1726963647;22/09/24;00:07:27;0.984;-0.185;0.075;-0.37629297375679016;-0.3066543638706207;-0.6585127115249634
01:00:0A:00:00:00:00;1726963648;22/09/24;00:07:28;0.521;0.754;0.41;-0.8869763016700745;1.6200146675109863;0.010995574295520782
01:00:0A:00:00:00:00;1726963649;22/09/24;00:07:29;1.039;-0.336;0.011;-0.24434609711170197;-0.5852089524269104;-1.1826351881027222
01:00:0A:00:00:00:00;1726963650;22/09/24;00:07:30;0.916;-0.53;-0.001;-2.7513368129730225;-1.0604619979858398;1.3903292417526245
01:00:0A:00:00:00:00;1726963651;22/09/24;00:07:31;1.013;0.214;-0.49;-1.1533136367797852;-0.09529497474431992;-0.20647244155406952
01:00:0A:00:00:00:00;1726963652;22/09/24;00:07:32;0.846;0.524;-0.328;-0.9651670455932617;0.616973876953125;-0.09285151958465576
01:00:0A:00:00:00:00;1726963653;22/09/24;00:07:33;0.732;-0.309;0.597;-1.0543533563613892;-0.862541675567627;0.588874101638794
01:00:0A:00:00:00:00;1726963654;22/09/24;00:07:34;0.964;-0.216;0.068;-0.33597588539123535;0.4031710624694824;-1.264491081237793
01:00:0A:00:00:00:00;1726963655;22/09/24;00:07:35;0.878;0.327;0.389;-0.6133087277412415;-0.22357667982578278;-0.02076941914856434
01:00:0A:00:00:00:00;1726963656;22/09/24;00:07:36;1.042;0.068;-0.081;-0.6352998614311218;-0.6597344279289246;-0.23457224667072296
01:00:0A:00:00:00:00;1726963657;22/09/24;00:07:37;0.946;0.007;0.34;-0.6255260109901428;0.9248499870300293;0.2871066629886627
01:00:0A:00:00:00:00;1726963658;22/09/24;00:07:38;0.573;-0.607;0.723;-0.26633724570274353;-1.2571606636047363;0.10506881773471832
01:00:0A:00:00:00:00;1726963659;22/09/24;00:07:39;1.031;0.105;-0.246;0.40194931626319885;0.0036651913542300463;-0.4080579876899719
01:00:0A:00:00:00:00;1726963660;22/09/24;00:07:40;0.893;0.268;-0.627;-1.2180652618408203;-0.14049901068210602;0.6035348773002625
01:00:0A:00:00:00:00;1726963661;22/09/24;00:07:41;0.687;0.488;-0.599;-0.7367035150527954;0.5045746564865112;0.10873401165008545
01:00:0A:00:00:00:00;1726963662;22/09/24;00:07:42;1.021;0.14;0.144;-0.6487389206886292;-0.35185837745666504;0.6633996367454529
01:00:0A:00:00:00:00;1726963663;22/09/24;00:07:43;0.894;0.099;-0.46;-0.19303341209888458;-0.62796950340271;-0.5937609672546387
01:00:0A:00:00:00:00;1726963664;22/09/24;00:07:44;0.989;0.302;-0.228;-0.009773843921720982;0.6218608021736145;0.7819074988365173
01:00:0A:00:00:00:00;1726963665;22/09/24;00:07:45;0.777;-0.578;0.289;0.40072759985923767;-0.2480112910270691;-0.1014036238193512
01:00:0A:00:00:00:00;1726963666;22/09/24;00:07:46;1.01;0.194;0.162;0.34574973583221436;-0.6328563690185547;-0.7269296050071716
01:00:0A:00:00:00:00;1726963667;22/09/24;00:07:47;1.059;-0.161;-0.09;0.17348572611808777;-0.0708603635430336;0.5864306092262268
01:00:0A:00:00:00:00;1726963668;22/09/24;00:07:48;0.845;-0.404;0.448;0.18570303916931152;0.7000515460968018;0.4544837474822998
01:00:0A:00:00:00:00;1726963669;22/09/24;00:07:49;0.784;-0.061;0.63;0.08674286305904388;0.4544837474822998;-0.4337143301963806
01:00:0A:00:00:00:00;1726963670;22/09/24;00:07:50;0.722;0.075;0.716;0.03298672288656235;0.00855211354792118;-0.2321287840604782
01:00:0A:00:00:00:00;1726963671;22/09/24;00:07:51;0.776;-0.045;0.667;-1.2596040964126587;-0.07941248267889023;-0.3286454975605011
01:00:0A:00:00:00:00;1726963672;22/09/24;00:07:52;0.892;-0.368;0.313;-2.2846360206604004;0.02932153083384037;-0.39706242084503174
01:00:0A:00:00:00:00;1726963673;22/09/24;00:07:53;0.976;-0.197;-0.079;-2.509434223175049;0.5094615817070007;-0.04764748737215996
01:00:0A:00:00:00:00;1726963674;22/09/24;00:07:54;0.976;0.095;0.262;-3.067765235900879;-0.2321287840604782;0.30543261766433716
01:00:0A:00:00:00:00;1726963675;22/09/24;00:07:55;1.002;0.206;-0.011;-2.378709316253662;0.37629297375679016;-0.25534167885780334
01:00:0A:00:00:00:00;1726963676;22/09/24;00:07:56;0.885;-0.204;-0.11;-1.6420056819915771;-0.3689626157283783;0.23335053026676178
01:00:0A:00:00:00:00;1726963677;22/09/24;00:07:57;0.737;-0.434;-0.39;0.45814892649650574;0.39584067463874817;-1.0409142971038818
01:00:0A:00:00:00:00;1726963678;22/09/24;00:07:58;0.935;0.315;0.181;0.18325956165790558;0.375071257352829;0.17592918872833252
01:00:0A:00:00:00:00;1726963679;22/09/24;00:07:59;1.083;-0.199;0.027;-0.6695082783699036;-0.1966986060142517;-0.15515977144241333
01:00:0A:00:00:00:00;1726963680;22/09/24;00:08:00;1.052;0.35;0.056;-0.6682865619659424;0.0;0.0024434609804302454
01:00:0A:00:00:00:00;1726963681;22/09/24;00:08:01;1.04;-0.203;0.006;-0.5693264007568359;-0.3677408695220947;0.05009094998240471
01:00:0A:00:00:00:00;1726963682;22/09/24;00:08:02;0.711;0.316;-0.74;0.10995574295520782;-0.6035348773002625;-1.1826351881027222
01:00:0A:00:00:00:00;1726963683;22/09/24;00:08:03;0.894;0.569;0.218;0.06475171446800232;0.9529497623443604;0.3543018400669098
01:00:0A:00:00:00:00;1726963684;22/09/24;00:08:04;0.925;-0.427;0.485;0.1368338167667389;-0.11972958594560623;0.5974262356758118
01:00:0A:00:00:00:00;1726963685;22/09/24;00:08:05;0.995;0.047;-0.31;0.42149701714515686;-0.3298672139644623;-0.21991148591041565
01:00:0A:00:00:00:00;1726963686;22/09/24;00:08:06;0.982;0.0;0.269;0.4508185386657715;0.739146888256073;0.004886921960860491
01:00:0A:00:00:00:00;1726963687;22/09/24;00:08:07;0.948;-0.136;0.351;0.22479839622974396;-0.6133087277412415;0.4789183437824249
01:00:0A:00:00:00:00;1726963688;22/09/24;00:08:08;0.523;-0.383;0.581;-0.2981022298336029;-1.0653489828109741;0.39095374941825867
01:00:0A:00:00:00:00;1726963689;22/09/24;00:08:09;0.987;-0.082;-0.042;-0.1966986060142517;0.4911356568336487;-1.9511035680770874
01:00:0A:00:00:00:00;1726963690;22/09/24;00:08:10;0.671;0.329;0.447;-1.5259413719177246;-0.3078760802745819;-3.0384435653686523
01:00:0A:00:00:00:00;1726963691;22/09/24;00:08:11;0.872;-0.187;0.621;-1.0103710889816284;-0.8845328092575073;0.14416420459747314
01:00:0A:00:00:00:00;1726963692;22/09/24;00:08:12;0.433;-0.937;-0.611;-4.70244026184082;-1.5625932216644287;1.644449234008789
01:00:0A:00:00:00:00;1726963693;22/09/24;00:08:13;0.419;0.567;0.637;-2.526538610458374;-0.0354301817715168;1.4819591045379639
01:00:0A:00:00:00:00;1726963694;22/09/24;00:08:14;0.471;-0.298;0.977;-1.63467538356781;2.0977110862731934;0.34208452701568604
01:00:0A:00:00:00:00;1726963695;22/09/24;00:08:15;1.048;-0.029;0.257;-0.3836233615875244;0.43249258399009705;-0.5693264007568359
01:00:0A:00:00:00:00;1726963696;22/09/24;00:08:16;0.605;-0.821;-0.398;-0.38606682419776917;0.8026769161224365;0.09285151958465576
01:00:0A:00:00:00:00;1726963697;22/09/24;00:08:17;0.842;0.449;0.617;-0.06841690838336945;0.19547687470912933;-0.9517280459403992
01:00:0A:00:00:00:00;1726963698;22/09/24;00:08:18;0.321;1.186;0.154;-0.3946189284324646;-1.370781660079956;-3.037221908569336
01:00:0A:00:00:00:00;1726963699;22/09/24;00:08:19;0.769;0.587;0.211;-1.23394775390625;-1.0506882667541504;1.9498817920684814
01:00:0A:00:00:00:00;1726963700;22/09/24;00:08:20;0.921;0.076;0.0;-0.5571090579032898;1.2913691997528076;-0.8906415700912476
01:00:0A:00:00:00:00;1726963701;22/09/24;00:08:21;0.698;0.515;0.306;0.09285151958465576;-0.39584067463874817;1.0604619979858398
01:00:0A:00:00:00:00;1726963702;22/09/24;00:08:22;0.949;0.067;0.198;0.18814648687839508;0.22602014243602753;-0.059864792972803116
01:00:0A:00:00:00:00;1726963703;22/09/24;00:08:23;0.991;-0.111;-0.042;0.3347541391849518;-0.45814892649650574;0.2834414541721344
01:00:0A:00:00:00:00;1726963704;22/09/24;00:08:24;1.018;-0.118;-0.024;0.4703662395477295;0.2919935882091522;-0.38240164518356323
01:00:0A:00:00:00:00;1726963705;22/09/24;00:08:25;0.937;0.17;0.419;0.3946189284324646;0.12217304855585098;0.294437050819397
01:00:0A:00:00:00:00;1726963706;22/09/24;00:08:26;1.043;-0.071;0.256;0.44348815083503723;-0.010995574295520782;0.2724458873271942
01:00:0A:00:00:00:00;1726963707;22/09/24;00:08:27;1.017;0.281;0.01;0.4605923891067505;-0.12461651116609573;-0.30054569244384766
01:00:0A:00:00:00:00;1726963708;22/09/24;00:08:28;0.959;-0.096;0.442;0.1869247555732727;0.6878342032432556;0.13316862285137177
01:00:0A:00:00:00:00;1726963709;22/09/24;00:08:29;0.966;0.177;0.262;0.3530800938606262;-0.3689626157283783;-0.2834414541721344
01:00:0A:00:00:00:00;1726963710;22/09/24;00:08:30;1.134;0.342;0.017;0.1771509200334549;-0.3090977966785431;0.02076941914856434
01:00:0A:00:00:00:00;1726963711;22/09/24;00:08:31;0.911;0.333;0.251;-0.19303341209888458;0.29077184200286865;-0.09162978082895279
01:00:0A:00:00:00:00;1726963712;22/09/24;00:08:32;0.964;0.175;0.125;-0.27488934993743896;-0.39828410744667053;0.10384709388017654
01:00:0A:00:00:00:00;1726963713;22/09/24;00:08:33;0.973;0.419;-0.075;-0.32009339332580566;-0.06841690838336945;-0.5314527750015259
01:00:0A:00:00:00:00;1726963714;22/09/24;00:08:34;0.691;0.563;0.595;-0.8002334833145142;0.2895500957965851;0.5962044596672058
01:00:0A:00:00:00:00;1726963715;22/09/24;00:08:35;0.935;-0.193;0.354;0.13072516024112701;-0.19303341209888458;-0.1319468915462494
01:00:0A:00:00:00:00;1726963716;22/09/24;00:08:36;1.002;0.005;0.047;0.14782939851284027;0.18081611394882202;-0.4447098970413208
01:00:0A:00:00:00:00;1726963717;22/09/24;00:08:37;0.944;0.185;0.249;-0.20647244155406952;0.20402899384498596;0.12217304855585098
01:00:0A:00:00:00:00;1726963718;22/09/24;00:08:38;0.973;-0.168;0.061;-0.22602014243602753;-0.3445279896259308;0.3836233615875244
01:00:0A:00:00:00:00;1726963719;22/09/24;00:08:39;0.948;0.066;0.199;0.04886921867728233;0.49235740303993225;-0.6401867866516113
01:00:0A:00:00:00:00;1726963720;22/09/24;00:08:40;0.913;0.083;0.37;-0.21380282938480377;-0.08796459436416626;0.28466320037841797
01:00:0A:00:00:00:00;1726963721;22/09/24;00:08:41;0.978;-0.162;0.253;-0.05864306166768074;-0.3298672139644623;-0.08307767659425735
01:00:0A:00:00:00:00;1726963722;22/09/24;00:08:42;0.998;-0.027;0.107;0.4300491213798523;-0.09773843735456467;-0.04886921867728233
01:00:0A:00:00:00:00;1726963723;22/09/24;00:08:43;1.008;0.03;0.106;0.2687807083129883;0.06475171446800232;0.004886921960860491
01:00:0A:00:00:00:00;1726963724;22/09/24;00:08:44;0.994;0.029;0.175;0.14782939851284027;-0.09040805697441101;0.09285151958465576
01:00:0A:00:00:00:00;1726963725;22/09/24;00:08:45;1.006;-0.045;0.231;0.05619959905743599;0.1563815027475357;0.06841690838336945
01:00:0A:00:00:00:00;1726963726;22/09/24;00:08:46;0.996;0.108;0.286;-0.012217304669320583;-0.2125810980796814;-0.11239919811487198
01:00:0A:00:00:00:00;1726963727;22/09/24;00:08:47;1.036;0.025;0.043;-0.22357667982578278;-0.06719517707824707;0.19058994948863983
01:00:0A:00:00:00:00;1726963728;22/09/24;00:08:48;0.986;-0.071;0.25;-0.18936821818351746;0.09651670604944229;-0.09529497474431992
01:00:0A:00:00:00:00;1726963729;22/09/24;00:08:49;0.971;0.052;0.154;-0.13316862285137177;-0.3274237811565399;-0.23579397797584534
01:00:0A:00:00:00:00;1726963730;22/09/24;00:08:50;0.977;-0.048;0.127;-0.26633724570274353;0.11850785464048386;0.14049901068210602
01:00:0A:00:00:00:00;1726963731;22/09/24;00:08:51;0.975;-0.108;0.2;-0.12950342893600464;0.012217304669320583;-0.2590068578720093
01:00:0A:00:00:00:00;1726963732;22/09/24;00:08:52;1.014;0.074;0.122;-0.16493360698223114;-0.12828169763088226;-0.05619959905743599
01:00:0A:00:00:00:00;1726963733;22/09/24;00:08:53;1.005;-0.02;0.12;-0.2015855312347412;0.07330382615327835;0.08307767659425735
01:00:0A:00:00:00:00;1726963734;22/09/24;00:08:54;0.999;-0.015;0.198;-0.09040805697441101;-0.004886921960860491;-0.13927726447582245
01:00:0A:00:00:00:00;1726963735;22/09/24;00:08:55;1.016;0.06;0.148;-0.1258382350206375;-0.08185594528913498;0.07452555745840073
01:00:0A:00:00:00:00;1726963736;22/09/24;00:08:56;1.038;-0.04;0.139;-0.08918632566928864;0.013439035043120384;-0.02076941914856434
01:00:0A:00:00:00:00;1726963737;22/09/24;00:08:57;1.03;0.041;0.202;-0.030543262138962746;0.014660765416920185;-0.15271630883216858
01:00:0A:00:00:00:00;1726963738;22/09/24;00:08:58;1.058;0.27;-0.105;-0.15027284622192383;-0.3628539443016052;-0.2724458873271942
01:00:0A:00:00:00:00;1726963739;22/09/24;00:08:59;0.898;0.391;0.01;-0.6218608021736145;0.17470745742321014;0.2981022298336029
01:00:0A:00:00:00:00;1726963740;22/09/24;00:09:00;0.976;-0.203;0.116;-0.6340781450271606;-0.16493360698223114;0.3836233615875244
01:00:0A:00:00:00:00;1726963741;22/09/24;00:09:01;0.999;-0.064;0.092;-0.3188716471195221;0.44348815083503723;-0.645073652267456
01:00:0A:00:00:00:00;1726963742;22/09/24;00:09:02;0.913;0.14;0.349;-0.42760565876960754;-0.2871066629886627;0.19058994948863983
01:00:0A:00:00:00:00;1726963743;22/09/24;00:09:03;1.009;-0.016;0.057;-0.35185837745666504;-0.2382374405860901;-0.07819075137376785
01:00:0A:00:00:00:00;1726963744;22/09/24;00:09:04;1.027;0.029;0.089;-0.37751471996307373;0.45692718029022217;0.042760565876960754
01:00:0A:00:00:00:00;1726963745;22/09/24;00:09:05;0.958;-0.081;0.452;-0.20036379992961884;-0.4703662395477295;-0.27977627515792847
01:00:0A:00:00:00:00;1726963746;22/09/24;00:09:06;1.04;0.144;-0.145;-0.30543261766433716;-0.06108652427792549;0.09285151958465576
01:00:0A:00:00:00:00;1726963747;22/09/24;00:09:07;1.008;-0.179;0.3;-0.30054569244384766;0.23945917189121246;0.09896016865968704
01:00:0A:00:00:00:00;1726963748;22/09/24;00:09:08;1.021;0.087;0.123;-0.1771509200334549;-0.26633724570274353;-0.2993239760398865
01:00:0A:00:00:00:00;1726963749;22/09/24;00:09:09;1.002;0.036;0.1;-0.3384193480014801;0.03787364438176155;0.19303341209888458
01:00:0A:00:00:00:00;1726963750;22/09/24;00:09:10;0.997;-0.071;0.19;-0.2541199326515198;0.08185594528913498;-0.08185594528913498
01:00:0A:00:00:00:00;1726963751;22/09/24;00:09:11;1.008;0.071;0.147;-0.22113320231437683;-0.18814648687839508;-0.12950342893600464
01:00:0A:00:00:00:00;1726963752;22/09/24;00:09:12;1.005;0.055;0.133;-0.31154125928878784;-0.025656338781118393;0.12828169763088226
01:00:0A:00:00:00:00;1726963753;22/09/24;00:09:13;0.989;-0.053;0.201;-0.25534167885780334;0.02076941914856434;-0.021991148591041565
01:00:0A:00:00:00:00;1726963754;22/09/24;00:09:14;0.993;0.063;0.205;-0.2015855312347412;-0.039095375686883926;-0.19303341209888458
01:00:0A:00:00:00:00;1726963755;22/09/24;00:09:15;1.015;0.047;0.143;-0.27488934993743896;-0.06230825558304787;0.04642575979232788
01:00:0A:00:00:00:00;1726963756;22/09/24;00:09:16;0.999;-0.063;0.152;-0.22846359014511108;0.040317103266716;-0.06963863223791122
01:00:0A:00:00:00:00;1726963757;22/09/24;00:09:17;0.972;0.024;0.178;-0.1722639948129654;-0.07330382615327835;-0.18081611394882202
01:00:0A:00:00:00:00;1726963758;22/09/24;00:09:18;0.998;0.016;0.16;-0.2565633952617645;-0.08429940044879913;0.17592918872833252
01:00:0A:00:00:00:00;1726963759;22/09/24;00:09:19;1.061;-0.106;0.155;-0.161268413066864;-0.015882495790719986;-0.13316862285137177
01:00:0A:00:00:00:00;1726963760;22/09/24;00:09:20;1.057;0.184;0.228;-0.22357667982578278;-0.05497787147760391;0.045204028487205505
01:00:0A:00:00:00:00;1726963761;22/09/24;00:09:21;1.023;-0.326;0.062;-0.251676470041275;-0.1319468915462494;0.44226640462875366
01:00:0A:00:00:00:00;1726963762;22/09/24;00:09:22;0.914;0.36;0.285;-0.09407324343919754;0.22357667982578278;-0.6682865619659424
01:00:0A:00:00:00:00;1726963763;22/09/24;00:09:23;0.988;-0.066;0.122;-0.39217546582221985;-0.43860122561454773;0.6963863372802734
01:00:0A:00:00:00:00;1726963764;22/09/24;00:09:24;0.992;-0.07;0.051;-0.09896016865968704;0.24434609711170197;-0.436157763004303
01:00:0A:00:00:00:00;1726963765;22/09/24;00:09:25;0.947;0.136;0.244;-0.20525071024894714;0.11484266817569733;-0.06719517707824707
01:00:0A:00:00:00:00;1726963766;22/09/24;00:09:26;0.991;-0.048;0.117;-0.2822197377681732;-0.3946189284324646;0.2785545289516449
01:00:0A:00:00:00:00;1726963767;22/09/24;00:09:27;1.006;-0.019;0.042;-0.1563815027475357;0.2321287840604782;-0.21135938167572021
01:00:0A:00:00:00:00;1726963768;22/09/24;00:09:28;0.976;0.122;0.3;-0.22113320231437683;0.021991148591041565;-0.02076941914856434
01:00:0A:00:00:00:00;1726963769;22/09/24;00:09:29;1.025;-0.01;0.144;-0.20525071024894714;-0.1966986060142517;-0.02076941914856434
01:00:0A:00:00:00:00;1726963770;22/09/24;00:09:30;1.031;0.017;0.052;-0.1966986060142517;0.08674286305904388;-0.042760565876960754
01:00:0A:00:00:00:00;1726963771;22/09/24;00:09:31;0.988;0.003;0.285;-0.19914205372333527;0.02076941914856434;-0.0073303827084600925
01:00:0A:00:00:00:00;1726963772;22/09/24;00:09:32;1.011;-0.009;0.151;-0.1417207270860672;-0.2223549485206604;-0.05009094998240471
01:00:0A:00:00:00:00;1726963773;22/09/24;00:09:33;1.021;0.013;0.124;-0.16859880089759827;0.1270599663257599;0.04886921867728233
01:00:0A:00:00:00:00;1726963774;22/09/24;00:09:34;1.002;-0.017;0.244;-0.1514945775270462;0.0757472887635231;0.039095375686883926
01:00:0A:00:00:00:00;1726963775;22/09/24;00:09:35;1.012;0.034;0.112;-0.08796459436416626;-0.17470745742321014;-0.0757472887635231
01:00:0A:00:00:00:00;1726963776;22/09/24;00:09:36;0.977;0.026;0.156;-0.12828169763088226;0.1319468915462494;0.014660765416920185
01:00:0A:00:00:00:00;1726963777;22/09/24;00:09:37;0.976;-0.012;0.219;-0.09773843735456467;-0.04642575979232788;-0.04398229718208313
01:00:0A:00:00:00:00;1726963778;22/09/24;00:09:38;1.01;0.028;0.148;-0.09407324343919754;-0.021991148591041565;-0.03420845419168472
01:00:0A:00:00:00:00;1726963779;22/09/24;00:09:39;1.03;0.009;0.154;-0.10995574295520782;0.036651913076639175;0.0024434609804302454
01:00:0A:00:00:00:00;1726963780;22/09/24;00:09:40;1.021;0.001;0.189;-0.09773843735456467;-0.04764748737215996;-0.02076941914856434
01:00:0A:00:00:00:00;1726963781;22/09/24;00:09:41;1.018;0.011;0.137;-0.09529497474431992;-0.04153883829712868;-0.010995574295520782
01:00:0A:00:00:00:00;1726963782;22/09/24;00:09:42;1.017;0.011;0.171;-0.10995574295520782;0.021991148591041565;0.11728612333536148
01:00:0A:00:00:00:00;1726963783;22/09/24;00:09:43;1.022;-0.098;0.161;-0.2822197377681732;-0.004886921960860491;0.09896016865968704
01:00:0A:00:00:00:00;1726963784;22/09/24;00:09:44;1.015;0.067;0.172;-0.18325956165790558;0.02687807008624077;-0.19303341209888458
01:00:0A:00:00:00:00;1726963785;22/09/24;00:09:45;0.991;0.044;0.154;-0.2431243658065796;-0.05253440886735916;0.06230825558304787
01:00:0A:00:00:00:00;1726963786;22/09/24;00:09:46;0.976;-0.024;0.138;-0.1966986060142517;-0.010995574295520782;-0.013439035043120384
01:00:0A:00:00:00:00;1726963787;22/09/24;00:09:47;0.985;0.017;0.166;-0.13927726447582245;0.01710422709584236;-0.10751228034496307
01:00:0A:00:00:00:00;1726963788;22/09/24;00:09:48;1.001;0.035;0.171;-0.16249015927314758;-0.051312677562236786;0.042760565876960754
01:00:0A:00:00:00:00;1726963789;22/09/24;00:09:49;1.008;-0.016;0.139;-0.11484266817569733;-0.025656338781118393;-0.02932153083384037
01:00:0A:00:00:00:00;1726963790;22/09/24;00:09:50;1.012;0.026;0.169;-0.07452555745840073;0.03298672288656235;-0.06352998316287994
01:00:0A:00:00:00:00;1726963791;22/09/24;00:09:51;1.019;0.033;0.177;-0.09162978082895279;-0.08307767659425735;0.02076941914856434
01:00:0A:00:00:00:00;1726963792;22/09/24;00:09:52;1.043;-0.012;0.135;-0.07452555745840073;0.0073303827084600925;-0.024434609338641167
01:00:0A:00:00:00:00;1726963793;22/09/24;00:09:53;1.026;0.041;0.201;-0.07330382615327835;0.02932153083384037;-0.04398229718208313
01:00:0A:00:00:00:00;1726963794;22/09/24;00:09:54;1.005;0.008;0.138;-0.1014036238193512;-0.051312677562236786;0.03420845419168472
01:00:0A:00:00:00:00;1726963795;22/09/24;00:09:55;0.974;0.017;0.152;-0.08674286305904388;0.028099799528717995;-0.05742133408784866
01:00:0A:00:00:00:00;1726963796;22/09/24;00:09:56;0.976;0.027;0.168;-0.11362093687057495;-0.024434609338641167;0.00855211354792118
01:00:0A:00:00:00:00;1726963797;22/09/24;00:09:57;1.006;0.006;0.157;-0.11239919811487198;-0.05009094998240471;-0.021991148591041565
01:00:0A:00:00:00:00;1726963798;22/09/24;00:09:58;1.012;0.019;0.16;-0.12339477241039276;0.015882495790719986;-0.014660765416920185
01:00:0A:00:00:00:00;1726963799;22/09/24;00:09:59;1.017;0.001;0.192;-0.13439035415649414;-0.019547687843441963;-0.018325956538319588
01:00:0A:00:00:00:00;1726963800;22/09/24;00:10:00;1.019;0.021;0.152;-0.14905111491680145;-0.03420845419168472;-0.018325956538319588
01:00:0A:00:00:00:00;1726963801;22/09/24;00:10:01;1.018;0.0;0.169;-0.16859880089759827;0.006108652334660292;0.0012217304902151227
01:00:0A:00:00:00:00;1726963802;22/09/24;00:10:02;1.011;0.014;0.179;-0.16982054710388184;-0.012217304669320583;-0.025656338781118393
01:00:0A:00:00:00:00;1726963803;22/09/24;00:10:03;1.01;0.011;0.157;-0.1820378452539444;-0.03420845419168472;-0.018325956538319588
01:00:0A:00:00:00:00;1726963804;22/09/24;00:10:04;0.999;0.014;0.157;-0.17959438264369965;0.009773843921720982;-0.042760565876960754
01:00:0A:00:00:00:00;1726963805;22/09/24;00:10:05;0.992;0.012;0.162;-0.17959438264369965;-0.0354301817715168;-0.028099799528717995
01:00:0A:00:00:00:00;1726963806;22/09/24;00:10:06;0.995;0.02;0.148;-0.17348572611808777;-0.030543262138962746;-0.040317103266716
01:00:0A:00:00:00:00;1726963807;22/09/24;00:10:07;0.997;0.008;0.166;-0.18081611394882202;-0.018325956538319588;-0.0073303827084600925
01:00:0A:00:00:00:00;1726963808;22/09/24;00:10:08;1.015;0.0;0.177;-0.1661553531885147;-0.03420845419168472;-0.040317103266716
01:00:0A:00:00:00:00;1726963809;22/09/24;00:10:09;1.025;0.021;0.163;-0.1771509200334549;-0.02687807008624077;0.014660765416920185
01:00:0A:00:00:00:00;1726963810;22/09/24;00:10:10;1.024;0.0;0.17;-0.17348572611808777;0.00855211354792118;0.0024434609804302454
01:00:0A:00:00:00:00;1726963811;22/09/24;00:10:11;1.009;0.022;0.171;-0.15515977144241333;-0.01710422709584236;-0.045204028487205505
01:00:0A:00:00:00:00;1726963812;22/09/24;00:10:12;1.007;0.015;0.157;-0.1576032191514969;-0.014660765416920185;-0.012217304669320583
01:00:0A:00:00:00:00;1726963813;22/09/24;00:10:13;1.001;0.0;0.171;-0.14538592100143433;-0.010995574295520782;-0.02076941914856434
01:00:0A:00:00:00:00;1726963814;22/09/24;00:10:14;1.001;0.01;0.162;-0.13927726447582245;-0.02321287989616394;-0.01710422709584236
01:00:0A:00:00:00:00;1726963815;22/09/24;00:10:15;0.99;0.002;0.164;-0.13805554807186127;-0.006108652334660292;-0.0024434609804302454
01:00:0A:00:00:00:00;1726963816;22/09/24;00:10:16;0.995;0.016;0.158;-0.1258382350206375;-0.024434609338641167;-0.019547687843441963
01:00:0A:00:00:00:00;1726963817;22/09/24;00:10:17;1.002;0.004;0.164;-0.11972958594560623;-0.02321287989616394;-0.02687807008624077
01:00:0A:00:00:00:00;1726963818;22/09/24;00:10:18;1.012;0.009;0.167;-0.11484266817569733;-0.02076941914856434;-0.02932153083384037
01:00:0A:00:00:00:00;1726963819;22/09/24;00:10:19;1.016;0.002;0.166;-0.11728612333536148;-0.0012217304902151227;-0.009773843921720982
01:00:0A:00:00:00:00;1726963820;22/09/24;00:10:20;1.011;0.016;0.156;-0.10751228034496307;-0.0073303827084600925;-0.024434609338641167
01:00:0A:00:00:00:00;1726963821;22/09/24;00:10:21;1.007;0.012;0.171;-0.10873401165008545;-0.013439035043120384;-0.004886921960860491
01:00:0A:00:00:00:00;1726963822;22/09/24;00:10:22;1.003;0.003;0.162;-0.09529497474431992;-0.028099799528717995;-0.042760565876960754
01:00:0A:00:00:00:00;1726963823;22/09/24;00:10:23;0.999;-0.002;0.171;-0.10506881773471832;0.0024434609804302454;0.0024434609804302454
01:00:0A:00:00:00:00;1726963824;22/09/24;00:10:24;0.993;0.005;0.165;-0.1014036238193512;-0.021991148591041565;-0.0012217304902151227
01:00:0A:00:00:00:00;1726963825;22/09/24;00:10:25;0.995;0.017;0.162;-0.10873401165008545;-0.01710422709584236;0.02076941914856434
01:00:0A:00:00:00:00;1726963826;22/09/24;00:10:26;1.008;0.012;0.167;-0.09407324343919754;-0.010995574295520782;-0.042760565876960754
01:00:0A:00:00:00:00;1726963827;22/09/24;00:10:27;1.016;0.014;0.164;-0.10506881773471832;-0.018325956538319588;-0.006108652334660292
01:00:0A:00:00:00:00;1726963828;22/09/24;00:10:28;1.014;-0.003;0.164;-0.10384709388017654;-0.010995574295520782;-0.010995574295520782
01:00:0A:00:00:00:00;1726963829;22/09/24;00:10:29;1.004;0.025;0.16;-0.10384709388017654;-0.024434609338641167;-0.006108652334660292
01:00:0A:00:00:00:00;1726963830;22/09/24;00:10:30;1.003;0.013;0.163;-0.10384709388017654;-0.010995574295520782;-0.0073303827084600925
01:00:0A:00:00:00:00;1726963831;22/09/24;00:10:31;1.013;0.01;0.168;-0.09896016865968704;-0.02321287989616394;-0.019547687843441963
01:00:0A:00:00:00:00;1726963832;22/09/24;00:10:32;1.019;0.007;0.157;-0.09896016865968704;-0.006108652334660292;-0.013439035043120384
01:00:0A:00:00:00:00;1726963833;22/09/24;00:10:33;1.005;0.009;0.176;-0.10506881773471832;-0.012217304669320583;0.00855211354792118
01:00:0A:00:00:00:00;1726963834;22/09/24;00:10:34;0.998;0.013;0.161;-0.1014036238193512;-0.021991148591041565;-0.0012217304902151227
01:00:0A:00:00:00:00;1726963835;22/09/24;00:10:35;0.998;0.015;0.17;-0.10262535512447357;0.018325956538319588;-0.0024434609804302454
01:00:0A:00:00:00:00;1726963836;22/09/24;00:10:36;1.01;0.009;0.163;-0.09529497474431992;-0.021991148591041565;-0.018325956538319588
01:00:0A:00:00:00:00;1726963837;22/09/24;00:10:37;1.016;0.015;0.154;-0.09285151958465576;-0.02321287989616394;-0.019547687843441963
01:00:0A:00:00:00:00;1726963838;22/09/24;00:10:38;1.002;0.005;0.163;-0.09529497474431992;-0.018325956538319588;-0.0036651913542300463
01:00:0A:00:00:00:00;1726963839;22/09/24;00:10:39;0.995;0.011;0.171;-0.08796459436416626;-0.021991148591041565;-0.02321287989616394
01:00:0A:00:00:00:00;1726963840;22/09/24;00:10:40;1.006;0.008;0.161;-0.09162978082895279;-0.021991148591041565;-0.0024434609804302454
01:00:0A:00:00:00:00;1726963841;22/09/24;00:10:41;1.019;0.008;0.166;-0.08674286305904388;0.0024434609804302454;-0.009773843921720982
01:00:0A:00:00:00:00;1726963842;22/09/24;00:10:42;1.016;0.007;0.169;-0.080634206533432;-0.018325956538319588;-0.018325956538319588
01:00:0A:00:00:00:00;1726963843;22/09/24;00:10:43;1.008;0.008;0.157;-0.07696902006864548;-0.018325956538319588;-0.018325956538319588
01:00:0A:00:00:00:00;1726963844;22/09/24;00:10:44;0.998;0.005;0.164;-0.07452555745840073;-0.0012217304902151227;-0.015882495790719986
01:00:0A:00:00:00:00;1726963845;22/09/24;00:10:45;1.009;0.008;0.162;-0.07208210229873657;-0.019547687843441963;-0.00855211354792118
01:00:0A:00:00:00:00;1726963846;22/09/24;00:10:46;1.015;0.011;0.166;-0.0659734457731247;-0.010995574295520782;-0.015882495790719986
01:00:0A:00:00:00:00;1726963847;22/09/24;00:10:47;1.008;0.009;0.159;-0.06475171446800232;0.0024434609804302454;-0.004886921960860491
01:00:0A:00:00:00:00;1726963848;22/09/24;00:10:48;0.998;0.005;0.167;-0.05742133408784866;-0.0012217304902151227;-0.012217304669320583
01:00:0A:00:00:00:00;1726963849;22/09/24;00:10:49;1.001;0.01;0.153;-0.05375614017248154;-0.024434609338641167;-0.0073303827084600925
01:00:0A:00:00:00:00;1726963850;22/09/24;00:10:50;1.008;0.0;0.163;-0.05375614017248154;-0.013439035043120384;0.0036651913542300463
01:00:0A:00:00:00:00;1726963851;22/09/24;00:10:51;1.014;0.007;0.168;-0.04764748737215996;-0.012217304669320583;-0.006108652334660292
01:00:0A:00:00:00:00;1726963852;22/09/24;00:10:52;1.009;0.002;0.162;-0.05009094998240471;-0.01710422709584236;0.012217304669320583
01:00:0A:00:00:00:00;1726963853;22/09/24;00:10:53;1.009;0.012;0.162;-0.04153883829712868;-0.010995574295520782;-0.009773843921720982
01:00:0A:00:00:00:00;1726963854;22/09/24;00:10:54;1.011;0.006;0.168;-0.042760565876960754;-0.02076941914856434;-0.0024434609804302454
01:00:0A:00:00:00:00;1726963855;22/09/24;00:10:55;1.016;0.003;0.162;-0.039095375686883926;-0.018325956538319588;-0.012217304669320583
01:00:0A:00:00:00:00;1726963856;22/09/24;00:10:56;1.007;0.006;0.167;-0.04642575979232788;0.0024434609804302454;0.01710422709584236
01:00:0A:00:00:00:00;1726963857;22/09/24;00:10:57;1.0;0.01;0.159;-0.039095375686883926;-0.028099799528717995;-0.0024434609804302454
01:00:0A:00:00:00:00;1726963858;22/09/24;00:10:58;0.999;0.012;0.16;-0.040317103266716;-0.0073303827084600925;0.0
01:00:0A:00:00:00:00;1726963859;22/09/24;00:10:59;1.004;0.004;0.162;-0.03420845419168472;-0.02932153083384037;-0.02076941914856434
01:00:0A:00:00:00:00;1726963860;22/09/24;00:11:00;1.014;0.006;0.163;-0.042760565876960754;-0.009773843921720982;0.012217304669320583
01:00:0A:00:00:00:00;1726963861;22/09/24;00:11:01;1.011;0.002;0.164;-0.03787364438176155;-0.0073303827084600925;-0.0012217304902151227
01:00:0A:00:00:00:00;1726963862;22/09/24;00:11:02;1.007;0.015;0.159;-0.039095375686883926;-0.018325956538319588;0.004886921960860491
01:00:0A:00:00:00:00;1726963863;22/09/24;00:11:03;1.004;0.009;0.162;-0.0354301817715168;-0.009773843921720982;-0.014660765416920185
01:00:0A:00:00:00:00;1726963864;22/09/24;00:11:04;1.006;0.008;0.162;-0.03787364438176155;-0.024434609338641167;-0.004886921960860491
01:00:0A:00:00:00:00;1726963865;22/09/24;00:11:05;1.008;0.001;0.163;-0.03787364438176155;-0.0036651913542300463;-0.004886921960860491
01:00:0A:00:00:00:00;1726963866;22/09/24;00:11:06;1.009;0.014;0.166;-0.042760565876960754;-0.00855211354792118;0.010995574295520782
01:00:0A:00:00:00:00;1726963867;22/09/24;00:11:07;1.01;0.005;0.161;-0.039095375686883926;-0.012217304669320583;-0.004886921960860491
01:00:0A:00:00:00:00;1726963868;22/09/24;00:11:08;1.01;0.015;0.167;-0.039095375686883926;-0.004886921960860491;-0.010995574295520782
01:00:0A:00:00:00:00;1726963869;22/09/24;00:11:09;1.009;0.003;0.16;-0.04153883829712868;-0.021991148591041565;-0.0012217304902151227
01:00:0A:00:00:00:00;1726963870;22/09/24;00:11:10;1.006;0.011;0.162;-0.040317103266716;-0.0036651913542300463;-0.010995574295520782
01:00:0A:00:00:00:00;1726963871;22/09/24;00:11:11;1.005;0.007;0.162;-0.04398229718208313;-0.02076941914856434;-0.0012217304902151227
01:00:0A:00:00:00:00;1726963872;22/09/24;00:11:12;1.008;0.01;0.161;-0.045204028487205505;-0.015882495790719986;-0.0073303827084600925
01:00:0A:00:00:00:00;1726963873;22/09/24;00:11:13;1.01;0.007;0.164;-0.04886921867728233;-0.013439035043120384;-0.0012217304902151227
01:00:0A:00:00:00:00;1726963874;22/09/24;00:11:14;1.011;0.01;0.163;-0.04886921867728233;-0.013439035043120384;-0.015882495790719986
01:00:0A:00:00:00:00;1726963875;22/09/24;00:11:15;1.012;0.008;0.164;-0.05742133408784866;-0.004886921960860491;0.004886921960860491
01:00:0A:00:00:00:00;1726963876;22/09/24;00:11:16;1.009;0.007;0.163;-0.05497787147760391;-0.00855211354792118;-0.015882495790719986
01:00:0A:00:00:00:00;1726963877;22/09/24;00:11:17;1.008;0.01;0.16;-0.06108652427792549;-0.009773843921720982;-0.0012217304902151227
01:00:0A:00:00:00:00;1726963878;22/09/24;00:11:18;1.005;0.006;0.162;-0.06108652427792549;-0.010995574295520782;-0.0073303827084600925
01:00:0A:00:00:00:00;1726963879;22/09/24;00:11:19;1.003;0.012;0.162;-0.06352998316287994;-0.01710422709584236;-0.006108652334660292
01:00:0A:00:00:00:00;1726963880;22/09/24;00:11:20;1.005;0.003;0.162;-0.06719517707824707;-0.0036651913542300463;-0.0024434609804302454
01:00:0A:00:00:00:00;1726963881;22/09/24;00:11:21;1.004;0.01;0.164;-0.06719517707824707;-0.014660765416920185;-0.006108652334660292
01:00:0A:00:00:00:00;1726963882;22/09/24;00:11:22;1.004;0.007;0.158;-0.06963863223791122;-0.013439035043120384;-0.0012217304902151227
01:00:0A:00:00:00:00;1726963883;22/09/24;00:11:23;1.005;0.008;0.167;-0.06963863223791122;-0.01710422709584236;-0.00855211354792118
01:00:0A:00:00:00:00;1726963884;22/09/24;00:11:24;0.999;0.007;0.214;-0.11728612333536148;0.15027284622192383;-0.015882495790719986
01:00:0A:00:00:00:00;1726963885;22/09/24;00:11:25;0.982;-0.003;0.3;-0.20525071024894714;0.04642575979232788;-0.025656338781118393
01:00:0A:00:00:00:00;1726963886;22/09/24;00:11:26;1.001;0.003;0.21;-0.3042108714580536;-0.1417207270860672;-0.08918632566928864
01:00:0A:00:00:00:00;1726963887;22/09/24;00:11:27;1.006;0.013;0.157;-0.19914205372333527;-0.05864306166768074;-0.01710422709584236
01:00:0A:00:00:00:00;1726963888;22/09/24;00:11:28;1.005;0.006;0.151;-0.19303341209888458;0.013439035043120384;-0.01710422709584236
01:00:0A:00:00:00:00;1726963889;22/09/24;00:11:29;1.002;0.004;0.183;-0.17837265133857727;-0.013439035043120384;-0.02687807008624077
01:00:0A:00:00:00:00;1726963890;22/09/24;00:11:30;1.011;0.014;0.156;-0.16493360698223114;-0.05864306166768074;-0.03420845419168472
01:00:0A:00:00:00:00;1726963891;22/09/24;00:11:31;1.01;0.01;0.157;-0.17104226350784302;0.013439035043120384;-0.0024434609804302454
01:00:0A:00:00:00:00;1726963892;22/09/24;00:11:32;1.006;0.002;0.175;-0.1576032191514969;-0.02321287989616394;-0.03298672288656235
01:00:0A:00:00:00:00;1726963893;22/09/24;00:11:33;1.009;0.017;0.157;-0.1576032191514969;-0.02687807008624077;-0.018325956538319588
01:00:0A:00:00:00:00;1726963894;22/09/24;00:11:34;1.011;0.012;0.162;-0.16004669666290283;-0.0024434609804302454;-0.0073303827084600925
01:00:0A:00:00:00:00;1726963895;22/09/24;00:11:35;1.012;0.005;0.167;-0.15271630883216858;-0.018325956538319588;-0.019547687843441963
01:00:0A:00:00:00:00;1726963896;22/09/24;00:11:36;1.006;0.013;0.161;-0.14416420459747314;-0.02321287989616394;-0.0354301817715168
01:00:0A:00:00:00:00;1726963897;22/09/24;00:11:37;1.005;0.01;0.159;-0.15271630883216858;-0.013439035043120384;0.0073303827084600925
01:00:0A:00:00:00:00;1726963898;22/09/24;00:11:38;1.006;0.0;0.165;-0.13561207056045532;-0.0073303827084600925;-0.02687807008624077
01:00:0A:00:00:00:00;1726963899;22/09/24;00:11:39;1.007;0.016;0.165;-0.12950342893600464;-0.02321287989616394;-0.02321287989616394
01:00:0A:00:00:00:00;1726963900;22/09/24;00:11:40;1.007;0.004;0.158;-0.13316862285137177;-0.010995574295520782;-0.0024434609804302454
01:00:0A:00:00:00:00;1726963901;22/09/24;00:11:41;1.003;0.002;0.168;-0.12095131725072861;-0.0073303827084600925;-0.021991148591041565
01:00:0A:00:00:00:00;1726963902;22/09/24;00:11:42;1.006;0.012;0.161;-0.11728612333536148;-0.02321287989616394;-0.018325956538319588
01:00:0A:00:00:00:00;1726963903;22/09/24;00:11:43;1.012;0.007;0.163;-0.11972958594560623;-0.010995574295520782;-0.0012217304902151227
01:00:0A:00:00:00:00;1726963904;22/09/24;00:11:44;1.015;0.004;0.162;-0.10995574295520782;-0.012217304669320583;-0.02076941914856434
01:00:0A:00:00:00:00;1726963905;22/09/24;00:11:45;1.007;0.015;0.167;-0.10995574295520782;-0.012217304669320583;-0.014660765416920185
01:00:0A:00:00:00:00;1726963906;22/09/24;00:11:46;1.006;0.007;0.159;-0.11239919811487198;-0.02321287989616394;0.0
01:00:0A:00:00:00:00;1726963907;22/09/24;00:11:47;1.005;0.008;0.165;-0.1062905490398407;0.0024434609804302454;-0.01710422709584236
01:00:0A:00:00:00:00;1726963908;22/09/24;00:11:48;1.007;0.013;0.164;-0.10751228034496307;-0.024434609338641167;-0.00855211354792118
01:00:0A:00:00:00:00;1726963909;22/09/24;00:11:49;1.007;0.01;0.161;-0.1062905490398407;-0.013439035043120384;-0.009773843921720982
01:00:0A:00:00:00:00;1726963910;22/09/24;00:11:50;1.004;0.007;0.164;-0.10384709388017654;-0.014660765416920185;-0.01710422709584236
01:00:0A:00:00:00:00;1726963911;22/09/24;00:11:51;1.004;0.009;0.165;-0.10506881773471832;-0.01710422709584236;-0.009773843921720982
01:00:0A:00:00:00:00;1726963912;22/09/24;00:11:52;1.009;0.009;0.163;-0.10384709388017654;-0.019547687843441963;-0.009773843921720982
01:00:0A:00:00:00:00;1726963913;22/09/24;00:11:53;1.01;0.01;0.162;-0.10262535512447357;-0.006108652334660292;-0.0073303827084600925
01:00:0A:00:00:00:00;1726963914;22/09/24;00:11:54;1.007;0.009;0.168;-0.09773843735456467;-0.01710422709584236;-0.02076941914856434
01:00:0A:00:00:00:00;1726963915;22/09/24;00:11:55;1.005;0.01;0.16;-0.1014036238193512;-0.018325956538319588;-0.006108652334660292
01:00:0A:00:00:00:00;1726963916;22/09/24;00:11:56;1.007;0.003;0.165;-0.09773843735456467;-0.0036651913542300463;-0.012217304669320583
01:00:0A:00:00:00:00;1726963917;22/09/24;00:11:57;1.007;0.014;0.165;-0.09651670604944229;-0.018325956538319588;-0.012217304669320583
01:00:0A:00:00:00:00;1726963918;22/09/24;00:11:58;1.008;0.006;0.162;-0.09529497474431992;-0.014660765416920185;-0.012217304669320583
01:00:0A:00:00:00:00;1726963919;22/09/24;00:11:59;1.006;0.009;0.164;-0.09407324343919754;-0.004886921960860491;-0.013439035043120384
01:00:0A:00:00:00:00;1726963920;22/09/24;00:12:00;1.006;0.003;0.163;-0.09285151958465576;-0.019547687843441963;-0.0073303827084600925
01:00:0A:00:00:00:00;1726963921;22/09/24;00:12:01;1.008;0.009;0.161;-0.09040805697441101;-0.010995574295520782;-0.00855211354792118
01:00:0A:00:00:00:00;1726963922;22/09/24;00:12:02;1.008;0.007;0.166;-0.09040805697441101;-0.010995574295520782;-0.0036651913542300463
01:00:0A:00:00:00:00;1726963923;22/09/24;00:12:03;1.008;0.008;0.162;-0.08429940044879913;-0.013439035043120384;-0.019547687843441963
01:00:0A:00:00:00:00;1726963924;22/09/24;00:12:04;1.006;0.006;0.161;-0.08674286305904388;-0.012217304669320583;-0.0024434609804302454
01:00:0A:00:00:00:00;1726963925;22/09/24;00:12:05;1.006;0.006;0.162;-0.08185594528913498;-0.014660765416920185;-0.012217304669320583
01:00:0A:00:00:00:00;1726963926;22/09/24;00:12:06;1.007;0.008;0.163;-0.08429940044879913;-0.015882495790719986;0.0
01:00:0A:00:00:00:00;1726963927;22/09/24;00:12:07;1.008;0.009;0.163;-0.07941248267889023;-0.010995574295520782;-0.015882495790719986
01:00:0A:00:00:00:00;1726963928;22/09/24;00:12:08;1.007;0.008;0.162;-0.080634206533432;-0.012217304669320583;-0.004886921960860491
01:00:0A:00:00:00:00;1726963929;22/09/24;00:12:09;1.007;0.005;0.162;-0.0757472887635231;-0.013439035043120384;-0.015882495790719986
01:00:0A:00:00:00:00;1726963930;22/09/24;00:12:10;1.009;0.009;0.161;-0.07696902006864548;-0.02076941914856434;-0.0024434609804302454
01:00:0A:00:00:00:00;1726963931;22/09/24;00:12:11;1.008;0.005;0.162;-0.0757472887635231;-0.0073303827084600925;-0.004886921960860491
01:00:0A:00:00:00:00;1726963932;22/09/24;00:12:12;1.007;0.01;0.164;-0.07208210229873657;-0.015882495790719986;-0.009773843921720982
01:00:0A:00:00:00:00;1726963933;22/09/24;00:12:13;1.009;0.008;0.157;-0.07208210229873657;-0.009773843921720982;-0.0073303827084600925
01:00:0A:00:00:00:00;1726963934;22/09/24;00:12:14;1.007;0.006;0.164;-0.06963863223791122;-0.015882495790719986;-0.006108652334660292
01:00:0A:00:00:00:00;1726963935;22/09/24;00:12:15;1.008;0.009;0.158;-0.06841690838336945;-0.018325956538319588;-0.009773843921720982
01:00:0A:00:00:00:00;1726963936;22/09/24;00:12:16;1.006;0.006;0.163;-0.06841690838336945;-0.012217304669320583;-0.0036651913542300463
01:00:0A:00:00:00:00;1726963937;22/09/24;00:12:17;1.008;0.005;0.161;-0.0659734457731247;-0.014660765416920185;-0.009773843921720982
01:00:0A:00:00:00:00;1726963938;22/09/24;00:12:18;1.007;0.009;0.161;-0.0659734457731247;-0.013439035043120384;-0.0036651913542300463
01:00:0A:00:00:00:00;1726963939;22/09/24;00:12:19;1.007;0.006;0.16;-0.06475171446800232;-0.015882495790719986;-0.004886921960860491
01:00:0A:00:00:00:00;1726963940;22/09/24;00:12:20;1.007;0.01;0.164;-0.06352998316287994;-0.009773843921720982;-0.0073303827084600925
01:00:0A:00:00:00:00;1726963941;22/09/24;00:12:21;1.009;0.006;0.16;-0.06230825558304787;-0.015882495790719986;-0.004886921960860491
01:00:0A:00:00:00:00;1726963942;22/09/24;00:12:22;1.008;0.01;0.162;-0.059864792972803116;-0.00855211354792118;-0.0073303827084600925
01:00:0A:00:00:00:00;1726963943;22/09/24;00:12:23;1.008;0.007;0.161;-0.059864792972803116;-0.015882495790719986;-0.004886921960860491
01:00:0A:00:00:00:00;1726963944;22/09/24;00:12:24;1.007;0.008;0.162;-0.05864306166768074;-0.00855211354792118;-0.004886921960860491
01:00:0A:00:00:00:00;1726963945;22/09/24;00:12:25;1.006;0.01;0.162;-0.05742133408784866;-0.015882495790719986;-0.006108652334660292
01:00:0A:00:00:00:00;1726963946;22/09/24;00:12:26;1.007;0.006;0.162;-0.05742133408784866;-0.010995574295520782;-0.0012217304902151227
01:00:0A:00:00:00:00;1726963947;22/09/24;00:12:27;1.007;0.009;0.164;-0.05375614017248154;-0.014660765416920185;-0.00855211354792118
01:00:0A:00:00:00:00;1726963948;22/09/24;00:12:28;1.008;0.008;0.161;-0.05619959905743599;-0.009773843921720982;0.0
01:00:0A:00:00:00:00;1726963949;22/09/24;00:12:29;1.008;0.008;0.162;-0.05253440886735916;-0.009773843921720982;-0.0073303827084600925
01:00:0A:00:00:00:00;1726963950;22/09/24;00:12:30;1.008;0.012;0.162;-0.05253440886735916;-0.013439035043120384;-0.0036651913542300463
01:00:0A:00:00:00:00;1726963951;22/09/24;00:12:31;1.007;0.005;0.163;-0.051312677562236786;-0.013439035043120384;-0.004886921960860491
01:00:0A:00:00:00:00;1726963952;22/09/24;00:12:32;1.009;0.01;0.162;-0.04886921867728233;-0.012217304669320583;-0.0073303827084600925
01:00:0A:00:00:00:00;1726963953;22/09/24;00:12:33;1.006;0.005;0.162;-0.05009094998240471;-0.010995574295520782;0.0012217304902151227
01:00:0A:00:00:00:00;1726963954;22/09/24;00:12:34;1.007;0.011;0.162;-0.04886921867728233;-0.010995574295520782;-0.004886921960860491
01:00:0A:00:00:00:00;1726963955;22/09/24;00:12:35;1.007;0.008;0.163;-0.04886921867728233;-0.013439035043120384;-0.0036651913542300463
01:00:0A:00:00:00:00;1726963956;22/09/24;00:12:36;1.008;0.008;0.161;-0.04642575979232788;-0.015882495790719986;-0.009773843921720982
01:00:0A:00:00:00:00;1726963957;22/09/24;00:12:37;1.008;0.006;0.164;-0.04886921867728233;-0.0073303827084600925;0.0
01:00:0A:00:00:00:00;1726963958;22/09/24;00:12:38;1.007;0.009;0.161;-0.04642575979232788;-0.015882495790719986;-0.004886921960860491
01:00:0A:00:00:00:00;1726963959;22/09/24;00:12:39;1.007;0.009;0.162;-0.04764748737215996;-0.00855211354792118;0.0
01:00:0A:00:00:00:00;1726963960;22/09/24;00:12:40;1.008;0.008;0.161;-0.04398229718208313;-0.019547687843441963;-0.009773843921720982
01:00:0A:00:00:00:00;1726963961;22/09/24;00:12:41;1.009;0.009;0.162;-0.04642575979232788;-0.010995574295520782;0.0012217304902151227
01:00:0A:00:00:00:00;1726963962;22/09/24;00:12:42;1.008;0.007;0.163;-0.042760565876960754;-0.012217304669320583;-0.006108652334660292
01:00:0A:00:00:00:00;1726963963;22/09/24;00:12:43;1.007;0.009;0.161;-0.045204028487205505;-0.010995574295520782;0.0024434609804302454
01:00:0A:00:00:00:00;1726963964;22/09/24;00:12:44;1.005;0.009;0.162;-0.04153883829712868;-0.010995574295520782;-0.009773843921720982
01:00:0A:00:00:00:00;1726963965;22/09/24;00:12:45;1.008;0.009;0.162;-0.042760565876960754;-0.015882495790719986;0.0
01:00:0A:00:00:00:00;1726963966;22/09/24;00:12:46;1.01;0.006;0.163;-0.04153883829712868;-0.012217304669320583;-0.006108652334660292
01:00:0A:00:00:00:00;1726963967;22/09/24;00:12:47;1.007;0.011;0.163;-0.042760565876960754;-0.012217304669320583;0.0012217304902151227
01:00:0A:00:00:00:00;1726963968;22/09/24;00:12:48;1.005;0.007;0.162;-0.04153883829712868;-0.013439035043120384;-0.0036651913542300463
01:00:0A:00:00:00:00;1726963969;22/09/24;00:12:49;1.007;0.01;0.162;-0.040317103266716;-0.010995574295520782;-0.0036651913542300463
01:00:0A:00:00:00:00;1726963970;22/09/24;00:12:50;1.01;0.006;0.162;-0.040317103266716;-0.014660765416920185;-0.004886921960860491
01:00:0A:00:00:00:00;1726963971;22/09/24;00:12:51;1.009;0.01;0.163;-0.04153883829712868;-0.010995574295520782;-0.0012217304902151227
01:00:0A:00:00:00:00;1726963972;22/09/24;00:12:52;1.008;0.006;0.162;-0.040317103266716;-0.013439035043120384;-0.0024434609804302454
01:00:0A:00:00:00:00;1726963973;22/09/24;00:12:53;1.006;0.011;0.162;-0.039095375686883926;-0.012217304669320583;-0.004886921960860491
01:00:0A:00:00:00:00;1726963974;22/09/24;00:12:54;1.006;0.007;0.162;-0.040317103266716;-0.013439035043120384;-0.0012217304902151227
01:00:0A:00:00:00:00;1726963975;22/09/24;00:12:55;1.011;0.01;0.162;-0.039095375686883926;-0.013439035043120384;-0.004886921960860491
01:00:0A:00:00:00:00;1726963976;22/09/24;00:12:56;1.008;0.007;0.162;-0.040317103266716;-0.010995574295520782;-0.0012217304902151227
01:00:0A:00:00:00:00;1726963977;22/09/24;00:12:57;1.006;0.01;0.162;-0.039095375686883926;-0.012217304669320583;-0.006108652334660292
01:00:0A:00:00:00:00;1726963978;22/09/24;00:12:58;1.006;0.008;0.162;-0.040317103266716;-0.012217304669320583;0.0
01:00:0A:00:00:00:00;1726963979;22/09/24;00:12:59;1.008;0.009;0.164;-0.03787364438176155;-0.010995574295520782;-0.006108652334660292
01:00:0A:00:00:00:00;1726963980;22/09/24;00:13:00;1.01;0.01;0.163;-0.040317103266716;-0.013439035043120384;0.0
01:00:0A:00:00:00:00;1726963981;22/09/24;00:13:01;1.007;0.008;0.163;-0.03787364438176155;-0.0073303827084600925;-0.004886921960860491
01:00:0A:00:00:00:00;1726963982;22/09/24;00:13:02;1.006;0.008;0.162;-0.039095375686883926;-0.013439035043120384;-0.0024434609804302454
01:00:0A:00:00:00:00;1726963983;22/09/24;00:13:03;1.007;0.009;0.162;-0.039095375686883926;-0.010995574295520782;-0.0012217304902151227
01:00:0A:00:00:00:00;1726963984;22/09/24;00:13:04;1.009;0.009;0.163;-0.039095375686883926;-0.013439035043120384;-0.0012217304902151227
01:00:0A:00:00:00:00;1726963985;22/09/24;00:13:05;1.007;0.009;0.162;-0.03787364438176155;-0.009773843921720982;-0.0036651913542300463
01:00:0A:00:00:00:00;1726963986;22/09/24;00:13:06;1.006;0.009;0.163;-0.03787364438176155;-0.009773843921720982;-0.0012217304902151227
01:00:0A:00:00:00:00;1726963987;22/09/24;00:13:07;1.006;0.007;0.162;-0.03787364438176155;-0.014660765416920185;-0.0024434609804302454
01:00:0A:00:00:00:00;1726963988;22/09/24;00:13:08;1.008;0.01;0.164;-0.03787364438176155;-0.010995574295520782;-0.0012217304902151227
01:00:0A:00:00:00:00;1726963989;22/09/24;00:13:09;1.009;0.008;0.162;-0.036651913076639175;-0.015882495790719986;-0.0024434609804302454
01:00:0A:00:00:00:00;1726963990;22/09/24;00:13:10;1.007;0.01;0.164;-0.036651913076639175;-0.0073303827084600925;-0.0036651913542300463
01:00:0A:00:00:00:00;1726963991;22/09/24;00:13:11;1.005;0.008;0.162;-0.03787364438176155;-0.014660765416920185;-0.0012217304902151227
01:00:0A:00:00:00:00;1726963992;22/09/24;00:13:12;1.006;0.009;0.162;-0.036651913076639175;-0.010995574295520782;-0.0036651913542300463
01:00:0A:00:00:00:00;1726963993;22/09/24;00:13:13;1.007;0.008;0.162;-0.03787364438176155;-0.01710422709584236;0.0012217304902151227
01:00:0A:00:00:00:00;1726963994;22/09/24;00:13:14;1.008;0.009;0.163;-0.0354301817715168;-0.00855211354792118;-0.006108652334660292
01:00:0A:00:00:00:00;1726963995;22/09/24;00:13:15;1.008;0.009;0.162;-0.03787364438176155;-0.013439035043120384;-0.0012217304902151227
01:00:0A:00:00:00:00;1726963996;22/09/24;00:13:16;1.007;0.008;0.162;-0.036651913076639175;-0.009773843921720982;-0.004886921960860491
01:00:0A:00:00:00:00;1726963997;22/09/24;00:13:17;1.007;0.009;0.162;-0.036651913076639175;-0.018325956538319588;-0.0012217304902151227
01:00:0A:00:00:00:00;1726963998;22/09/24;00:13:18;1.009;0.008;0.162;-0.036651913076639175;-0.009773843921720982;-0.0012217304902151227
01:00:0A:00:00:00:00;1726963999;22/09/24;00:13:19;1.008;0.01;0.164;-0.036651913076639175;-0.014660765416920185;-0.0036651913542300463
01:00:0A:00:00:00:00;1726964000;22/09/24;00:13:20;1.009;0.008;0.161;-0.036651913076639175;-0.00855211354792118;-0.0012217304902151227
01:00:0A:00:00:00:00;1726964001;22/09/24;00:13:21;1.006;0.007;0.164;-0.0354301817715168;-0.014660765416920185;-0.0036651913542300463
01:00:0A:00:00:00:00;1726964002;22/09/24;00:13:22;1.008;0.009;0.161;-0.036651913076639175;-0.010995574295520782;-0.0012217304902151227
01:00:0A:00:00:00:00;1726964003;22/09/24;00:13:23;1.006;0.008;0.164;-0.036651913076639175;-0.013439035043120384;-0.0012217304902151227
01:00:0A:00:00:00:00;1726964004;22/09/24;00:13:24;1.008;0.008;0.161;-0.0354301817715168;-0.010995574295520782;-0.0036651913542300463
01:00:0A:00:00:00:00;1726964005;22/09/24;00:13:25;1.007;0.007;0.164;-0.036651913076639175;-0.012217304669320583;0.0
01:00:0A:00:00:00:00;1726964006;22/09/24;00:13:26;1.008;0.009;0.161;-0.0354301817715168;-0.012217304669320583;-0.004886921960860491
01:00:0A:00:00:00:00;1726964007;22/09/24;00:13:27;1.006;0.008;0.164;-0.036651913076639175;-0.010995574295520782;0.0
01:00:0A:00:00:00:00;1726964008;22/09/24;00:13:28;1.008;0.008;0.161;-0.0354301817715168;-0.013439035043120384;-0.0024434609804302454
01:00:0A:00:00:00:00;1726964009;22/09/24;00:13:29;1.007;0.008;0.162;-0.0354301817715168;-0.009773843921720982;-0.0024434609804302454
01:00:0A:00:00:00:00;1726964010;22/09/24;00:13:30;1.007;0.009;0.162;-0.0354301817715168;-0.014660765416920185;0.0
01:00:0A:00:00:00:00;1726964011;22/09/24;00:13:31;1.007;0.008;0.163;-0.03420845419168472;-0.00855211354792118;-0.0024434609804302454
01:00:0A:00:00:00:00;1726964012;22/09/24;00:13:32;1.008;0.01;0.162;-0.03420845419168472;-0.014660765416920185;-0.0012217304902151227
01:00:0A:00:00:00:00;1726964013;22/09/24;00:13:33;1.008;0.008;0.162;-0.03420845419168472;-0.009773843921720982;-0.0024434609804302454
01:00:0A:00:00:00:00;1726964014;22/09/24;00:13:34;1.008;0.008;0.162;-0.03298672288656235;-0.014660765416920185;-0.0024434609804302454
01:00:0A:00:00:00:00;1726964015;22/09/24;00:13:35;1.008;0.007;0.162;-0.03420845419168472;-0.010995574295520782;0.0
01:00:0A:00:00:00:00;1726964026;22/09/24;00:13:46;1.007;0.008;0.162;-0.030543262138962746;-0.009773843921720982;0.0
01:00:0A:00:00:00:00;1726964027;22/09/24;00:13:47;1.007;0.009;0.162;-0.02932153083384037;-0.015882495790719986;-0.0036651913542300463
01:00:0A:00:00:00:00;1726964028;22/09/24;00:13:48;1.009;0.007;0.162;-0.02932153083384037;-0.00855211354792118;0.0
01:00:0A:00:00:00:00;1726964029;22/09/24;00:13:49;1.008;0.008;0.163;-0.028099799528717995;-0.013439035043120384;-0.0024434609804302454
01:00:0A:00:00:00:00;1726964030;22/09/24;00:13:50;1.007;0.008;0.161;-0.02932153083384037;-0.00855211354792118;0.0012217304902151227
01:00:0A:00:00:00:00;1726964031;22/09/24;00:13:51;1.006;0.009;0.163;-0.02687807008624077;-0.013439035043120384;-0.004886921960860491
01:00:0A:00:00:00:00;1726964032;22/09/24;00:13:52;1.008;0.008;0.162;-0.02932153083384037;-0.012217304669320583;0.0012217304902151227
01:00:0A:00:00:00:00;1726964033;22/09/24;00:13:53;1.007;0.008;0.162;-0.02687807008624077;-0.010995574295520782;-0.004886921960860491
01:00:0A:00:00:00:00;1726964034;22/09/24;00:13:54;1.007;0.01;0.162;-0.02932153083384037;-0.012217304669320583;0.0024434609804302454
01:00:0A:00:00:00:00;1726964035;22/09/24;00:13:55;1.007;0.007;0.162;-0.028099799528717995;-0.010995574295520782;-0.0024434609804302454
01:00:0A:00:00:00:00;1726964036;22/09/24;00:13:56;1.007;0.01;0.163;-0.02932153083384037;-0.012217304669320583;0.0
01:00:0A:00:00:00:00;1726964037;22/09/24;00:13:57;1.009;0.006;0.162;-0.028099799528717995;-0.013439035043120384;-0.0024434609804302454
01:00:0A:00:00:00:00;1726964038;22/09/24;00:13:58;1.008;0.009;0.162;-0.02932153083384037;-0.010995574295520782;0.0
01:00:0A:00:00:00:00;1726964039;22/09/24;00:13:59;1.006;0.007;0.163;-0.02932153083384037;-0.013439035043120384;0.0
01:00:0A:00:00:00:00;1726964040;22/09/24;00:14:00;1.007;0.01;0.161;-0.02932153083384037;-0.010995574295520782;-0.0024434609804302454
01:00:0A:00:00:00:00;1726964041;22/09/24;00:14:01;1.007;0.006;0.164;-0.02932153083384037;-0.013439035043120384;-0.0012217304902151227
01:00:0A:00:00:00:00;1726964042;22/09/24;00:14:02;1.008;0.009;0.162;-0.02932153083384037;-0.010995574295520782;-0.0024434609804302454
01:00:0A:00:00:00:00;1726964043;22/09/24;00:14:03;1.008;0.007;0.163;-0.030543262138962746;-0.010995574295520782;0.0012217304902151227
01:00:0A:00:00:00:00;1726964044;22/09/24;00:14:04;1.006;0.01;0.163;-0.02932153083384037;-0.013439035043120384;-0.0024434609804302454
01:00:0A:00:00:00:00;1726964045;22/09/24;00:14:05;1.006;0.007;0.162;-0.030543262138962746;-0.010995574295520782;0.0
01:00:0A:00:00:00:00;1726964046;22/09/24;00:14:06;1.006;0.01;0.162;-0.02932153083384037;-0.013439035043120384;-0.004886921960860491
01:00:0A:00:00:00:00;1726964047;22/09/24;00:14:07;1.008;0.007;0.162;-0.03176499158143997;-0.010995574295520782;0.0012217304902151227
01:00:0A:00:00:00:00;1726964048;22/09/24;00:14:08;1.008;0.008;0.164;-0.02932153083384037;-0.010995574295520782;-0.0024434609804302454
01:00:0A:00:00:00:00;1726964049;22/09/24;00:14:09;1.007;0.009;0.162;-0.030543262138962746;-0.013439035043120384;0.0012217304902151227
01:00:0A:00:00:00:00;1726964050;22/09/24;00:14:10;1.007;0.008;0.162;-0.02932153083384037;-0.010995574295520782;-0.0036651913542300463
01:00:0A:00:00:00:00;1726964051;22/09/24;00:14:11;1.008;0.009;0.163;-0.030543262138962746;-0.013439035043120384;0.0
01:00:0A:00:00:00:00;1726964052;22/09/24;00:14:12;1.008;0.007;0.162;-0.02932153083384037;-0.010995574295520782;-0.0024434609804302454
01:00:0A:00:00:00:00;1726964053;22/09/24;00:14:13;1.007;0.01;0.164;-0.030543262138962746;-0.012217304669320583;0.0
01:00:0A:00:00:00:00;1726964054;22/09/24;00:14:14;1.007;0.007;0.162;-0.02932153083384037;-0.012217304669320583;-0.0024434609804302454
01:00:0A:00:00:00:00;1726964055;22/09/24;00:14:15;1.007;0.009;0.164;-0.030543262138962746;-0.010995574295520782;-0.0012217304902151227
01:00:0A:00:00:00:00;1726964056;22/09/24;00:14:16;1.007;0.007;0.162;-0.030543262138962746;-0.013439035043120384;-0.0012217304902151227
01:00:0A:00:00:00:00;1726964057;22/09/24;00:14:17;1.008;0.009;0.162;-0.02932153083384037;-0.009773843921720982;-0.0012217304902151227
01:00:0A:00:00:00:00;1726964058;22/09/24;00:14:18;1.006;0.007;0.163;-0.030543262138962746;-0.013439035043120384;0.0
01:00:0A:00:00:00:00;1726964059;22/09/24;00:14:19;1.007;0.01;0.162;-0.02932153083384037;-0.010995574295520782;-0.0036651913542300463
01:00:0A:00:00:00:00;1726964060;22/09/24;00:14:20;1.008;0.007;0.162;-0.02932153083384037;-0.013439035043120384;0.0
01:00:0A:00:00:00:00;1726964061;22/09/24;00:14:21;1.008;0.009;0.162;-0.028099799528717995;-0.010995574295520782;-0.0036651913542300463
01:00:0A:00:00:00:00;1726964062;22/09/24;00:14:22;1.008;0.007;0.162;-0.02932153083384037;-0.012217304669320583;0.0012217304902151227
01:00:0A:00:00:00:00;1726964063;22/09/24;00:14:23;1.007;0.009;0.164;-0.02687807008624077;-0.010995574295520782;-0.0036651913542300463
01:00:0A:00:00:00:00;1726964064;22/09/24;00:14:24;1.009;0.009;0.162;-0.028099799528717995;-0.013439035043120384;0.0
01:00:0A:00:00:00:00;1726964065;22/09/24;00:14:25;1.008;0.008;0.163;-0.02687807008624077;-0.009773843921720982;-0.0024434609804302454
01:00:0A:00:00:00:00;1726964066;22/09/24;00:14:26;1.008;0.009;0.162;-0.02687807008624077;-0.014660765416920185;0.0
01:00:0A:00:00:00:00;1726964067;22/09/24;00:14:27;1.006;0.014;0.174;0.0024434609804302454;0.02076941914856434;-0.014660765416920185
01:00:0A:00:00:00:00;1726964068;22/09/24;00:14:28;1.004;0.023;0.176;0.040317103266716;-0.03298672288656235;0.01710422709584236
01:00:0A:00:00:00:00;1726964069;22/09/24;00:14:29;1.01;0.0;0.148;0.05497787147760391;-0.018325956538319588;0.025656338781118393
01:00:0A:00:00:00:00;1726964070;22/09/24;00:14:30;1.006;0.007;0.167;0.05864306166768074;0.019547687843441963;-0.00855211354792118
01:00:0A:00:00:00:00;1726964071;22/09/24;00:14:31;1.005;0.019;0.171;0.04764748737215996;-0.02687807008624077;0.013439035043120384
01:00:0A:00:00:00:00;1726964072;22/09/24;00:14:32;1.008;0.001;0.153;0.04153883829712868;-0.013439035043120384;0.021991148591041565
01:00:0A:00:00:00:00;1726964073;22/09/24;00:14:33;1.006;0.007;0.166;0.04886921867728233;0.009773843921720982;-0.012217304669320583
01:00:0A:00:00:00:00;1726964074;22/09/24;00:14:34;1.006;0.018;0.167;0.0354301817715168;-0.028099799528717995;0.02076941914856434
01:00:0A:00:00:00:00;1726964075;22/09/24;00:14:35;1.008;0.0;0.155;0.03420845419168472;-0.009773843921720982;0.015882495790719986
01:00:0A:00:00:00:00;1726964076;22/09/24;00:14:36;1.006;0.013;0.168;0.040317103266716;0.0024434609804302454;-0.009773843921720982
01:00:0A:00:00:00:00;1726964077;22/09/24;00:14:37;1.007;0.012;0.164;0.028099799528717995;-0.025656338781118393;0.021991148591041565
01:00:0A:00:00:00:00;1726964078;22/09/24;00:14:38;1.008;0.0;0.157;0.02932153083384037;-0.0073303827084600925;0.0073303827084600925
01:00:0A:00:00:00:00;1726964079;22/09/24;00:14:39;1.007;0.012;0.168;0.03176499158143997;-0.0024434609804302454;-0.004886921960860491
01:00:0A:00:00:00:00;1726964080;22/09/24;00:14:40;1.008;0.012;0.164;0.02321287989616394;-0.02321287989616394;0.018325956538319588
01:00:0A:00:00:00:00;1726964081;22/09/24;00:14:41;1.007;0.001;0.159;0.025656338781118393;-0.0036651913542300463;0.004886921960860491
01:00:0A:00:00:00:00;1726964082;22/09/24;00:14:42;1.007;0.013;0.168;0.02687807008624077;-0.006108652334660292;-0.006108652334660292
01:00:0A:00:00:00:00;1726964083;22/09/24;00:14:43;1.008;0.009;0.161;0.01710422709584236;-0.02076941914856434;0.019547687843441963
01:00:0A:00:00:00:00;1726964084;22/09/24;00:14:44;1.008;0.002;0.162;0.021991148591041565;-0.0024434609804302454;0.0
01:00:0A:00:00:00:00;1726964085;22/09/24;00:14:45;1.007;0.015;0.166;0.019547687843441963;-0.012217304669320583;0.0
01:00:0A:00:00:00:00;1726964086;22/09/24;00:14:46;1.007;0.006;0.161;0.013439035043120384;-0.015882495790719986;0.014660765416920185
01:00:0A:00:00:00:00;1726964087;22/09/24;00:14:47;1.007;0.004;0.163;0.01710422709584236;-0.004886921960860491;0.0
01:00:0A:00:00:00:00;1726964088;22/09/24;00:14:48;1.007;0.013;0.164;0.015882495790719986;-0.013439035043120384;0.0012217304902151227
01:00:0A:00:00:00:00;1726964089;22/09/24;00:14:49;1.009;0.007;0.162;0.009773843921720982;-0.013439035043120384;0.014660765416920185
01:00:0A:00:00:00:00;1726964090;22/09/24;00:14:50;1.008;0.004;0.163;0.013439035043120384;-0.0073303827084600925;-0.0036651913542300463
01:00:0A:00:00:00:00;1726964091;22/09/24;00:14:51;1.008;0.013;0.165;0.009773843921720982;-0.012217304669320583;0.0024434609804302454
01:00:0A:00:00:00:00;1726964092;22/09/24;00:14:52;1.008;0.005;0.163;0.006108652334660292;-0.013439035043120384;0.010995574295520782
01:00:0A:00:00:00:00;1726964093;22/09/24;00:14:53;1.006;0.008;0.163;0.009773843921720982;-0.0073303827084600925;-0.0036651913542300463
01:00:0A:00:00:00:00;1726964094;22/09/24;00:14:54;1.004;0.015;0.171;-0.03787364438176155;0.00855211354792118;-0.010995574295520782
01:00:0A:00:00:00:00;1726964095;22/09/24;00:14:55;1.003;0.017;0.183;-0.09407324343919754;-0.01710422709584236;-0.010995574295520782
01:00:0A:00:00:00:00;1726964096;22/09/24;00:14:56;1.007;0.007;0.162;-0.13072516024112701;-0.04398229718208313;-0.0073303827084600925
01:00:0A:00:00:00:00;1726964097;22/09/24;00:14:57;1.008;0.007;0.153;-0.11728612333536148;0.004886921960860491;-0.01710422709584236
01:00:0A:00:00:00:00;1726964098;22/09/24;00:14:58;1.006;0.008;0.174;-0.11239919811487198;-0.0073303827084600925;-0.012217304669320583
01:00:0A:00:00:00:00;1726964099;22/09/24;00:14:59;1.008;0.008;0.158;-0.10506881773471832;-0.0354301817715168;-0.014660765416920185
01:00:0A:00:00:00:00;1726964100;22/09/24;00:15:00;1.008;0.01;0.157;-0.10384709388017654;0.0024434609804302454;-0.0073303827084600925
01:00:0A:00:00:00:00;1726964101;22/09/24;00:15:01;1.007;0.005;0.173;-0.09773843735456467;-0.012217304669320583;-0.010995574295520782
01:00:0A:00:00:00:00;1726964102;22/09/24;00:15:02;1.007;0.01;0.159;-0.09285151958465576;-0.03298672288656235;-0.015882495790719986
01:00:0A:00:00:00:00;1726964103;22/09/24;00:15:03;1.007;0.01;0.16;-0.09529497474431992;0.004886921960860491;-0.0036651913542300463
01:00:0A:00:00:00:00;1726964104;22/09/24;00:15:04;1.006;0.005;0.171;-0.08796459436416626;-0.01710422709584236;-0.010995574295520782
01:00:0A:00:00:00:00;1726964105;22/09/24;00:15:05;1.008;0.011;0.157;-0.08429940044879913;-0.024434609338641167;-0.015882495790719986
01:00:0A:00:00:00:00;1726964106;22/09/24;00:15:06;1.006;0.005;0.166;-0.10018189996480942;-0.0012217304902151227;-0.0012217304902151227
01:00:0A:00:00:00:00;1726964107;22/09/24;00:15:07;1.007;0.006;0.166;-0.09040805697441101;-0.02321287989616394;-0.019547687843441963
01:00:0A:00:00:00:00;1726964108;22/09/24;00:15:08;1.005;0.003;0.17;-0.06963863223791122;-0.015882495790719986;-0.006108652334660292
01:00:0A:00:00:00:00;1726964109;22/09/24;00:15:09;1.008;0.003;0.162;-0.07330382615327835;-0.02076941914856434;-0.010995574295520782
01:00:0A:00:00:00:00;1726964110;22/09/24;00:15:10;1.007;0.01;0.162;-0.07208210229873657;-0.009773843921720982;-0.014660765416920185
01:00:0A:00:00:00:00;1726964111;22/09/24;00:15:11;1.008;0.011;0.163;-0.07330382615327835;-0.013439035043120384;-0.0012217304902151227
01:00:0A:00:00:00:00;1726964112;22/09/24;00:15:12;1.007;0.004;0.162;-0.06963863223791122;-0.015882495790719986;-0.0073303827084600925
01:00:0A:00:00:00:00;1726964113;22/09/24;00:15:13;1.007;0.011;0.162;-0.0659734457731247;-0.010995574295520782;-0.010995574295520782
01:00:0A:00:00:00:00;1726964114;22/09/24;00:15:14;1.008;0.009;0.165;-0.0659734457731247;-0.012217304669320583;-0.0012217304902151227
