Source;Epoch timestamp (UTC);Date;Time (UTC);Accel X (G);Accel Y (G);Accel Z (G);Gyro X (rad/s);Gyro Y (rad/s);Gyro Z (rad/s)
01:00:0A:00:00:00:00;1726876790;20/09/24;23:59:50;0.988;0.01;0.165;-0.16371189057826996;0.01710422709584236;-0.03176499158143997
01:00:0A:00:00:00:00;1726876791;20/09/24;23:59:51;1.007;-0.009;0.159;-0.16249015927314758;-0.02687807008624077;-0.01710422709584236
01:00:0A:00:00:00:00;1726876792;20/09/24;23:59:52;1.023;-0.008;0.133;-0.15271630883216858;-0.021991148591041565;-0.02687807008624077
01:00:0A:00:00:00:00;1726876793;20/09/24;23:59:53;1.03;0.003;0.159;-0.15515977144241333;-0.030543262138962746;-0.00855211354792118
01:00:0A:00:00:00:00;1726876794;20/09/24;23:59:54;1.024;0.0;0.171;-0.15271630883216858;-0.05253440886735916;-0.014660765416920185
01:00:0A:00:00:00:00;1726876795;20/09/24;23:59:55;1.004;0.008;0.169;-0.15271630883216858;0.012217304669320583;-0.014660765416920185
01:00:0A:00:00:00:00;1726876796;20/09/24;23:59:56;1.002;0.008;0.174;-0.161268413066864;0.03176499158143997;0.02687807008624077
01:00:0A:00:00:00:00;1726876797;20/09/24;23:59:57;1.011;0.009;0.158;-0.14905111491680145;0.013439035043120384;0.0024434609804302454
01:00:0A:00:00:00:00;1726876798;20/09/24;23:59:58;1.009;0.027;0.151;-0.13805554807186127;-0.0036651913542300463;-0.03176499158143997
01:00:0A:00:00:00:00;1726876799;20/09/24;23:59:59;0.997;0.01;0.162;-0.13927726447582245;0.0;-0.012217304669320583
01:00:0A:00:00:00:00;1726876800;21/09/24;00:00:00;0.976;0.001;0.148;-0.12828169763088226;-0.004886921960860491;-0.039095375686883926
01:00:0A:00:00:00:00;1726876801;21/09/24;00:00:01;0.98;0.012;0.151;-0.12828169763088226;0.02321287989616394;-0.028099799528717995
01:00:0A:00:00:00:00;1726876802;21/09/24;00:00:02;1.016;0.005;0.161;-0.1258382350206375;-0.0354301817715168;-0.036651913076639175
01:00:0A:00:00:00:00;1726876803;21/09/24;00:00:03;1.035;0.0;0.15;-0.12339477241039276;-0.025656338781118393;-0.03787364438176155
01:00:0A:00:00:00:00;1726876804;21/09/24;00:00:04;1.034;-0.004;0.176;-0.12828169763088226;-0.0073303827084600925;-0.012217304669320583
01:00:0A:00:00:00:00;1726876805;21/09/24;00:00:05;1.008;0.0;0.162;-0.13316862285137177;-0.015882495790719986;0.009773843921720982
01:00:0A:00:00:00:00;1726876806;21/09/24;00:00:06;0.993;0.008;0.154;-0.12950342893600464;0.006108652334660292;-0.0024434609804302454
01:00:0A:00:00:00:00;1726876807;21/09/24;00:00:07;0.984;0.013;0.155;-0.1258382350206375;-0.015882495790719986;-0.02932153083384037
01:00:0A:00:00:00:00;1726876808;21/09/24;00:00:08;0.993;0.016;0.157;-0.12217304855585098;-0.03298672288656235;-0.05742133408784866
01:00:0A:00:00:00:00;1726876809;21/09/24;00:00:09;1.009;0.001;0.158;-0.1319468915462494;-0.018325956538319588;-0.039095375686883926
01:00:0A:00:00:00:00;1726876810;21/09/24;00:00:10;1.017;-0.007;0.167;-0.14538592100143433;-0.03298672288656235;-0.01710422709584236
01:00:0A:00:00:00:00;1726876811;21/09/24;00:00:11;1.025;0.0;0.162;-0.1563815027475357;-0.03176499158143997;0.0012217304902151227
01:00:0A:00:00:00:00;1726876812;21/09/24;00:00:12;1.022;0.016;0.163;-0.1661553531885147;-0.025656338781118393;0.0073303827084600925
01:00:0A:00:00:00:00;1726876813;21/09/24;00:00:13;1.005;0.008;0.166;-0.16493360698223114;-0.015882495790719986;-0.013439035043120384
01:00:0A:00:00:00:00;1726876814;21/09/24;00:00:14;0.998;0.004;0.156;-0.161268413066864;-0.015882495790719986;-0.040317103266716
01:00:0A:00:00:00:00;1726876815;21/09/24;00:00:15;1.001;0.0;0.159;-0.16982054710388184;-0.006108652334660292;-0.02076941914856434
01:00:0A:00:00:00:00;1726876816;21/09/24;00:00:16;1.011;-0.01;0.162;-0.1673770695924759;-0.028099799528717995;-0.01710422709584236
01:00:0A:00:00:00:00;1726876817;21/09/24;00:00:17;1.015;-0.001;0.161;-0.15882496535778046;-0.01710422709584236;-0.030543262138962746
01:00:0A:00:00:00:00;1726876818;21/09/24;00:00:18;1.011;0.0;0.163;-0.16493360698223114;-0.006108652334660292;0.0
01:00:0A:00:00:00:00;1726876819;21/09/24;00:00:19;1.012;-0.001;0.162;-0.16004669666290283;-0.02076941914856434;-0.009773843921720982
01:00:0A:00:00:00:00;1726876820;21/09/24;00:00:20;1.008;0.011;0.16;-0.15882496535778046;-0.014660765416920185;-0.021991148591041565
01:00:0A:00:00:00:00;1726876821;21/09/24;00:00:21;1.0;0.004;0.167;-0.161268413066864;-0.012217304669320583;-0.018325956538319588
01:00:0A:00:00:00:00;1726876822;21/09/24;00:00:22;0.997;-0.003;0.158;-0.15515977144241333;-0.006108652334660292;-0.03298672288656235
01:00:0A:00:00:00:00;1726876823;21/09/24;00:00:23;1.004;0.002;0.157;-0.1563815027475357;-0.0073303827084600925;-0.010995574295520782
01:00:0A:00:00:00:00;1726876824;21/09/24;00:00:24;1.01;0.004;0.162;-0.15515977144241333;-0.015882495790719986;-0.006108652334660292
01:00:0A:00:00:00:00;1726876825;21/09/24;00:00:25;1.021;0.003;0.16;-0.14905111491680145;-0.010995574295520782;-0.014660765416920185
01:00:0A:00:00:00:00;1726876826;21/09/24;00:00:26;1.022;0.008;0.17;-0.14782939851284027;-0.0036651913542300463;-0.010995574295520782
01:00:0A:00:00:00:00;1726876827;21/09/24;00:00:27;1.009;0.0;0.169;-0.1466076523065567;-0.004886921960860491;-0.009773843921720982
01:00:0A:00:00:00:00;1726876828;21/09/24;00:00:28;1.001;0.005;0.164;-0.14538592100143433;0.0024434609804302454;-0.0073303827084600925
01:00:0A:00:00:00:00;1726876829;21/09/24;00:00:29;0.992;0.013;0.16;-0.14538592100143433;0.010995574295520782;-0.010995574295520782
01:00:0A:00:00:00:00;1726876830;21/09/24;00:00:30;0.995;0.007;0.156;-0.14049901068210602;-0.013439035043120384;-0.02687807008624077
01:00:0A:00:00:00:00;1726876831;21/09/24;00:00:31;1.007;0.006;0.158;-0.13927726447582245;-0.006108652334660292;-0.02932153083384037
01:00:0A:00:00:00:00;1726876832;21/09/24;00:00:32;1.019;0.004;0.162;-0.13927726447582245;-0.025656338781118393;-0.028099799528717995
01:00:0A:00:00:00:00;1726876833;21/09/24;00:00:33;1.019;0.0;0.159;-0.13439035415649414;-0.039095375686883926;-0.03298672288656235
01:00:0A:00:00:00:00;1726876834;21/09/24;00:00:34;1.005;0.0;0.164;-0.13072516024112701;-0.02932153083384037;-0.0354301817715168
01:00:0A:00:00:00:00;1726876835;21/09/24;00:00:35;0.995;-0.005;0.167;-0.12950342893600464;-0.03176499158143997;-0.019547687843441963
01:00:0A:00:00:00:00;1726876836;21/09/24;00:00:36;0.997;-0.006;0.166;-0.1270599663257599;-0.013439035043120384;-0.010995574295520782
01:00:0A:00:00:00:00;1726876837;21/09/24;00:00:37;1.008;-0.001;0.163;-0.12339477241039276;-0.018325956538319588;0.0
01:00:0A:00:00:00:00;1726876838;21/09/24;00:00:38;1.023;0.0;0.169;-0.12217304855585098;-0.012217304669320583;0.004886921960860491
01:00:0A:00:00:00:00;1726876839;21/09/24;00:00:39;1.021;0.005;0.165;-0.1160643920302391;-0.0073303827084600925;-0.0036651913542300463
01:00:0A:00:00:00:00;1726876840;21/09/24;00:00:40;1.01;0.008;0.164;-0.11362093687057495;-0.006108652334660292;-0.0036651913542300463
01:00:0A:00:00:00:00;1726876841;21/09/24;00:00:41;0.995;0.007;0.162;-0.11239919811487198;-0.013439035043120384;-0.010995574295520782
01:00:0A:00:00:00:00;1726876842;21/09/24;00:00:42;0.997;0.006;0.161;-0.1062905490398407;-0.009773843921720982;-0.03298672288656235
01:00:0A:00:00:00:00;1726876843;21/09/24;00:00:43;1.005;0.0;0.16;-0.10873401165008545;-0.013439035043120384;-0.025656338781118393
01:00:0A:00:00:00:00;1726876844;21/09/24;00:00:44;1.009;-0.003;0.162;-0.1111774742603302;-0.004886921960860491;-0.010995574295520782
01:00:0A:00:00:00:00;1726876845;21/09/24;00:00:45;0.998;-0.004;0.157;-0.10995574295520782;-0.00855211354792118;-0.006108652334660292
01:00:0A:00:00:00:00;1726876846;21/09/24;00:00:46;0.987;0.001;0.157;-0.10995574295520782;-0.010995574295520782;-0.0024434609804302454
01:00:0A:00:00:00:00;1726876847;21/09/24;00:00:47;0.992;0.006;0.155;-0.10873401165008545;-0.0354301817715168;-0.0036651913542300463
01:00:0A:00:00:00:00;1726876848;21/09/24;00:00:48;1.019;0.001;0.161;-0.10262535512447357;-0.042760565876960754;-0.024434609338641167
01:00:0A:00:00:00:00;1726876849;21/09/24;00:00:49;1.031;0.003;0.168;-0.10262535512447357;-0.025656338781118393;-0.02687807008624077
01:00:0A:00:00:00:00;1726876850;21/09/24;00:00:50;1.034;-0.006;0.176;-0.1062905490398407;-0.010995574295520782;-0.010995574295520782
01:00:0A:00:00:00:00;1726876851;21/09/24;00:00:51;1.019;-0.001;0.164;-0.10751228034496307;0.0012217304902151227;0.0
01:00:0A:00:00:00:00;1726876852;21/09/24;00:00:52;0.987;0.005;0.16;-0.10995574295520782;0.012217304669320583;0.004886921960860491
01:00:0A:00:00:00:00;1726876853;21/09/24;00:00:53;0.979;0.002;0.161;-0.10873401165008545;-0.013439035043120384;-0.0012217304902151227
01:00:0A:00:00:00:00;1726876854;21/09/24;00:00:54;0.993;0.005;0.155;-0.1014036238193512;-0.0024434609804302454;-0.03176499158143997
01:00:0A:00:00:00:00;1726876855;21/09/24;00:00:55;1.01;0.004;0.162;-0.10506881773471832;-0.0073303827084600925;-0.015882495790719986
01:00:0A:00:00:00:00;1726876856;21/09/24;00:00:56;1.024;-0.009;0.161;-0.10506881773471832;-0.025656338781118393;-0.0073303827084600925
01:00:0A:00:00:00:00;1726876857;21/09/24;00:00:57;1.015;0.0;0.158;-0.10262535512447357;-0.02687807008624077;-0.009773843921720982
01:00:0A:00:00:00:00;1726876858;21/09/24;00:00:58;1.001;0.001;0.171;-0.10506881773471832;-0.018325956538319588;-0.006108652334660292
01:00:0A:00:00:00:00;1726876859;21/09/24;00:00:59;0.998;-0.001;0.166;-0.1014036238193512;-0.03298672288656235;-0.028099799528717995
01:00:0A:00:00:00:00;1726876860;21/09/24;00:01:00;1.005;0.002;0.156;-0.1062905490398407;-0.012217304669320583;-0.014660765416920185
01:00:0A:00:00:00:00;1726876861;21/09/24;00:01:01;1.021;-0.002;0.161;-0.11362093687057495;-0.004886921960860491;0.013439035043120384
01:00:0A:00:00:00:00;1726876862;21/09/24;00:01:02;1.027;-0.001;0.162;-0.10873401165008545;-0.014660765416920185;-0.004886921960860491
01:00:0A:00:00:00:00;1726876863;21/09/24;00:01:03;1.015;0.014;0.156;-0.10873401165008545;0.0012217304902151227;-0.004886921960860491
01:00:0A:00:00:00:00;1726876864;21/09/24;00:01:04;1.0;0.005;0.162;-0.10873401165008545;0.00855211354792118;0.00855211354792118
01:00:0A:00:00:00:00;1726876865;21/09/24;00:01:05;0.986;0.005;0.154;-0.09162978082895279;0.0012217304902151227;-0.03420845419168472
01:00:0A:00:00:00:00;1726876866;21/09/24;00:01:06;0.997;0.009;0.151;-0.08796459436416626;-0.01710422709584236;-0.021991148591041565
01:00:0A:00:00:00:00;1726876867;21/09/24;00:01:07;1.005;-0.001;0.157;-0.08185594528913498;-0.021991148591041565;-0.010995574295520782
01:00:0A:00:00:00:00;1726876868;21/09/24;00:01:08;1.015;-0.006;0.162;-0.0708603635430336;-0.021991148591041565;-0.02076941914856434
01:00:0A:00:00:00:00;1726876869;21/09/24;00:01:09;1.015;0.004;0.164;-0.06963863223791122;-0.015882495790719986;-0.009773843921720982
01:00:0A:00:00:00:00;1726876870;21/09/24;00:01:10;1.02;-0.001;0.162;-0.06963863223791122;-0.015882495790719986;-0.0036651913542300463
01:00:0A:00:00:00:00;1726876871;21/09/24;00:01:11;1.019;-0.005;0.167;-0.06108652427792549;-0.025656338781118393;-0.021991148591041565
01:00:0A:00:00:00:00;1726876872;21/09/24;00:01:12;1.015;-0.002;0.17;-0.06475171446800232;-0.024434609338641167;-0.006108652334660292
01:00:0A:00:00:00:00;1726876873;21/09/24;00:01:13;1.004;-0.008;0.174;-0.06719517707824707;-0.010995574295520782;0.013439035043120384
01:00:0A:00:00:00:00;1726876874;21/09/24;00:01:14;1.002;0.0;0.165;-0.06230825558304787;0.0024434609804302454;-0.010995574295520782
01:00:0A:00:00:00:00;1726876875;21/09/24;00:01:15;1.0;0.007;0.161;-0.06963863223791122;0.019547687843441963;0.013439035043120384
01:00:0A:00:00:00:00;1726876876;21/09/24;00:01:16;1.004;0.004;0.159;-0.06841690838336945;-0.0036651913542300463;0.0036651913542300463
01:00:0A:00:00:00:00;1726876877;21/09/24;00:01:17;1.006;0.014;0.153;-0.06108652427792549;-0.018325956538319588;-0.028099799528717995
01:00:0A:00:00:00:00;1726876878;21/09/24;00:01:18;1.002;0.013;0.162;-0.0659734457731247;-0.02076941914856434;-0.014660765416920185
01:00:0A:00:00:00:00;1726876879;21/09/24;00:01:19;1.004;-0.001;0.166;-0.06475171446800232;-0.036651913076639175;-0.01710422709584236
01:00:0A:00:00:00:00;1726876880;21/09/24;00:01:20;1.01;0.0;0.162;-0.06230825558304787;-0.01710422709584236;-0.02076941914856434
01:00:0A:00:00:00:00;1726876881;21/09/24;00:01:21;1.014;0.001;0.167;-0.0659734457731247;-0.009773843921720982;-0.0036651913542300463
01:00:0A:00:00:00:00;1726876882;21/09/24;00:01:22;1.016;-0.002;0.152;-0.06352998316287994;-0.014660765416920185;-0.0036651913542300463
01:00:0A:00:00:00:00;1726876883;21/09/24;00:01:23;1.012;0.003;0.154;-0.05742133408784866;-0.0036651913542300463;-0.012217304669320583
01:00:0A:00:00:00:00;1726876884;21/09/24;00:01:24;0.999;0.002;0.165;-0.05619959905743599;-0.021991148591041565;0.0012217304902151227
01:00:0A:00:00:00:00;1726876885;21/09/24;00:01:25;0.998;0.0;0.159;-0.05253440886735916;-0.030543262138962746;0.0
01:00:0A:00:00:00:00;1726876886;21/09/24;00:01:26;1.001;0.007;0.162;-0.05009094998240471;0.0;0.0024434609804302454
01:00:0A:00:00:00:00;1726876887;21/09/24;00:01:27;1.006;0.005;0.17;-0.05009094998240471;-0.01710422709584236;0.004886921960860491
01:00:0A:00:00:00:00;1726876888;21/09/24;00:01:28;1.013;0.005;0.162;-0.045204028487205505;-0.018325956538319588;-0.013439035043120384
01:00:0A:00:00:00:00;1726876889;21/09/24;00:01:29;1.01;0.007;0.167;-0.04642575979232788;0.012217304669320583;-0.009773843921720982
01:00:0A:00:00:00:00;1726876890;21/09/24;00:01:30;1.003;-0.001;0.165;-0.04764748737215996;-0.00855211354792118;-0.00855211354792118
01:00:0A:00:00:00:00;1726876891;21/09/24;00:01:31;1.003;-0.002;0.157;-0.04642575979232788;-0.01710422709584236;-0.006108652334660292
01:00:0A:00:00:00:00;1726876892;21/09/24;00:01:32;1.011;0.0;0.16;-0.04886921867728233;-0.0024434609804302454;0.006108652334660292
01:00:0A:00:00:00:00;1726876893;21/09/24;00:01:33;1.025;0.0;0.172;-0.04642575979232788;-0.02321287989616394;0.0024434609804302454
01:00:0A:00:00:00:00;1726876894;21/09/24;00:01:34;1.029;0.006;0.158;-0.04398229718208313;-0.018325956538319588;-0.0012217304902151227
01:00:0A:00:00:00:00;1726876895;21/09/24;00:01:35;1.009;0.004;0.162;-0.04398229718208313;0.0036651913542300463;0.0012217304902151227
01:00:0A:00:00:00:00;1726876896;21/09/24;00:01:36;0.997;0.0;0.159;-0.04153883829712868;-0.01710422709584236;-0.0036651913542300463
01:00:0A:00:00:00:00;1726876897;21/09/24;00:01:37;0.988;0.002;0.153;-0.036651913076639175;-0.028099799528717995;-0.014660765416920185
01:00:0A:00:00:00:00;1726876898;21/09/24;00:01:38;0.995;0.0;0.163;-0.036651913076639175;-0.015882495790719986;-0.0036651913542300463
01:00:0A:00:00:00:00;1726876899;21/09/24;00:01:39;1.013;-0.002;0.172;-0.03298672288656235;-0.025656338781118393;-0.006108652334660292
01:00:0A:00:00:00:00;1726876900;21/09/24;00:01:40;1.022;0.003;0.162;-0.030543262138962746;-0.010995574295520782;-0.004886921960860491
01:00:0A:00:00:00:00;1726876901;21/09/24;00:01:41;1.015;0.0;0.165;-0.030543262138962746;0.0073303827084600925;0.0073303827084600925
01:00:0A:00:00:00:00;1726876902;21/09/24;00:01:42;1.001;0.0;0.16;-0.025656338781118393;-0.012217304669320583;0.0
01:00:0A:00:00:00:00;1726876903;21/09/24;00:01:43;0.999;0.002;0.154;-0.02321287989616394;-0.01710422709584236;0.0
01:00:0A:00:00:00:00;1726876904;21/09/24;00:01:44;1.005;0.004;0.16;-0.021991148591041565;-0.010995574295520782;0.0073303827084600925
01:00:0A:00:00:00:00;1726876905;21/09/24;00:01:45;1.011;0.0;0.163;-0.015882495790719986;-0.021991148591041565;-0.0036651913542300463
01:00:0A:00:00:00:00;1726876906;21/09/24;00:01:46;1.012;0.006;0.157;-0.012217304669320583;-0.02076941914856434;-0.010995574295520782
01:00:0A:00:00:00:00;1726876907;21/09/24;00:01:47;1.007;-0.001;0.162;-0.012217304669320583;-0.014660765416920185;-0.006108652334660292
01:00:0A:00:00:00:00;1726876908;21/09/24;00:01:48;1.008;-0.008;0.166;-0.010995574295520782;-0.014660765416920185;0.0012217304902151227
01:00:0A:00:00:00:00;1726876909;21/09/24;00:01:49;1.017;0.0;0.161;-0.010995574295520782;-0.009773843921720982;0.013439035043120384
01:00:0A:00:00:00:00;1726876910;21/09/24;00:01:50;1.019;0.001;0.166;-0.012217304669320583;0.0012217304902151227;0.018325956538319588
01:00:0A:00:00:00:00;1726876911;21/09/24;00:01:51;1.011;0.003;0.162;-0.0073303827084600925;0.0036651913542300463;0.004886921960860491
01:00:0A:00:00:00:00;1726876912;21/09/24;00:01:52;1.0;0.009;0.151;-0.004886921960860491;0.0;-0.0036651913542300463
01:00:0A:00:00:00:00;1726876913;21/09/24;00:01:53;0.989;0.004;0.149;-0.0036651913542300463;-0.013439035043120384;-0.0073303827084600925
01:00:0A:00:00:00:00;1726876914;21/09/24;00:01:54;0.994;0.001;0.152;-0.0036651913542300463;-0.03298672288656235;-0.010995574295520782
01:00:0A:00:00:00:00;1726876915;21/09/24;00:01:55;1.016;0.0;0.16;-0.0073303827084600925;-0.030543262138962746;0.00855211354792118
01:00:0A:00:00:00:00;1726876916;21/09/24;00:01:56;1.024;0.003;0.17;-0.0073303827084600925;-0.015882495790719986;0.006108652334660292
01:00:0A:00:00:00:00;1726876916;21/09/24;00:01:56;1.023;0.003;0.169;-0.004886921960860491;-0.0073303827084600925;-0.004886921960860491
01:00:0A:00:00:00:00;1726876917;21/09/24;00:01:57;1.003;0.0;0.161;-0.004886921960860491;0.006108652334660292;-0.004886921960860491
01:00:0A:00:00:00:00;1726876918;21/09/24;00:01:58;0.991;-0.003;0.157;-0.004886921960860491;0.004886921960860491;0.0
01:00:0A:00:00:00:00;1726876919;21/09/24;00:01:59;0.989;-0.002;0.156;-0.0036651913542300463;-0.01710422709584236;0.0024434609804302454
01:00:0A:00:00:00:00;1726876920;21/09/24;00:02:00;1.001;0.001;0.158;-0.0036651913542300463;-0.019547687843441963;0.00855211354792118
01:00:0A:00:00:00:00;1726876921;21/09/24;00:02:01;1.016;0.003;0.165;-0.0024434609804302454;-0.015882495790719986;0.004886921960860491
01:00:0A:00:00:00:00;1726876922;21/09/24;00:02:02;1.018;0.004;0.166;0.0012217304902151227;-0.00855211354792118;-0.0036651913542300463
01:00:0A:00:00:00:00;1726876923;21/09/24;00:02:03;1.019;0.002;0.16;0.0012217304902151227;-0.0012217304902151227;0.0
01:00:0A:00:00:00:00;1726876924;21/09/24;00:02:04;1.012;0.0;0.157;0.0;-0.009773843921720982;0.0073303827084600925
01:00:0A:00:00:00:00;1726876925;21/09/24;00:02:05;1.008;0.0;0.158;0.0012217304902151227;-0.025656338781118393;0.010995574295520782
01:00:0A:00:00:00:00;1726876926;21/09/24;00:02:06;1.008;0.007;0.165;0.0024434609804302454;-0.019547687843441963;0.00855211354792118
01:00:0A:00:00:00:00;1726876927;21/09/24;00:02:07;1.007;0.009;0.169;0.004886921960860491;-0.004886921960860491;0.0
01:00:0A:00:00:00:00;1726876928;21/09/24;00:02:08;1.003;0.003;0.163;0.009773843921720982;0.00855211354792118;-0.01710422709584236
01:00:0A:00:00:00:00;1726876929;21/09/24;00:02:09;1.005;0.001;0.158;0.010995574295520782;0.006108652334660292;-0.015882495790719986
01:00:0A:00:00:00:00;1726876930;21/09/24;00:02:10;1.004;-0.005;0.152;0.009773843921720982;-0.006108652334660292;0.0024434609804302454
01:00:0A:00:00:00:00;1726876931;21/09/24;00:02:11;1.005;-0.004;0.151;0.00855211354792118;-0.03176499158143997;0.015882495790719986
01:00:0A:00:00:00:00;1726876932;21/09/24;00:02:12;1.009;0.003;0.162;0.00855211354792118;-0.039095375686883926;0.02076941914856434
01:00:0A:00:00:00:00;1726876933;21/09/24;00:02:13;1.012;0.009;0.172;0.009773843921720982;-0.010995574295520782;0.012217304669320583
01:00:0A:00:00:00:00;1726876934;21/09/24;00:02:14;1.01;0.009;0.172;0.012217304669320583;0.006108652334660292;0.0
01:00:0A:00:00:00:00;1726876935;21/09/24;00:02:15;1.008;0.003;0.159;0.012217304669320583;0.012217304669320583;-0.009773843921720982
01:00:0A:00:00:00:00;1726876936;21/09/24;00:02:16;1.007;0.001;0.156;0.009773843921720982;0.0012217304902151227;-0.0036651913542300463
01:00:0A:00:00:00:00;1726876937;21/09/24;00:02:17;1.011;0.0;0.156;0.00855211354792118;-0.018325956538319588;0.0036651913542300463
01:00:0A:00:00:00:00;1726876938;21/09/24;00:02:18;1.011;0.001;0.16;0.006108652334660292;-0.025656338781118393;0.00855211354792118
01:00:0A:00:00:00:00;1726876939;21/09/24;00:02:19;1.012;0.004;0.166;0.004886921960860491;-0.012217304669320583;0.004886921960860491
01:00:0A:00:00:00:00;1726876940;21/09/24;00:02:20;1.011;0.002;0.164;0.004886921960860491;-0.0036651913542300463;0.0
01:00:0A:00:00:00:00;1726876941;21/09/24;00:02:21;1.006;0.0;0.156;0.0024434609804302454;-0.0073303827084600925;0.0024434609804302454
01:00:0A:00:00:00:00;1726876942;21/09/24;00:02:22;1.003;0.0;0.156;0.0;-0.021991148591041565;0.012217304669320583
01:00:0A:00:00:00:00;1726876943;21/09/24;00:02:23;1.002;0.001;0.16;0.0;-0.02932153083384037;0.012217304669320583
01:00:0A:00:00:00:00;1726876944;21/09/24;00:02:24;1.005;0.005;0.165;0.0012217304902151227;-0.02321287989616394;0.0036651913542300463
01:00:0A:00:00:00:00;1726876945;21/09/24;00:02:25;1.008;0.006;0.169;0.0024434609804302454;-0.00855211354792118;0.0
01:00:0A:00:00:00:00;1726876946;21/09/24;00:02:26;1.016;0.001;0.164;0.0036651913542300463;0.0073303827084600925;-0.00855211354792118
01:00:0A:00:00:00:00;1726876947;21/09/24;00:02:27;1.017;0.0;0.158;0.0036651913542300463;0.009773843921720982;-0.0073303827084600925
01:00:0A:00:00:00:00;1726876948;21/09/24;00:02:28;1.011;-0.004;0.152;0.0024434609804302454;-0.00855211354792118;0.006108652334660292
01:00:0A:00:00:00:00;1726876949;21/09/24;00:02:29;1.0;0.0;0.158;0.0024434609804302454;-0.02321287989616394;0.010995574295520782
01:00:0A:00:00:00:00;1726876950;21/09/24;00:02:30;0.994;0.002;0.161;0.0024434609804302454;-0.02076941914856434;0.009773843921720982
01:00:0A:00:00:00:00;1726876951;21/09/24;00:02:31;0.995;0.004;0.162;0.0024434609804302454;-0.015882495790719986;0.0073303827084600925
01:00:0A:00:00:00:00;1726876952;21/09/24;00:02:32;1.004;0.004;0.162;0.006108652334660292;-0.014660765416920185;-0.0012217304902151227
01:00:0A:00:00:00:00;1726876953;21/09/24;00:02:33;1.02;0.002;0.166;0.004886921960860491;-0.015882495790719986;0.0012217304902151227
01:00:0A:00:00:00:00;1726876954;21/09/24;00:02:34;1.024;0.0;0.165;0.004886921960860491;-0.009773843921720982;0.004886921960860491
01:00:0A:00:00:00:00;1726876955;21/09/24;00:02:35;1.017;0.003;0.167;0.006108652334660292;-0.00855211354792118;0.0036651913542300463
01:00:0A:00:00:00:00;1726876956;21/09/24;00:02:36;1.011;0.004;0.166;0.006108652334660292;-0.0073303827084600925;0.0024434609804302454
01:00:0A:00:00:00:00;1726876957;21/09/24;00:02:37;0.999;0.0;0.159;0.0073303827084600925;-0.0012217304902151227;0.0024434609804302454
01:00:0A:00:00:00:00;1726876958;21/09/24;00:02:38;0.995;0.001;0.156;0.00855211354792118;-0.004886921960860491;0.0036651913542300463
01:00:0A:00:00:00:00;1726876959;21/09/24;00:02:39;0.996;0.002;0.158;0.00855211354792118;-0.014660765416920185;0.0073303827084600925
01:00:0A:00:00:00:00;1726876960;21/09/24;00:02:40;0.998;0.004;0.156;0.009773843921720982;-0.021991148591041565;0.006108652334660292
01:00:0A:00:00:00:00;1726876961;21/09/24;00:02:41;1.001;0.002;0.158;0.010995574295520782;-0.018325956538319588;0.0024434609804302454
01:00:0A:00:00:00:00;1726876962;21/09/24;00:02:42;1.012;0.001;0.17;0.019547687843441963;-0.05375614017248154;-0.0012217304902151227
01:00:0A:00:00:00:00;1726876963;21/09/24;00:02:43;1.017;0.017;0.104;0.02932153083384037;0.06475171446800232;0.03176499158143997
01:00:0A:00:00:00:00;1726876964;21/09/24;00:02:44;1.023;0.0;0.156;0.2638937830924988;0.06475171446800232;0.04153883829712868
01:00:0A:00:00:00:00;1726876965;21/09/24;00:02:45;1.017;0.01;0.202;0.23090705275535583;-0.028099799528717995;0.04398229718208313
01:00:0A:00:00:00:00;1726876966;21/09/24;00:02:46;1.009;-0.011;0.137;0.21135938167572021;-0.05619959905743599;0.059864792972803116
01:00:0A:00:00:00:00;1726876967;21/09/24;00:02:47;0.985;-0.016;0.196;0.02321287989616394;-0.019547687843441963;-0.06475171446800232
01:00:0A:00:00:00:00;1726876968;21/09/24;00:02:48;0.992;0.02;0.159;-0.06475171446800232;-0.045204028487205505;0.009773843921720982
01:00:0A:00:00:00:00;1726876969;21/09/24;00:02:49;1.011;-0.006;0.147;-0.06230825558304787;0.0;0.021991148591041565
01:00:0A:00:00:00:00;1726876970;21/09/24;00:02:50;1.015;-0.005;0.174;-0.04153883829712868;-0.0036651913542300463;-0.0354301817715168
01:00:0A:00:00:00:00;1726876971;21/09/24;00:02:51;1.017;0.022;0.164;-0.05253440886735916;-0.036651913076639175;-0.0012217304902151227
01:00:0A:00:00:00:00;1726876972;21/09/24;00:02:52;1.014;-0.01;0.148;-0.05375614017248154;-0.0012217304902151227;0.01710422709584236
01:00:0A:00:00:00:00;1726876973;21/09/24;00:02:53;1.004;-0.001;0.167;-0.03787364438176155;0.00855211354792118;-0.0354301817715168
01:00:0A:00:00:00:00;1726876974;21/09/24;00:02:54;1.007;0.009;0.158;-0.05009094998240471;-0.040317103266716;0.013439035043120384
01:00:0A:00:00:00:00;1726876975;21/09/24;00:02:55;1.015;-0.007;0.151;-0.04886921867728233;-0.0073303827084600925;0.018325956538319588
01:00:0A:00:00:00:00;1726876976;21/09/24;00:02:56;1.015;0.007;0.175;-0.036651913076639175;-0.0012217304902151227;-0.02076941914856434
01:00:0A:00:00:00:00;1726876977;21/09/24;00:02:57;1.009;0.013;0.162;-0.042760565876960754;-0.024434609338641167;0.0
01:00:0A:00:00:00:00;1726876978;21/09/24;00:02:58;0.995;-0.004;0.151;-0.040317103266716;0.00855211354792118;0.0024434609804302454
01:00:0A:00:00:00:00;1726876979;21/09/24;00:02:59;0.99;0.0;0.162;-0.02932153083384037;-0.0024434609804302454;-0.025656338781118393
01:00:0A:00:00:00:00;1726876980;21/09/24;00:03:00;1.004;0.005;0.156;-0.039095375686883926;-0.042760565876960754;0.014660765416920185
01:00:0A:00:00:00:00;1726876981;21/09/24;00:03:01;1.015;-0.006;0.155;-0.03420845419168472;-0.015882495790719986;0.0036651913542300463
01:00:0A:00:00:00:00;1726876982;21/09/24;00:03:02;1.022;0.008;0.178;-0.02932153083384037;-0.00855211354792118;-0.0073303827084600925
01:00:0A:00:00:00:00;1726876983;21/09/24;00:03:03;1.021;0.008;0.163;-0.03298672288656235;-0.014660765416920185;0.006108652334660292
01:00:0A:00:00:00:00;1726876984;21/09/24;00:03:04;1.009;-0.003;0.157;-0.028099799528717995;0.014660765416920185;-0.0024434609804302454
01:00:0A:00:00:00:00;1726876985;21/09/24;00:03:05;0.998;0.001;0.16;-0.024434609338641167;-0.0073303827084600925;-0.009773843921720982
01:00:0A:00:00:00:00;1726876986;21/09/24;00:03:06;1.0;0.002;0.155;-0.028099799528717995;-0.02932153083384037;0.0073303827084600925
01:00:0A:00:00:00:00;1726876987;21/09/24;00:03:07;1.006;0.0;0.16;-0.024434609338641167;-0.013439035043120384;0.0
01:00:0A:00:00:00:00;1726876988;21/09/24;00:03:08;1.006;0.005;0.171;-0.02321287989616394;-0.019547687843441963;-0.006108652334660292
01:00:0A:00:00:00:00;1726876989;21/09/24;00:03:09;1.011;0.002;0.162;-0.025656338781118393;-0.0036651913542300463;0.0036651913542300463
01:00:0A:00:00:00:00;1726876990;21/09/24;00:03:10;1.007;-0.001;0.159;-0.02321287989616394;0.012217304669320583;0.0
01:00:0A:00:00:00:00;1726876991;21/09/24;00:03:11;1.003;0.002;0.157;-0.02321287989616394;-0.01710422709584236;0.0012217304902151227
01:00:0A:00:00:00:00;1726876992;21/09/24;00:03:12;1.005;0.002;0.151;-0.024434609338641167;-0.03176499158143997;0.010995574295520782
01:00:0A:00:00:00:00;1726876993;21/09/24;00:03:13;1.01;0.001;0.164;-0.02076941914856434;-0.018325956538319588;-0.0024434609804302454
01:00:0A:00:00:00:00;1726876994;21/09/24;00:03:14;1.014;0.005;0.171;-0.02076941914856434;-0.010995574295520782;-0.0036651913542300463
01:00:0A:00:00:00:00;1726876995;21/09/24;00:03:15;1.014;0.003;0.164;-0.021991148591041565;0.0;0.0
01:00:0A:00:00:00:00;1726876996;21/09/24;00:03:16;1.011;0.0;0.158;-0.019547687843441963;0.013439035043120384;-0.0073303827084600925
01:00:0A:00:00:00:00;1726876997;21/09/24;00:03:17;1.009;0.001;0.157;-0.02076941914856434;-0.0073303827084600925;-0.0012217304902151227
01:00:0A:00:00:00:00;1726876998;21/09/24;00:03:18;1.004;0.0;0.154;-0.021991148591041565;-0.021991148591041565;0.004886921960860491
01:00:0A:00:00:00:00;1726876999;21/09/24;00:03:19;1.002;0.001;0.161;-0.02076941914856434;-0.015882495790719986;0.0
01:00:0A:00:00:00:00;1726877000;21/09/24;00:03:20;1.004;0.002;0.164;-0.021991148591041565;-0.01710422709584236;0.0024434609804302454
01:00:0A:00:00:00:00;1726877001;21/09/24;00:03:21;1.006;0.0;0.16;-0.021991148591041565;-0.009773843921720982;0.004886921960860491
01:00:0A:00:00:00:00;1726877002;21/09/24;00:03:22;1.007;0.004;0.162;-0.02076941914856434;-0.004886921960860491;0.0012217304902151227
01:00:0A:00:00:00:00;1726877003;21/09/24;00:03:23;1.009;0.004;0.162;-0.02076941914856434;-0.019547687843441963;0.0
01:00:0A:00:00:00:00;1726877004;21/09/24;00:03:24;1.012;0.0;0.16;-0.02076941914856434;-0.01710422709584236;-0.0012217304902151227
01:00:0A:00:00:00:00;1726877005;21/09/24;00:03:25;1.011;0.002;0.165;-0.019547687843441963;-0.009773843921720982;-0.0012217304902151227
01:00:0A:00:00:00:00;1726877006;21/09/24;00:03:26;1.01;0.0;0.165;-0.02076941914856434;-0.00855211354792118;0.0073303827084600925
01:00:0A:00:00:00:00;1726877007;21/09/24;00:03:27;1.008;0.003;0.159;-0.019547687843441963;-0.0024434609804302454;0.004886921960860491
01:00:0A:00:00:00:00;1726877008;21/09/24;00:03:28;1.007;0.004;0.16;-0.018325956538319588;-0.004886921960860491;0.0036651913542300463
01:00:0A:00:00:00:00;1726877009;21/09/24;00:03:29;1.005;0.004;0.157;-0.01710422709584236;-0.019547687843441963;-0.0012217304902151227
01:00:0A:00:00:00:00;1726877010;21/09/24;00:03:30;1.006;0.002;0.16;-0.015882495790719986;-0.015882495790719986;-0.004886921960860491
01:00:0A:00:00:00:00;1726877011;21/09/24;00:03:31;1.004;0.003;0.163;-0.015882495790719986;-0.013439035043120384;-0.0024434609804302454
01:00:0A:00:00:00:00;1726877012;21/09/24;00:03:32;1.007;0.001;0.162;-0.014660765416920185;-0.009773843921720982;0.0
01:00:0A:00:00:00:00;1726877013;21/09/24;00:03:33;1.011;0.0;0.16;-0.014660765416920185;-0.0036651913542300463;0.0
01:00:0A:00:00:00:00;1726877014;21/09/24;00:03:34;1.012;0.003;0.161;-0.014660765416920185;-0.013439035043120384;0.0036651913542300463
01:00:0A:00:00:00:00;1726877015;21/09/24;00:03:35;1.011;0.0;0.16;-0.014660765416920185;-0.01710422709584236;0.0036651913542300463
01:00:0A:00:00:00:00;1726877016;21/09/24;00:03:36;1.009;0.001;0.162;-0.012217304669320583;-0.010995574295520782;0.0012217304902151227
01:00:0A:00:00:00:00;1726877017;21/09/24;00:03:37;1.009;0.0;0.163;-0.013439035043120384;-0.010995574295520782;0.0073303827084600925
01:00:0A:00:00:00:00;1726877018;21/09/24;00:03:38;1.008;0.003;0.16;-0.014660765416920185;-0.009773843921720982;0.010995574295520782
01:00:0A:00:00:00:00;1726877019;21/09/24;00:03:39;1.007;0.005;0.158;-0.010995574295520782;-0.004886921960860491;-0.0036651913542300463
01:00:0A:00:00:00:00;1726877020;21/09/24;00:03:40;1.005;0.006;0.158;-0.010995574295520782;-0.014660765416920185;-0.004886921960860491
01:00:0A:00:00:00:00;1726877021;21/09/24;00:03:41;1.002;0.0;0.159;-0.010995574295520782;-0.02076941914856434;-0.0012217304902151227
01:00:0A:00:00:00:00;1726877022;21/09/24;00:03:42;1.001;0.0;0.162;-0.009773843921720982;-0.013439035043120384;-0.006108652334660292
01:00:0A:00:00:00:00;1726877023;21/09/24;00:03:43;1.006;0.001;0.164;-0.010995574295520782;-0.010995574295520782;0.0036651913542300463
01:00:0A:00:00:00:00;1726877024;21/09/24;00:03:44;1.011;0.0;0.161;-0.010995574295520782;-0.009773843921720982;0.004886921960860491
01:00:0A:00:00:00:00;1726877025;21/09/24;00:03:45;1.017;0.001;0.16;-0.009773843921720982;-0.00855211354792118;-0.0012217304902151227
01:00:0A:00:00:00:00;1726877026;21/09/24;00:03:46;1.017;0.005;0.161;-0.010995574295520782;-0.013439035043120384;-0.0012217304902151227
01:00:0A:00:00:00:00;1726877027;21/09/24;00:03:47;1.01;0.0;0.161;-0.010995574295520782;-0.018325956538319588;0.0012217304902151227
01:00:0A:00:00:00:00;1726877028;21/09/24;00:03:48;1.004;0.001;0.162;-0.009773843921720982;-0.00855211354792118;0.0
01:00:0A:00:00:00:00;1726877029;21/09/24;00:03:49;1.002;0.002;0.162;-0.012217304669320583;-0.0073303827084600925;0.0073303827084600925
01:00:0A:00:00:00:00;1726877030;21/09/24;00:03:50;1.005;0.001;0.159;-0.013439035043120384;-0.0073303827084600925;0.009773843921720982
01:00:0A:00:00:00:00;1726877031;21/09/24;00:03:51;1.008;0.006;0.157;-0.009773843921720982;-0.0073303827084600925;-0.0012217304902151227
01:00:0A:00:00:00:00;1726877032;21/09/24;00:03:52;1.007;0.004;0.159;-0.009773843921720982;-0.019547687843441963;-0.0024434609804302454
01:00:0A:00:00:00:00;1726877033;21/09/24;00:03:53;1.007;0.0;0.157;-0.009773843921720982;-0.02076941914856434;-0.0024434609804302454
01:00:0A:00:00:00:00;1726877034;21/09/24;00:03:54;1.007;0.0;0.162;-0.009773843921720982;-0.013439035043120384;0.0
01:00:0A:00:00:00:00;1726877035;21/09/24;00:03:55;1.008;0.001;0.164;-0.012217304669320583;-0.010995574295520782;0.0073303827084600925
01:00:0A:00:00:00:00;1726877036;21/09/24;00:03:56;1.008;0.0;0.159;-0.012217304669320583;-0.0073303827084600925;0.0073303827084600925
01:00:0A:00:00:00:00;1726877037;21/09/24;00:03:57;1.008;0.005;0.158;-0.009773843921720982;-0.012217304669320583;0.0012217304902151227
01:00:0A:00:00:00:00;1726877038;21/09/24;00:03:58;1.008;0.006;0.159;-0.010995574295520782;-0.018325956538319588;0.0
01:00:0A:00:00:00:00;1726877039;21/09/24;00:03:59;1.007;0.0;0.161;-0.009773843921720982;-0.019547687843441963;-0.0012217304902151227
01:00:0A:00:00:00:00;1726877040;21/09/24;00:04:00;1.006;0.0;0.163;-0.009773843921720982;-0.009773843921720982;-0.0024434609804302454
01:00:0A:00:00:00:00;1726877041;21/09/24;00:04:01;1.01;0.001;0.163;-0.012217304669320583;-0.006108652334660292;0.0073303827084600925
01:00:0A:00:00:00:00;1726877042;21/09/24;00:04:02;1.013;0.0;0.161;-0.012217304669320583;-0.006108652334660292;0.006108652334660292
01:00:0A:00:00:00:00;1726877043;21/09/24;00:04:03;1.014;0.002;0.159;-0.009773843921720982;-0.004886921960860491;-0.0012217304902151227
01:00:0A:00:00:00:00;1726877044;21/09/24;00:04:04;1.011;0.003;0.16;-0.010995574295520782;-0.015882495790719986;-0.0012217304902151227
01:00:0A:00:00:00:00;1726877045;21/09/24;00:04:05;1.006;0.0;0.16;-0.010995574295520782;-0.01710422709584236;0.0012217304902151227
01:00:0A:00:00:00:00;1726877046;21/09/24;00:04:06;1.004;0.0;0.161;-0.009773843921720982;-0.00855211354792118;0.0024434609804302454
01:00:0A:00:00:00:00;1726877047;21/09/24;00:04:07;1.003;0.0;0.163;-0.012217304669320583;-0.00855211354792118;0.012217304669320583
01:00:0A:00:00:00:00;1726877048;21/09/24;00:04:08;1.006;0.004;0.158;-0.012217304669320583;-0.012217304669320583;0.009773843921720982
01:00:0A:00:00:00:00;1726877049;21/09/24;00:04:09;1.008;0.005;0.158;-0.009773843921720982;-0.009773843921720982;-0.0012217304902151227
01:00:0A:00:00:00:00;1726877050;21/09/24;00:04:10;1.011;0.006;0.162;-0.009773843921720982;-0.015882495790719986;-0.0036651913542300463
01:00:0A:00:00:00:00;1726877051;21/09/24;00:04:11;1.012;0.0;0.16;-0.009773843921720982;-0.02076941914856434;-0.0024434609804302454
01:00:0A:00:00:00:00;1726877052;21/09/24;00:04:12;1.01;0.0;0.162;-0.010995574295520782;-0.004886921960860491;0.0
01:00:0A:00:00:00:00;1726877053;21/09/24;00:04:13;1.005;0.0;0.163;-0.013439035043120384;-0.004886921960860491;0.00855211354792118
01:00:0A:00:00:00:00;1726877054;21/09/24;00:04:14;1.007;0.002;0.16;-0.013439035043120384;-0.010995574295520782;0.00855211354792118
01:00:0A:00:00:00:00;1726877055;21/09/24;00:04:15;1.006;0.005;0.158;-0.009773843921720982;-0.0073303827084600925;-0.004886921960860491
01:00:0A:00:00:00:00;1726877056;21/09/24;00:04:16;1.006;0.005;0.162;-0.010995574295520782;-0.014660765416920185;-0.0024434609804302454
01:00:0A:00:00:00:00;1726877057;21/09/24;00:04:17;1.009;0.0;0.16;-0.010995574295520782;-0.014660765416920185;-0.0012217304902151227
01:00:0A:00:00:00:00;1726877058;21/09/24;00:04:18;1.009;0.0;0.161;-0.010995574295520782;-0.004886921960860491;0.0
01:00:0A:00:00:00:00;1726877059;21/09/24;00:04:19;1.009;0.002;0.162;-0.013439035043120384;-0.009773843921720982;0.004886921960860491
01:00:0A:00:00:00:00;1726877060;21/09/24;00:04:20;1.008;0.002;0.158;-0.013439035043120384;-0.01710422709584236;0.004886921960860491
01:00:0A:00:00:00:00;1726877061;21/09/24;00:04:21;1.01;0.004;0.16;-0.010995574295520782;-0.012217304669320583;-0.0036651913542300463
01:00:0A:00:00:00:00;1726877062;21/09/24;00:04:22;1.011;0.002;0.164;-0.010995574295520782;-0.014660765416920185;-0.0024434609804302454
01:00:0A:00:00:00:00;1726877063;21/09/24;00:04:23;1.011;0.0;0.161;-0.012217304669320583;-0.014660765416920185;0.0036651913542300463
01:00:0A:00:00:00:00;1726877064;21/09/24;00:04:24;1.006;0.001;0.161;-0.012217304669320583;-0.0012217304902151227;0.004886921960860491
01:00:0A:00:00:00:00;1726877065;21/09/24;00:04:25;1.001;0.003;0.162;-0.013439035043120384;-0.006108652334660292;0.006108652334660292
01:00:0A:00:00:00:00;1726877066;21/09/24;00:04:26;1.002;0.002;0.158;-0.012217304669320583;-0.014660765416920185;0.0012217304902151227
01:00:0A:00:00:00:00;1726877067;21/09/24;00:04:27;1.005;0.002;0.158;-0.012217304669320583;-0.00855211354792118;-0.0012217304902151227
01:00:0A:00:00:00:00;1726877068;21/09/24;00:04:28;1.012;0.002;0.163;-0.010995574295520782;-0.018325956538319588;-0.0036651913542300463
01:00:0A:00:00:00:00;1726877069;21/09/24;00:04:29;1.016;0.001;0.161;-0.012217304669320583;-0.015882495790719986;0.0012217304902151227
01:00:0A:00:00:00:00;1726877070;21/09/24;00:04:30;1.016;0.001;0.162;-0.013439035043120384;-0.006108652334660292;0.0036651913542300463
01:00:0A:00:00:00:00;1726877071;21/09/24;00:04:31;1.008;0.002;0.164;-0.013439035043120384;-0.00855211354792118;0.0036651913542300463
01:00:0A:00:00:00:00;1726877072;21/09/24;00:04:32;1.005;0.002;0.159;-0.012217304669320583;-0.014660765416920185;0.0012217304902151227
01:00:0A:00:00:00:00;1726877073;21/09/24;00:04:33;1.004;0.0;0.161;-0.012217304669320583;-0.004886921960860491;0.0012217304902151227
01:00:0A:00:00:00:00;1726877074;21/09/24;00:04:34;1.006;0.002;0.162;-0.012217304669320583;-0.010995574295520782;0.0012217304902151227
01:00:0A:00:00:00:00;1726877075;21/09/24;00:04:35;1.008;0.001;0.159;-0.012217304669320583;-0.015882495790719986;0.0012217304902151227
01:00:0A:00:00:00:00;1726877076;21/09/24;00:04:36;1.006;0.001;0.16;-0.010995574295520782;-0.004886921960860491;0.0012217304902151227
01:00:0A:00:00:00:00;1726877077;21/09/24;00:04:37;1.006;0.001;0.162;-0.010995574295520782;-0.013439035043120384;-0.0012217304902151227
01:00:0A:00:00:00:00;1726877078;21/09/24;00:04:38;1.008;0.001;0.159;-0.010995574295520782;-0.015882495790719986;0.0012217304902151227
01:00:0A:00:00:00:00;1726877079;21/09/24;00:04:39;1.013;0.0;0.161;-0.009773843921720982;-0.009773843921720982;0.0024434609804302454
01:00:0A:00:00:00:00;1726877080;21/09/24;00:04:40;1.015;0.004;0.165;-0.010995574295520782;-0.010995574295520782;0.004886921960860491
01:00:0A:00:00:00:00;1726877081;21/09/24;00:04:41;1.012;0.004;0.161;-0.009773843921720982;-0.012217304669320583;0.0012217304902151227
01:00:0A:00:00:00:00;1726877082;21/09/24;00:04:42;1.005;0.001;0.162;-0.00855211354792118;-0.0024434609804302454;-0.0024434609804302454
01:00:0A:00:00:00:00;1726877083;21/09/24;00:04:43;1.002;0.0;0.162;-0.0073303827084600925;-0.00855211354792118;-0.0012217304902151227
01:00:0A:00:00:00:00;1726877084;21/09/24;00:04:44;1.002;0.0;0.157;-0.00855211354792118;-0.015882495790719986;0.006108652334660292
01:00:0A:00:00:00:00;1726877085;21/09/24;00:04:45;1.004;0.0;0.159;-0.00855211354792118;-0.0073303827084600925;0.006108652334660292
01:00:0A:00:00:00:00;1726877086;21/09/24;00:04:46;1.01;0.003;0.162;-0.0073303827084600925;-0.014660765416920185;0.004886921960860491
01:00:0A:00:00:00:00;1726877087;21/09/24;00:04:47;1.012;0.005;0.16;-0.0073303827084600925;-0.01710422709584236;0.0024434609804302454
01:00:0A:00:00:00:00;1726877088;21/09/24;00:04:48;1.01;0.002;0.16;-0.004886921960860491;-0.006108652334660292;-0.004886921960860491
01:00:0A:00:00:00:00;1726877089;21/09/24;00:04:49;1.009;0.0;0.162;-0.004886921960860491;-0.009773843921720982;0.0
01:00:0A:00:00:00:00;1726877090;21/09/24;00:04:50;1.01;0.0;0.16;-0.006108652334660292;-0.012217304669320583;0.006108652334660292
01:00:0A:00:00:00:00;1726877091;21/09/24;00:04:51;1.008;0.002;0.159;-0.006108652334660292;-0.0073303827084600925;0.00855211354792118
01:00:0A:00:00:00:00;1726877092;21/09/24;00:04:52;1.005;0.004;0.163;-0.004886921960860491;-0.012217304669320583;0.0036651913542300463
01:00:0A:00:00:00:00;1726877093;21/09/24;00:04:53;1.006;0.003;0.159;-0.0036651913542300463;-0.014660765416920185;-0.0024434609804302454
01:00:0A:00:00:00:00;1726877094;21/09/24;00:04:54;1.006;0.001;0.16;-0.0024434609804302454;-0.00855211354792118;-0.006108652334660292
01:00:0A:00:00:00:00;1726877095;21/09/24;00:04:55;1.008;0.0;0.162;-0.0036651913542300463;-0.013439035043120384;0.0012217304902151227
01:00:0A:00:00:00:00;1726877096;21/09/24;00:04:56;1.008;0.0;0.159;-0.004886921960860491;-0.01710422709584236;0.0073303827084600925
01:00:0A:00:00:00:00;1726877097;21/09/24;00:04:57;1.009;0.003;0.162;-0.004886921960860491;-0.006108652334660292;0.009773843921720982
01:00:0A:00:00:00:00;1726877098;21/09/24;00:04:58;1.008;0.005;0.163;-0.0024434609804302454;-0.009773843921720982;0.0012217304902151227
01:00:0A:00:00:00:00;1726877099;21/09/24;00:04:59;1.01;0.004;0.161;-0.0012217304902151227;-0.012217304669320583;-0.0036651913542300463
01:00:0A:00:00:00:00;1726877100;21/09/24;00:05:00;1.01;0.002;0.159;-0.0012217304902151227;-0.0024434609804302454;-0.0036651913542300463
01:00:0A:00:00:00:00;1726877101;21/09/24;00:05:01;1.011;0.0;0.162;-0.0024434609804302454;-0.009773843921720982;0.0012217304902151227
01:00:0A:00:00:00:00;1726877102;21/09/24;00:05:02;1.008;0.0;0.158;-0.0024434609804302454;-0.015882495790719986;0.00855211354792118
01:00:0A:00:00:00:00;1726877103;21/09/24;00:05:03;1.004;0.002;0.159;-0.0036651913542300463;-0.0073303827084600925;0.009773843921720982
01:00:0A:00:00:00:00;1726877104;21/09/24;00:05:04;1.002;0.003;0.162;-0.0024434609804302454;-0.013439035043120384;0.0036651913542300463
01:00:0A:00:00:00:00;1726877105;21/09/24;00:05:05;1.006;0.002;0.16;0.0;-0.01710422709584236;-0.004886921960860491
01:00:0A:00:00:00:00;1726877106;21/09/24;00:05:06;1.008;0.002;0.162;-0.0012217304902151227;-0.0073303827084600925;0.0
01:00:0A:00:00:00:00;1726877107;21/09/24;00:05:07;1.012;0.0;0.163;-0.0024434609804302454;-0.009773843921720982;0.004886921960860491
01:00:0A:00:00:00:00;1726877108;21/09/24;00:05:08;1.011;0.002;0.161;-0.0012217304902151227;-0.01710422709584236;0.006108652334660292
01:00:0A:00:00:00:00;1726877109;21/09/24;00:05:09;1.011;0.005;0.161;-0.0012217304902151227;-0.00855211354792118;0.006108652334660292
01:00:0A:00:00:00:00;1726877110;21/09/24;00:05:10;1.009;0.002;0.164;0.0;-0.012217304669320583;0.0012217304902151227
01:00:0A:00:00:00:00;1726877111;21/09/24;00:05:11;1.01;0.002;0.161;0.0012217304902151227;-0.013439035043120384;-0.0036651913542300463
01:00:0A:00:00:00:00;1726877112;21/09/24;00:05:12;1.011;0.001;0.161;0.0;-0.004886921960860491;0.0012217304902151227
01:00:0A:00:00:00:00;1726877113;21/09/24;00:05:13;1.008;0.0;0.162;0.0;-0.00855211354792118;0.004886921960860491
01:00:0A:00:00:00:00;1726877114;21/09/24;00:05:14;1.005;0.002;0.159;0.0012217304902151227;-0.015882495790719986;0.004886921960860491
01:00:0A:00:00:00:00;1726877115;21/09/24;00:05:15;1.004;0.003;0.16;0.0;-0.009773843921720982;0.006108652334660292
01:00:0A:00:00:00:00;1726877116;21/09/24;00:05:16;1.006;0.002;0.163;0.0024434609804302454;-0.009773843921720982;0.0012217304902151227
01:00:0A:00:00:00:00;1726877117;21/09/24;00:05:17;1.007;0.002;0.159;0.0024434609804302454;-0.014660765416920185;-0.0012217304902151227
01:00:0A:00:00:00:00;1726877118;21/09/24;00:05:18;1.01;0.001;0.161;0.0024434609804302454;-0.0073303827084600925;0.004886921960860491
01:00:0A:00:00:00:00;1726877119;21/09/24;00:05:19;1.009;0.0;0.162;0.0024434609804302454;-0.009773843921720982;0.0073303827084600925
01:00:0A:00:00:00:00;1726877120;21/09/24;00:05:20;1.007;0.002;0.16;0.0024434609804302454;-0.014660765416920185;0.004886921960860491
01:00:0A:00:00:00:00;1726877121;21/09/24;00:05:21;1.007;0.003;0.16;0.0024434609804302454;-0.009773843921720982;0.006108652334660292
01:00:0A:00:00:00:00;1726877122;21/09/24;00:05:22;1.007;0.002;0.163;0.004886921960860491;-0.012217304669320583;0.0
01:00:0A:00:00:00:00;1726877123;21/09/24;00:05:23;1.009;0.002;0.16;0.0036651913542300463;-0.010995574295520782;0.0012217304902151227
01:00:0A:00:00:00:00;1726877124;21/09/24;00:05:24;1.012;0.001;0.159;0.004886921960860491;-0.009773843921720982;0.006108652334660292
01:00:0A:00:00:00:00;1726877125;21/09/24;00:05:25;1.01;0.0;0.163;0.004886921960860491;-0.013439035043120384;0.006108652334660292
01:00:0A:00:00:00:00;1726877126;21/09/24;00:05:26;1.008;0.002;0.16;0.004886921960860491;-0.014660765416920185;0.004886921960860491
01:00:0A:00:00:00:00;1726877127;21/09/24;00:05:27;1.006;0.002;0.162;0.006108652334660292;-0.0073303827084600925;0.0036651913542300463
01:00:0A:00:00:00:00;1726877128;21/09/24;00:05:28;1.008;0.001;0.161;0.0073303827084600925;-0.00855211354792118;0.0012217304902151227
01:00:0A:00:00:00:00;1726877129;21/09/24;00:05:29;1.009;0.0;0.16;0.006108652334660292;-0.012217304669320583;0.0024434609804302454
01:00:0A:00:00:00:00;1726877130;21/09/24;00:05:30;1.008;0.0;0.159;0.006108652334660292;-0.009773843921720982;0.009773843921720982
01:00:0A:00:00:00:00;1726877131;21/09/24;00:05:31;1.006;0.001;0.16;0.006108652334660292;-0.013439035043120384;0.00855211354792118
01:00:0A:00:00:00:00;1726877132;21/09/24;00:05:32;1.006;0.004;0.161;0.0073303827084600925;-0.013439035043120384;0.0036651913542300463
01:00:0A:00:00:00:00;1726877133;21/09/24;00:05:33;1.008;0.002;0.161;0.00855211354792118;-0.0073303827084600925;0.0012217304902151227
01:00:0A:00:00:00:00;1726877134;21/09/24;00:05:34;1.01;0.0;0.162;0.00855211354792118;-0.010995574295520782;-0.0012217304902151227
01:00:0A:00:00:00:00;1726877135;21/09/24;00:05:35;1.012;0.0;0.161;0.00855211354792118;-0.010995574295520782;0.0012217304902151227
01:00:0A:00:00:00:00;1726877136;21/09/24;00:05:36;1.009;0.0;0.16;0.0073303827084600925;-0.010995574295520782;0.009773843921720982
01:00:0A:00:00:00:00;1726877137;21/09/24;00:05:37;1.006;0.001;0.162;0.00855211354792118;-0.014660765416920185;0.009773843921720982
01:00:0A:00:00:00:00;1726877138;21/09/24;00:05:38;1.005;0.004;0.161;0.00855211354792118;-0.013439035043120384;0.006108652334660292
01:00:0A:00:00:00:00;1726877139;21/09/24;00:05:39;1.004;0.003;0.162;0.009773843921720982;-0.0073303827084600925;-0.0012217304902151227
01:00:0A:00:00:00:00;1726877140;21/09/24;00:05:40;1.009;0.0;0.161;0.010995574295520782;-0.010995574295520782;-0.0036651913542300463
01:00:0A:00:00:00:00;1726877141;21/09/24;00:05:41;1.011;0.0;0.16;0.009773843921720982;-0.014660765416920185;0.004886921960860491
01:00:0A:00:00:00:00;1726877142;21/09/24;00:05:42;1.009;0.0;0.162;0.009773843921720982;-0.010995574295520782;0.0073303827084600925
01:00:0A:00:00:00:00;1726877143;21/09/24;00:05:43;1.008;0.002;0.162;0.009773843921720982;-0.010995574295520782;0.009773843921720982
01:00:0A:00:00:00:00;1726877144;21/09/24;00:05:44;1.008;0.004;0.162;0.010995574295520782;-0.009773843921720982;0.004886921960860491
01:00:0A:00:00:00:00;1726877145;21/09/24;00:05:45;1.008;0.003;0.162;0.012217304669320583;-0.006108652334660292;-0.0012217304902151227
01:00:0A:00:00:00:00;1726877146;21/09/24;00:05:46;1.008;0.001;0.162;0.013439035043120384;-0.0073303827084600925;-0.0036651913542300463
01:00:0A:00:00:00:00;1726877147;21/09/24;00:05:47;1.01;0.0;0.16;0.012217304669320583;-0.010995574295520782;0.004886921960860491
01:00:0A:00:00:00:00;1726877148;21/09/24;00:05:48;1.007;0.0;0.16;0.010995574295520782;-0.012217304669320583;0.010995574295520782
01:00:0A:00:00:00:00;1726877149;21/09/24;00:05:49;1.005;0.002;0.162;0.010995574295520782;-0.013439035043120384;0.00855211354792118
01:00:0A:00:00:00:00;1726877150;21/09/24;00:05:50;1.007;0.004;0.162;0.012217304669320583;-0.012217304669320583;0.0036651913542300463
01:00:0A:00:00:00:00;1726877151;21/09/24;00:05:51;1.006;0.003;0.162;0.013439035043120384;-0.009773843921720982;0.0
01:00:0A:00:00:00:00;1726877152;21/09/24;00:05:52;1.008;0.001;0.161;0.013439035043120384;-0.009773843921720982;-0.0012217304902151227
01:00:0A:00:00:00:00;1726877153;21/09/24;00:05:53;1.008;0.0;0.161;0.012217304669320583;-0.010995574295520782;0.0024434609804302454
01:00:0A:00:00:00:00;1726877154;21/09/24;00:05:54;1.01;0.0;0.162;0.010995574295520782;-0.010995574295520782;0.009773843921720982
01:00:0A:00:00:00:00;1726877155;21/09/24;00:05:55;1.011;0.002;0.162;0.010995574295520782;-0.012217304669320583;0.009773843921720982
01:00:0A:00:00:00:00;1726877156;21/09/24;00:05:56;1.012;0.003;0.161;0.012217304669320583;-0.009773843921720982;0.006108652334660292
01:00:0A:00:00:00:00;1726877157;21/09/24;00:05:57;1.012;0.002;0.162;0.013439035043120384;-0.0073303827084600925;0.0024434609804302454
01:00:0A:00:00:00:00;1726877158;21/09/24;00:05:58;1.005;0.002;0.161;0.012217304669320583;-0.00855211354792118;0.0012217304902151227
01:00:0A:00:00:00:00;1726877159;21/09/24;00:05:59;1.004;0.0;0.16;0.012217304669320583;-0.010995574295520782;0.0036651913542300463
01:00:0A:00:00:00:00;1726877160;21/09/24;00:06:00;1.006;0.0;0.16;0.010995574295520782;-0.012217304669320583;0.0073303827084600925
01:00:0A:00:00:00:00;1726877161;21/09/24;00:06:01;1.009;0.003;0.162;0.010995574295520782;-0.013439035043120384;0.0073303827084600925
01:00:0A:00:00:00:00;1726877162;21/09/24;00:06:02;1.012;0.001;0.162;0.012217304669320583;-0.010995574295520782;0.004886921960860491
01:00:0A:00:00:00:00;1726877163;21/09/24;00:06:03;1.011;0.002;0.162;0.012217304669320583;-0.009773843921720982;0.0036651913542300463
01:00:0A:00:00:00:00;1726877164;21/09/24;00:06:04;1.009;0.002;0.161;0.012217304669320583;-0.009773843921720982;0.0024434609804302454
01:00:0A:00:00:00:00;1726877165;21/09/24;00:06:05;1.007;0.001;0.16;0.010995574295520782;-0.009773843921720982;0.004886921960860491
01:00:0A:00:00:00:00;1726877166;21/09/24;00:06:06;1.007;0.002;0.162;0.010995574295520782;-0.010995574295520782;0.004886921960860491
01:00:0A:00:00:00:00;1726877167;21/09/24;00:06:07;1.009;0.002;0.161;0.010995574295520782;-0.010995574295520782;0.006108652334660292
01:00:0A:00:00:00:00;1726877168;21/09/24;00:06:08;1.01;0.003;0.161;0.010995574295520782;-0.009773843921720982;0.0036651913542300463
01:00:0A:00:00:00:00;1726877169;21/09/24;00:06:09;1.006;0.002;0.162;0.010995574295520782;-0.009773843921720982;0.0024434609804302454
01:00:0A:00:00:00:00;1726877170;21/09/24;00:06:10;1.005;0.001;0.16;0.010995574295520782;-0.010995574295520782;0.0036651913542300463
01:00:0A:00:00:00:00;1726877171;21/09/24;00:06:11;1.007;0.001;0.161;0.009773843921720982;-0.010995574295520782;0.004886921960860491
01:00:0A:00:00:00:00;1726877172;21/09/24;00:06:12;1.009;0.002;0.161;0.010995574295520782;-0.012217304669320583;0.0036651913542300463
01:00:0A:00:00:00:00;1726877173;21/09/24;00:06:13;1.01;0.001;0.162;0.009773843921720982;-0.012217304669320583;0.006108652334660292
01:00:0A:00:00:00:00;1726877174;21/09/24;00:06:14;1.007;0.008;0.173;0.0708603635430336;0.021991148591041565;0.0024434609804302454
01:00:0A:00:00:00:00;1726877175;21/09/24;00:06:15;1.006;0.004;0.167;0.05742133408784866;-0.04153883829712868;0.025656338781118393
01:00:0A:00:00:00:00;1726877176;21/09/24;00:06:16;1.009;-0.002;0.145;0.06108652427792549;-0.0036651913542300463;0.006108652334660292
01:00:0A:00:00:00:00;1726877177;21/09/24;00:06:17;1.006;0.008;0.17;0.06108652427792549;0.014660765416920185;0.0
01:00:0A:00:00:00:00;1726877178;21/09/24;00:06:18;1.009;0.003;0.163;0.04886921867728233;-0.036651913076639175;0.02687807008624077
01:00:0A:00:00:00:00;1726877179;21/09/24;00:06:19;1.013;-0.004;0.148;0.05619959905743599;-0.004886921960860491;0.004886921960860491
01:00:0A:00:00:00:00;1726877180;21/09/24;00:06:20;1.008;0.01;0.17;0.05375614017248154;0.009773843921720982;0.0036651913542300463
01:00:0A:00:00:00:00;1726877181;21/09/24;00:06:21;1.005;0.002;0.162;0.045204028487205505;-0.03176499158143997;0.025656338781118393
01:00:0A:00:00:00:00;1726877182;21/09/24;00:06:22;1.007;-0.003;0.151;0.05253440886735916;-0.006108652334660292;0.0012217304902151227
01:00:0A:00:00:00:00;1726877183;21/09/24;00:06:23;1.006;0.009;0.167;0.05009094998240471;-0.0012217304902151227;0.0012217304902151227
01:00:0A:00:00:00:00;1726877184;21/09/24;00:06:24;1.011;0.0;0.162;0.040317103266716;-0.02687807008624077;0.024434609338641167
01:00:0A:00:00:00:00;1726877185;21/09/24;00:06:25;1.011;-0.002;0.154;0.04642575979232788;-0.0036651913542300463;0.0012217304902151227
01:00:0A:00:00:00:00;1726877186;21/09/24;00:06:26;1.006;0.009;0.167;0.04398229718208313;0.0024434609804302454;0.004886921960860491
01:00:0A:00:00:00:00;1726877187;21/09/24;00:06:27;1.006;0.0;0.16;0.036651913076639175;-0.021991148591041565;0.024434609338641167
01:00:0A:00:00:00:00;1726877188;21/09/24;00:06:28;1.008;-0.001;0.154;0.04398229718208313;-0.0073303827084600925;-0.0036651913542300463
01:00:0A:00:00:00:00;1726877189;21/09/24;00:06:29;1.008;0.008;0.165;0.039095375686883926;-0.0073303827084600925;0.0036651913542300463
01:00:0A:00:00:00:00;1726877190;21/09/24;00:06:30;1.01;0.0;0.162;0.03298672288656235;-0.02076941914856434;0.019547687843441963
01:00:0A:00:00:00:00;1726877191;21/09/24;00:06:31;1.009;-0.001;0.157;0.03787364438176155;-0.0036651913542300463;0.0012217304902151227
01:00:0A:00:00:00:00;1726877192;21/09/24;00:06:32;1.006;0.009;0.165;0.03298672288656235;-0.0024434609804302454;0.009773843921720982
01:00:0A:00:00:00:00;1726877193;21/09/24;00:06:33;1.004;0.0;0.16;0.02932153083384037;-0.018325956538319588;0.019547687843441963
01:00:0A:00:00:00:00;1726877194;21/09/24;00:06:34;1.006;0.002;0.157;0.0354301817715168;-0.00855211354792118;-0.0073303827084600925
01:00:0A:00:00:00:00;1726877195;21/09/24;00:06:35;1.009;0.007;0.163;0.030543262138962746;-0.012217304669320583;0.004886921960860491
01:00:0A:00:00:00:00;1726877196;21/09/24;00:06:36;1.011;-0.003;0.162;0.02687807008624077;-0.018325956538319588;0.012217304669320583
01:00:0A:00:00:00:00;1726877197;21/09/24;00:06:37;1.01;0.0;0.161;0.030543262138962746;-0.0036651913542300463;0.0012217304902151227
01:00:0A:00:00:00:00;1726877198;21/09/24;00:06:38;1.007;0.007;0.163;0.025656338781118393;-0.004886921960860491;0.014660765416920185
01:00:0A:00:00:00:00;1726877199;21/09/24;00:06:39;1.007;0.0;0.159;0.024434609338641167;-0.013439035043120384;0.013439035043120384
01:00:0A:00:00:00:00;1726877200;21/09/24;00:06:40;1.008;0.003;0.157;0.02932153083384037;-0.009773843921720982;-0.006108652334660292
01:00:0A:00:00:00:00;1726877201;21/09/24;00:06:41;1.007;0.006;0.162;0.02321287989616394;-0.013439035043120384;0.00855211354792118
01:00:0A:00:00:00:00;1726877202;21/09/24;00:06:42;1.008;-0.001;0.162;0.021991148591041565;-0.014660765416920185;0.009773843921720982
01:00:0A:00:00:00:00;1726877203;21/09/24;00:06:43;1.007;0.0;0.162;0.024434609338641167;-0.004886921960860491;0.0
01:00:0A:00:00:00:00;1726877204;21/09/24;00:06:44;1.008;0.004;0.163;0.019547687843441963;-0.006108652334660292;0.014660765416920185
01:00:0A:00:00:00:00;1726877205;21/09/24;00:06:45;1.009;0.0;0.159;0.02076941914856434;-0.012217304669320583;0.00855211354792118
01:00:0A:00:00:00:00;1726877206;21/09/24;00:06:46;1.008;0.005;0.159;0.02321287989616394;-0.010995574295520782;-0.0036651913542300463
01:00:0A:00:00:00:00;1726877207;21/09/24;00:06:47;1.007;0.003;0.162;0.018325956538319588;-0.014660765416920185;0.00855211354792118
01:00:0A:00:00:00:00;1726877208;21/09/24;00:06:48;1.006;-0.001;0.161;0.019547687843441963;-0.014660765416920185;0.004886921960860491
01:00:0A:00:00:00:00;1726877209;21/09/24;00:06:49;1.007;0.003;0.161;0.019547687843441963;-0.006108652334660292;0.0024434609804302454
01:00:0A:00:00:00:00;1726877210;21/09/24;00:06:50;1.007;0.003;0.161;0.014660765416920185;-0.0073303827084600925;0.013439035043120384
01:00:0A:00:00:00:00;1726877211;21/09/24;00:06:51;1.01;0.0;0.158;0.01710422709584236;-0.012217304669320583;0.0036651913542300463
01:00:0A:00:00:00:00;1726877212;21/09/24;00:06:52;1.01;0.005;0.16;0.01710422709584236;-0.009773843921720982;0.0
01:00:0A:00:00:00:00;1726877213;21/09/24;00:06:53;1.008;0.0;0.162;0.014660765416920185;-0.013439035043120384;0.00855211354792118
01:00:0A:00:00:00:00;1726877214;21/09/24;00:06:54;1.007;-0.001;0.161;0.015882495790719986;-0.012217304669320583;0.0024434609804302454
01:00:0A:00:00:00:00;1726877215;21/09/24;00:06:55;1.008;0.002;0.161;0.015882495790719986;-0.006108652334660292;0.0036651913542300463
01:00:0A:00:00:00:00;1726877216;21/09/24;00:06:56;1.009;0.002;0.161;0.013439035043120384;-0.009773843921720982;0.012217304669320583
01:00:0A:00:00:00:00;1726877217;21/09/24;00:06:57;1.009;0.001;0.158;0.01710422709584236;-0.010995574295520782;0.0036651913542300463
01:00:0A:00:00:00:00;1726877218;21/09/24;00:06:58;1.007;0.003;0.16;0.01710422709584236;-0.012217304669320583;0.0024434609804302454
01:00:0A:00:00:00:00;1726877219;21/09/24;00:06:59;1.006;0.0;0.162;0.015882495790719986;-0.013439035043120384;0.00855211354792118
01:00:0A:00:00:00:00;1726877220;21/09/24;00:07:00;1.007;0.0;0.16;0.01710422709584236;-0.012217304669320583;0.0024434609804302454
01:00:0A:00:00:00:00;1726877221;21/09/24;00:07:01;1.007;0.003;0.161;0.015882495790719986;-0.00855211354792118;0.006108652334660292
01:00:0A:00:00:00:00;1726877222;21/09/24;00:07:02;1.01;0.002;0.162;0.014660765416920185;-0.010995574295520782;0.0073303827084600925
01:00:0A:00:00:00:00;1726877223;21/09/24;00:07:03;1.01;0.002;0.159;0.015882495790719986;-0.012217304669320583;0.0012217304902151227
01:00:0A:00:00:00:00;1726877224;21/09/24;00:07:04;1.01;0.003;0.161;0.015882495790719986;-0.010995574295520782;0.004886921960860491
01:00:0A:00:00:00:00;1726877225;21/09/24;00:07:05;1.007;0.001;0.162;0.013439035043120384;-0.012217304669320583;0.0073303827084600925
01:00:0A:00:00:00:00;1726877226;21/09/24;00:07:06;1.008;0.002;0.16;0.014660765416920185;-0.009773843921720982;0.0012217304902151227
01:00:0A:00:00:00:00;1726877227;21/09/24;00:07:07;1.008;0.003;0.161;0.013439035043120384;-0.00855211354792118;0.004886921960860491
01:00:0A:00:00:00:00;1726877228;21/09/24;00:07:08;1.009;0.001;0.161;0.012217304669320583;-0.012217304669320583;0.00855211354792118
01:00:0A:00:00:00:00;1726877229;21/09/24;00:07:09;1.007;0.003;0.16;0.013439035043120384;-0.012217304669320583;0.0024434609804302454
01:00:0A:00:00:00:00;1726877230;21/09/24;00:07:10;1.006;0.003;0.16;0.012217304669320583;-0.009773843921720982;0.0036651913542300463
01:00:0A:00:00:00:00;1726877231;21/09/24;00:07:11;1.007;0.002;0.161;0.010995574295520782;-0.012217304669320583;0.006108652334660292
01:00:0A:00:00:00:00;1726877232;21/09/24;00:07:12;1.009;0.001;0.16;0.012217304669320583;-0.009773843921720982;0.004886921960860491
01:00:0A:00:00:00:00;1726877233;21/09/24;00:07:13;1.008;0.002;0.161;0.010995574295520782;-0.009773843921720982;0.0073303827084600925
01:00:0A:00:00:00:00;1726877234;21/09/24;00:07:14;1.01;0.002;0.16;0.010995574295520782;-0.012217304669320583;0.004886921960860491
01:00:0A:00:00:00:00;1726877235;21/09/24;00:07:15;1.009;0.002;0.162;0.012217304669320583;-0.012217304669320583;0.0036651913542300463
01:00:0A:00:00:00:00;1726877236;21/09/24;00:07:16;1.006;0.002;0.161;0.012217304669320583;-0.009773843921720982;0.0036651913542300463
01:00:0A:00:00:00:00;1726877237;21/09/24;00:07:17;1.006;0.001;0.162;0.012217304669320583;-0.010995574295520782;0.0036651913542300463
01:00:0A:00:00:00:00;1726877238;21/09/24;00:07:18;1.008;0.001;0.161;0.012217304669320583;-0.009773843921720982;0.004886921960860491
01:00:0A:00:00:00:00;1726877239;21/09/24;00:07:19;1.011;0.001;0.16;0.012217304669320583;-0.009773843921720982;0.004886921960860491
01:00:0A:00:00:00:00;1726877240;21/09/24;00:07:20;1.009;0.002;0.16;0.012217304669320583;-0.012217304669320583;0.006108652334660292
01:00:0A:00:00:00:00;1726877241;21/09/24;00:07:21;1.006;0.003;0.16;0.012217304669320583;-0.010995574295520782;0.0036651913542300463
01:00:0A:00:00:00:00;1726877242;21/09/24;00:07:22;1.005;0.0;0.16;0.012217304669320583;-0.009773843921720982;0.0036651913542300463
01:00:0A:00:00:00:00;1726877243;21/09/24;00:07:23;1.007;0.001;0.162;0.012217304669320583;-0.010995574295520782;0.004886921960860491
01:00:0A:00:00:00:00;1726877244;21/09/24;00:07:24;1.009;0.001;0.161;0.012217304669320583;-0.009773843921720982;0.006108652334660292
01:00:0A:00:00:00:00;1726877245;21/09/24;00:07:25;1.011;0.003;0.16;0.012217304669320583;-0.009773843921720982;0.006108652334660292
01:00:0A:00:00:00:00;1726877246;21/09/24;00:07:26;1.01;0.003;0.161;0.012217304669320583;-0.009773843921720982;0.0036651913542300463
01:00:0A:00:00:00:00;1726877247;21/09/24;00:07:27;1.007;0.0;0.161;0.012217304669320583;-0.010995574295520782;0.006108652334660292
01:00:0A:00:00:00:00;1726877248;21/09/24;00:07:28;1.005;0.001;0.162;0.013439035043120384;-0.010995574295520782;0.0036651913542300463
01:00:0A:00:00:00:00;1726877249;21/09/24;00:07:29;1.005;0.001;0.161;0.012217304669320583;-0.010995574295520782;0.004886921960860491
01:00:0A:00:00:00:00;1726877250;21/09/24;00:07:30;1.01;0.001;0.161;0.012217304669320583;-0.009773843921720982;0.004886921960860491
01:00:0A:00:00:00:00;1726877251;21/09/24;00:07:31;1.011;0.0;0.16;0.013439035043120384;-0.009773843921720982;0.0024434609804302454
01:00:0A:00:00:00:00;1726877252;21/09/24;00:07:32;1.01;0.002;0.161;0.012217304669320583;-0.010995574295520782;0.004886921960860491
01:00:0A:00:00:00:00;1726877253;21/09/24;00:07:33;1.007;0.001;0.16;0.012217304669320583;-0.010995574295520782;0.004886921960860491
01:00:0A:00:00:00:00;1726877254;21/09/24;00:07:34;1.004;0.001;0.161;0.013439035043120384;-0.010995574295520782;0.0036651913542300463
01:00:0A:00:00:00:00;1726877255;21/09/24;00:07:35;1.006;0.003;0.161;0.012217304669320583;-0.012217304669320583;0.006108652334660292
01:00:0A:00:00:00:00;1726877256;21/09/24;00:07:36;1.009;0.0;0.162;0.012217304669320583;-0.010995574295520782;0.006108652334660292
01:00:0A:00:00:00:00;1726877257;21/09/24;00:07:37;1.012;0.001;0.161;0.013439035043120384;-0.010995574295520782;0.0024434609804302454
01:00:0A:00:00:00:00;1726877258;21/09/24;00:07:38;1.01;0.002;0.161;0.012217304669320583;-0.010995574295520782;0.004886921960860491
01:00:0A:00:00:00:00;1726877259;21/09/24;00:07:39;1.006;0.0;0.161;0.012217304669320583;-0.010995574295520782;0.0073303827084600925
01:00:0A:00:00:00:00;1726877260;21/09/24;00:07:40;1.006;0.001;0.16;0.013439035043120384;-0.010995574295520782;0.0024434609804302454
01:00:0A:00:00:00:00;1726877261;21/09/24;00:07:41;1.007;0.002;0.161;0.012217304669320583;-0.010995574295520782;0.006108652334660292
01:00:0A:00:00:00:00;1726877262;21/09/24;00:07:42;1.009;0.001;0.162;0.012217304669320583;-0.009773843921720982;0.004886921960860491
01:00:0A:00:00:00:00;1726877263;21/09/24;00:07:43;1.008;0.001;0.16;0.013439035043120384;-0.010995574295520782;0.0012217304902151227
01:00:0A:00:00:00:00;1726877264;21/09/24;00:07:44;1.008;0.002;0.16;0.012217304669320583;-0.012217304669320583;0.006108652334660292
01:00:0A:00:00:00:00;1726877265;21/09/24;00:07:45;1.007;0.001;0.161;0.010995574295520782;-0.012217304669320583;0.006108652334660292
01:00:0A:00:00:00:00;1726877266;21/09/24;00:07:46;1.007;0.001;0.161;0.012217304669320583;-0.010995574295520782;0.0024434609804302454
01:00:0A:00:00:00:00;1726877267;21/09/24;00:07:47;1.009;0.003;0.162;0.010995574295520782;-0.010995574295520782;0.006108652334660292
01:00:0A:00:00:00:00;1726877268;21/09/24;00:07:48;1.01;0.001;0.16;0.010995574295520782;-0.010995574295520782;0.006108652334660292
01:00:0A:00:00:00:00;1726877269;21/09/24;00:07:49;1.01;0.002;0.161;0.012217304669320583;-0.010995574295520782;0.0012217304902151227
01:00:0A:00:00:00:00;1726877270;21/09/24;00:07:50;1.008;0.002;0.161;0.010995574295520782;-0.010995574295520782;0.006108652334660292
01:00:0A:00:00:00:00;1726877271;21/09/24;00:07:51;1.006;0.0;0.162;0.009773843921720982;-0.010995574295520782;0.006108652334660292
01:00:0A:00:00:00:00;1726877272;21/09/24;00:07:52;1.007;0.002;0.162;0.010995574295520782;-0.010995574295520782;0.0012217304902151227
01:00:0A:00:00:00:00;1726877273;21/09/24;00:07:53;1.008;0.002;0.161;0.009773843921720982;-0.009773843921720982;0.006108652334660292
01:00:0A:00:00:00:00;1726877274;21/09/24;00:07:54;1.009;0.0;0.161;0.009773843921720982;-0.010995574295520782;0.006108652334660292
01:00:0A:00:00:00:00;1726877275;21/09/24;00:07:55;1.007;0.002;0.162;0.010995574295520782;-0.009773843921720982;0.0012217304902151227
01:00:0A:00:00:00:00;1726877276;21/09/24;00:07:56;1.009;0.002;0.161;0.009773843921720982;-0.010995574295520782;0.004886921960860491
01:00:0A:00:00:00:00;1726877277;21/09/24;00:07:57;1.008;0.001;0.16;0.009773843921720982;-0.010995574295520782;0.006108652334660292
01:00:0A:00:00:00:00;1726877278;21/09/24;00:07:58;1.007;0.001;0.161;0.010995574295520782;-0.009773843921720982;0.0024434609804302454
01:00:0A:00:00:00:00;1726877279;21/09/24;00:07:59;1.007;0.003;0.16;0.009773843921720982;-0.009773843921720982;0.006108652334660292
01:00:0A:00:00:00:00;1726877280;21/09/24;00:08:00;1.008;0.0;0.16;0.009773843921720982;-0.010995574295520782;0.006108652334660292
01:00:0A:00:00:00:00;1726877281;21/09/24;00:08:01;1.009;0.003;0.161;0.010995574295520782;-0.010995574295520782;0.0012217304902151227
01:00:0A:00:00:00:00;1726877282;21/09/24;00:08:02;1.008;0.003;0.161;0.009773843921720982;-0.010995574295520782;0.006108652334660292
01:00:0A:00:00:00:00;1726877283;21/09/24;00:08:03;1.007;0.0;0.161;0.009773843921720982;-0.010995574295520782;0.006108652334660292
01:00:0A:00:00:00:00;1726877284;21/09/24;00:08:04;1.008;0.001;0.16;0.010995574295520782;-0.009773843921720982;0.0012217304902151227
01:00:0A:00:00:00:00;1726877285;21/09/24;00:08:05;1.009;0.003;0.161;0.009773843921720982;-0.009773843921720982;0.0073303827084600925
01:00:0A:00:00:00:00;1726877286;21/09/24;00:08:06;1.009;0.0;0.161;0.009773843921720982;-0.010995574295520782;0.004886921960860491
01:00:0A:00:00:00:00;1726877287;21/09/24;00:08:07;1.009;0.001;0.16;0.012217304669320583;-0.010995574295520782;0.0012217304902151227
01:00:0A:00:00:00:00;1726877288;21/09/24;00:08:08;1.008;0.002;0.162;0.009773843921720982;-0.010995574295520782;0.004886921960860491
01:00:0A:00:00:00:00;1726877289;21/09/24;00:08:09;1.008;0.0;0.16;0.009773843921720982;-0.010995574295520782;0.006108652334660292
01:00:0A:00:00:00:00;1726877290;21/09/24;00:08:10;1.008;0.002;0.162;0.010995574295520782;-0.009773843921720982;0.0024434609804302454
01:00:0A:00:00:00:00;1726877291;21/09/24;00:08:11;1.009;0.003;0.162;0.009773843921720982;-0.009773843921720982;0.006108652334660292
01:00:0A:00:00:00:00;1726877292;21/09/24;00:08:12;1.009;0.0;0.161;0.010995574295520782;-0.012217304669320583;0.004886921960860491
01:00:0A:00:00:00:00;1726877293;21/09/24;00:08:13;1.008;0.001;0.161;0.010995574295520782;-0.010995574295520782;0.0012217304902151227
01:00:0A:00:00:00:00;1726877294;21/09/24;00:08:14;1.007;0.002;0.162;0.009773843921720982;-0.010995574295520782;0.0073303827084600925
01:00:0A:00:00:00:00;1726877295;21/09/24;00:08:15;1.007;0.0;0.161;0.009773843921720982;-0.010995574295520782;0.006108652334660292
01:00:0A:00:00:00:00;1726877296;21/09/24;00:08:16;1.007;0.001;0.161;0.010995574295520782;-0.009773843921720982;0.0
01:00:0A:00:00:00:00;1726877297;21/09/24;00:08:17;1.009;0.003;0.162;0.009773843921720982;-0.010995574295520782;0.006108652334660292
01:00:0A:00:00:00:00;1726877298;21/09/24;00:08:18;1.009;0.0;0.16;0.009773843921720982;-0.012217304669320583;0.006108652334660292
01:00:0A:00:00:00:00;1726877299;21/09/24;00:08:19;1.007;0.001;0.161;0.010995574295520782;-0.012217304669320583;0.0012217304902151227
01:00:0A:00:00:00:00;1726877300;21/09/24;00:08:20;1.006;0.002;0.162;0.009773843921720982;-0.012217304669320583;0.004886921960860491
01:00:0A:00:00:00:00;1726877301;21/09/24;00:08:21;1.007;0.0;0.161;0.009773843921720982;-0.010995574295520782;0.006108652334660292
01:00:0A:00:00:00:00;1726877302;21/09/24;00:08:22;1.008;0.002;0.161;0.010995574295520782;-0.009773843921720982;0.0012217304902151227
01:00:0A:00:00:00:00;1726877303;21/09/24;00:08:23;1.008;0.003;0.162;0.009773843921720982;-0.009773843921720982;0.004886921960860491
01:00:0A:00:00:00:00;1726877304;21/09/24;00:08:24;1.009;0.001;0.161;0.00855211354792118;-0.012217304669320583;0.006108652334660292
01:00:0A:00:00:00:00;1726877305;21/09/24;00:08:25;1.009;0.001;0.161;0.009773843921720982;-0.012217304669320583;0.0024434609804302454
01:00:0A:00:00:00:00;1726877306;21/09/24;00:08:26;1.008;0.003;0.162;0.00855211354792118;-0.010995574295520782;0.006108652334660292
01:00:0A:00:00:00:00;1726877307;21/09/24;00:08:27;1.006;0.001;0.161;0.00855211354792118;-0.009773843921720982;0.004886921960860491
01:00:0A:00:00:00:00;1726877308;21/09/24;00:08:28;1.008;0.001;0.161;0.009773843921720982;-0.00855211354792118;0.0
01:00:0A:00:00:00:00;1726877309;21/09/24;00:08:29;1.008;0.002;0.16;0.00855211354792118;-0.010995574295520782;0.004886921960860491
01:00:0A:00:00:00:00;1726877310;21/09/24;00:08:30;1.007;0.0;0.161;0.0073303827084600925;-0.012217304669320583;0.006108652334660292
01:00:0A:00:00:00:00;1726877311;21/09/24;00:08:31;1.007;0.001;0.161;0.00855211354792118;-0.012217304669320583;0.0012217304902151227
01:00:0A:00:00:00:00;1726877312;21/09/24;00:08:32;1.007;0.002;0.162;0.00855211354792118;-0.010995574295520782;0.0036651913542300463
01:00:0A:00:00:00:00;1726877313;21/09/24;00:08:33;1.007;0.0;0.161;0.0073303827084600925;-0.009773843921720982;0.004886921960860491
01:00:0A:00:00:00:00;1726877314;21/09/24;00:08:34;1.009;0.001;0.161;0.00855211354792118;-0.00855211354792118;0.0012217304902151227
01:00:0A:00:00:00:00;1726877315;21/09/24;00:08:35;1.009;0.003;0.161;0.0073303827084600925;-0.010995574295520782;0.004886921960860491
01:00:0A:00:00:00:00;1726877316;21/09/24;00:08:36;1.008;0.0;0.161;0.0073303827084600925;-0.012217304669320583;0.006108652334660292
01:00:0A:00:00:00:00;1726877317;21/09/24;00:08:37;1.008;0.002;0.161;0.00855211354792118;-0.010995574295520782;0.0012217304902151227
01:00:0A:00:00:00:00;1726877318;21/09/24;00:08:38;1.006;0.002;0.162;0.0073303827084600925;-0.010995574295520782;0.004886921960860491
01:00:0A:00:00:00:00;1726877319;21/09/24;00:08:39;1.007;0.001;0.162;0.0073303827084600925;-0.009773843921720982;0.004886921960860491
01:00:0A:00:00:00:00;1726877320;21/09/24;00:08:40;1.008;0.0;0.161;0.00855211354792118;-0.009773843921720982;0.0012217304902151227
01:00:0A:00:00:00:00;1726877321;21/09/24;00:08:41;1.009;0.003;0.161;0.006108652334660292;-0.010995574295520782;0.004886921960860491
01:00:0A:00:00:00:00;1726877322;21/09/24;00:08:42;1.008;0.001;0.162;0.006108652334660292;-0.012217304669320583;0.006108652334660292
01:00:0A:00:00:00:00;1726877323;21/09/24;00:08:43;1.008;0.002;0.162;0.00855211354792118;-0.010995574295520782;0.0
01:00:0A:00:00:00:00;1726877324;21/09/24;00:08:44;1.008;0.003;0.162;0.0073303827084600925;-0.009773843921720982;0.0036651913542300463
01:00:0A:00:00:00:00;1726877325;21/09/24;00:08:45;1.007;0.001;0.161;0.006108652334660292;-0.009773843921720982;0.006108652334660292
01:00:0A:00:00:00:00;1726877326;21/09/24;00:08:46;1.008;0.002;0.161;0.0073303827084600925;-0.009773843921720982;0.0024434609804302454
01:00:0A:00:00:00:00;1726877327;21/09/24;00:08:47;1.008;0.003;0.161;0.0073303827084600925;-0.010995574295520782;0.0036651913542300463
01:00:0A:00:00:00:00;1726877328;21/09/24;00:08:48;1.008;0.0;0.162;0.006108652334660292;-0.012217304669320583;0.004886921960860491
01:00:0A:00:00:00:00;1726877329;21/09/24;00:08:49;1.009;0.001;0.162;0.0073303827084600925;-0.010995574295520782;0.0012217304902151227
01:00:0A:00:00:00:00;1726877330;21/09/24;00:08:50;1.008;0.002;0.162;0.0073303827084600925;-0.009773843921720982;0.004886921960860491
01:00:0A:00:00:00:00;1726877331;21/09/24;00:08:51;1.008;0.001;0.161;0.006108652334660292;-0.009773843921720982;0.006108652334660292
01:00:0A:00:00:00:00;1726877332;21/09/24;00:08:52;1.008;0.001;0.161;0.0073303827084600925;-0.009773843921720982;0.0012217304902151227
01:00:0A:00:00:00:00;1726877333;21/09/24;00:08:53;1.008;0.003;0.161;0.0073303827084600925;-0.012217304669320583;0.0036651913542300463
01:00:0A:00:00:00:00;1726877334;21/09/24;00:08:54;1.009;0.001;0.161;0.006108652334660292;-0.012217304669320583;0.004886921960860491
01:00:0A:00:00:00:00;1726877335;21/09/24;00:08:55;1.007;0.001;0.162;0.00855211354792118;-0.010995574295520782;0.0012217304902151227
01:00:0A:00:00:00:00;1726877336;21/09/24;00:08:56;1.007;0.003;0.162;0.0073303827084600925;-0.009773843921720982;0.004886921960860491
01:00:0A:00:00:00:00;1726877337;21/09/24;00:08:57;1.009;0.002;0.161;0.0073303827084600925;-0.009773843921720982;0.0073303827084600925
01:00:0A:00:00:00:00;1726877338;21/09/24;00:08:58;1.008;0.001;0.161;0.00855211354792118;-0.010995574295520782;0.0024434609804302454
01:00:0A:00:00:00:00;1726877339;21/09/24;00:08:59;1.008;0.003;0.161;0.00855211354792118;-0.012217304669320583;0.0036651913542300463
01:00:0A:00:00:00:00;1726877340;21/09/24;00:09:00;1.009;0.0;0.161;0.00855211354792118;-0.012217304669320583;0.006108652334660292
01:00:0A:00:00:00:00;1726877341;21/09/24;00:09:01;1.009;0.001;0.162;0.009773843921720982;-0.010995574295520782;0.0024434609804302454
01:00:0A:00:00:00:00;1726877342;21/09/24;00:09:02;1.009;0.003;0.162;0.00855211354792118;-0.009773843921720982;0.004886921960860491
01:00:0A:00:00:00:00;1726877343;21/09/24;00:09:03;1.009;0.0;0.161;0.00855211354792118;-0.009773843921720982;0.006108652334660292
01:00:0A:00:00:00:00;1726877344;21/09/24;00:09:04;1.008;0.001;0.16;0.009773843921720982;-0.010995574295520782;0.0012217304902151227
01:00:0A:00:00:00:00;1726877345;21/09/24;00:09:05;1.008;0.002;0.16;0.00855211354792118;-0.012217304669320583;0.004886921960860491
01:00:0A:00:00:00:00;1726877346;21/09/24;00:09:06;1.008;0.0;0.162;0.00855211354792118;-0.012217304669320583;0.006108652334660292
01:00:0A:00:00:00:00;1726877347;21/09/24;00:09:07;1.008;0.002;0.161;0.009773843921720982;-0.009773843921720982;0.0024434609804302454
01:00:0A:00:00:00:00;1726877348;21/09/24;00:09:08;1.008;0.003;0.162;0.00855211354792118;-0.009773843921720982;0.004886921960860491
01:00:0A:00:00:00:00;1726877349;21/09/24;00:09:09;1.007;0.0;0.162;0.00855211354792118;-0.010995574295520782;0.006108652334660292
01:00:0A:00:00:00:00;1726877350;21/09/24;00:09:10;1.007;0.001;0.161;0.009773843921720982;-0.010995574295520782;0.0024434609804302454
01:00:0A:00:00:00:00;1726877351;21/09/24;00:09:11;1.008;0.002;0.161;0.00855211354792118;-0.012217304669320583;0.0036651913542300463
01:00:0A:00:00:00:00;1726877352;21/09/24;00:09:12;1.008;0.0;0.161;0.00855211354792118;-0.012217304669320583;0.006108652334660292
01:00:0A:00:00:00:00;1726877353;21/09/24;00:09:13;1.009;0.0;0.161;0.009773843921720982;-0.009773843921720982;0.0024434609804302454
01:00:0A:00:00:00:00;1726877354;21/09/24;00:09:14;1.009;0.003;0.161;0.00855211354792118;-0.009773843921720982;0.0036651913542300463
01:00:0A:00:00:00:00;1726877355;21/09/24;00:09:15;1.008;0.001;0.161;0.0073303827084600925;-0.010995574295520782;0.006108652334660292
01:00:0A:00:00:00:00;1726877356;21/09/24;00:09:16;1.008;0.002;0.16;0.009773843921720982;-0.010995574295520782;0.0012217304902151227
01:00:0A:00:00:00:00;1726877357;21/09/24;00:09:17;1.007;0.003;0.161;0.00855211354792118;-0.010995574295520782;0.004886921960860491
01:00:0A:00:00:00:00;1726877358;21/09/24;00:09:18;1.009;0.0;0.162;0.0073303827084600925;-0.010995574295520782;0.006108652334660292
01:00:0A:00:00:00:00;1726877359;21/09/24;00:09:19;1.009;0.0;0.162;0.00855211354792118;-0.010995574295520782;0.0024434609804302454
01:00:0A:00:00:00:00;1726877360;21/09/24;00:09:20;1.008;0.003;0.161;0.00855211354792118;-0.009773843921720982;0.0036651913542300463
01:00:0A:00:00:00:00;1726877361;21/09/24;00:09:21;1.007;0.001;0.161;0.0073303827084600925;-0.010995574295520782;0.006108652334660292
01:00:0A:00:00:00:00;1726877362;21/09/24;00:09:22;1.008;0.001;0.16;0.00855211354792118;-0.010995574295520782;0.0024434609804302454
01:00:0A:00:00:00:00;1726877363;21/09/24;00:09:23;1.007;0.003;0.161;0.0073303827084600925;-0.010995574295520782;0.0036651913542300463
01:00:0A:00:00:00:00;1726877364;21/09/24;00:09:24;1.008;0.002;0.161;0.0073303827084600925;-0.010995574295520782;0.006108652334660292
01:00:0A:00:00:00:00;1726877365;21/09/24;00:09:25;1.008;0.0;0.162;0.0073303827084600925;-0.010995574295520782;0.0036651913542300463
01:00:0A:00:00:00:00;1726877366;21/09/24;00:09:26;1.008;0.002;0.16;0.0073303827084600925;-0.010995574295520782;0.004886921960860491
01:00:0A:00:00:00:00;1726877367;21/09/24;00:09:27;1.008;0.001;0.161;0.0073303827084600925;-0.010995574295520782;0.006108652334660292
01:00:0A:00:00:00:00;1726877368;21/09/24;00:09:28;1.009;0.001;0.162;0.00855211354792118;-0.010995574295520782;0.0012217304902151227
01:00:0A:00:00:00:00;1726877369;21/09/24;00:09:29;1.008;0.003;0.161;0.0073303827084600925;-0.010995574295520782;0.0036651913542300463
01:00:0A:00:00:00:00;1726877370;21/09/24;00:09:30;1.009;0.001;0.161;0.0073303827084600925;-0.010995574295520782;0.006108652334660292
01:00:0A:00:00:00:00;1726877371;21/09/24;00:09:31;1.008;0.002;0.161;0.00855211354792118;-0.010995574295520782;0.0024434609804302454
01:00:0A:00:00:00:00;1726877372;21/09/24;00:09:32;1.007;0.003;0.162;0.0073303827084600925;-0.010995574295520782;0.0036651913542300463
01:00:0A:00:00:00:00;1726877373;21/09/24;00:09:33;1.007;0.002;0.162;0.0073303827084600925;-0.010995574295520782;0.0073303827084600925
01:00:0A:00:00:00:00;1726877374;21/09/24;00:09:34;1.008;0.003;0.161;0.0073303827084600925;-0.010995574295520782;0.0024434609804302454
01:00:0A:00:00:00:00;1726877375;21/09/24;00:09:35;1.009;0.002;0.161;0.0073303827084600925;-0.009773843921720982;0.0036651913542300463
01:00:0A:00:00:00:00;1726877376;21/09/24;00:09:36;1.008;0.001;0.161;0.006108652334660292;-0.010995574295520782;0.006108652334660292
01:00:0A:00:00:00:00;1726877377;21/09/24;00:09:37;1.007;0.001;0.161;0.0073303827084600925;-0.010995574295520782;0.0024434609804302454
01:00:0A:00:00:00:00;1726877378;21/09/24;00:09:38;1.007;0.002;0.161;0.0073303827084600925;-0.010995574295520782;0.0036651913542300463
01:00:0A:00:00:00:00;1726877379;21/09/24;00:09:39;1.007;0.001;0.161;0.006108652334660292;-0.010995574295520782;0.006108652334660292
01:00:0A:00:00:00:00;1726877380;21/09/24;00:09:40;1.007;0.002;0.16;0.0073303827084600925;-0.009773843921720982;0.0024434609804302454
01:00:0A:00:00:00:00;1726877381;21/09/24;00:09:41;1.007;0.003;0.162;0.006108652334660292;-0.010995574295520782;0.0036651913542300463
01:00:0A:00:00:00:00;1726877382;21/09/24;00:09:42;1.008;0.001;0.161;0.004886921960860491;-0.010995574295520782;0.006108652334660292
01:00:0A:00:00:00:00;1726877383;21/09/24;00:09:43;1.008;0.0;0.162;0.006108652334660292;-0.010995574295520782;0.0024434609804302454
01:00:0A:00:00:00:00;1726877384;21/09/24;00:09:44;1.007;0.003;0.161;0.006108652334660292;-0.010995574295520782;0.0036651913542300463
01:00:0A:00:00:00:00;1726877385;21/09/24;00:09:45;1.007;0.001;0.162;0.004886921960860491;-0.010995574295520782;0.006108652334660292
01:00:0A:00:00:00:00;1726877386;21/09/24;00:09:46;1.008;0.001;0.161;0.006108652334660292;-0.009773843921720982;0.0024434609804302454
01:00:0A:00:00:00:00;1726877387;21/09/24;00:09:47;1.009;0.003;0.16;0.006108652334660292;-0.010995574295520782;0.0024434609804302454
01:00:0A:00:00:00:00;1726877388;21/09/24;00:09:48;1.008;0.001;0.161;0.004886921960860491;-0.010995574295520782;0.006108652334660292
01:00:0A:00:00:00:00;1726877389;21/09/24;00:09:49;1.007;0.0;0.161;0.006108652334660292;-0.012217304669320583;0.0024434609804302454
01:00:0A:00:00:00:00;1726877390;21/09/24;00:09:50;1.007;0.003;0.162;0.004886921960860491;-0.010995574295520782;0.0024434609804302454
01:00:0A:00:00:00:00;1726877391;21/09/24;00:09:51;1.007;0.001;0.161;0.004886921960860491;-0.010995574295520782;0.004886921960860491
01:00:0A:00:00:00:00;1726877392;21/09/24;00:09:52;1.007;0.001;0.161;0.004886921960860491;-0.009773843921720982;0.0024434609804302454
01:00:0A:00:00:00:00;1726877393;21/09/24;00:09:53;1.007;0.003;0.16;0.004886921960860491;-0.009773843921720982;0.0036651913542300463
01:00:0A:00:00:00:00;1726877394;21/09/24;00:09:54;1.009;0.002;0.162;0.0036651913542300463;-0.012217304669320583;0.004886921960860491
01:00:0A:00:00:00:00;1726877395;21/09/24;00:09:55;1.008;0.002;0.161;0.004886921960860491;-0.012217304669320583;0.0012217304902151227
01:00:0A:00:00:00:00;1726877396;21/09/24;00:09:56;1.007;0.002;0.161;0.0036651913542300463;-0.010995574295520782;0.0024434609804302454
01:00:0A:00:00:00:00;1726877397;21/09/24;00:09:57;1.007;0.001;0.162;0.0024434609804302454;-0.009773843921720982;0.006108652334660292
01:00:0A:00:00:00:00;1726877398;21/09/24;00:09:58;1.007;0.001;0.161;0.0036651913542300463;-0.010995574295520782;0.0024434609804302454
01:00:0A:00:00:00:00;1726877399;21/09/24;00:09:59;1.009;0.003;0.16;0.0036651913542300463;-0.009773843921720982;0.0024434609804302454
01:00:0A:00:00:00:00;1726877400;21/09/24;00:10:00;1.007;0.001;0.161;0.0024434609804302454;-0.012217304669320583;0.004886921960860491
01:00:0A:00:00:00:00;1726877401;21/09/24;00:10:01;1.007;0.001;0.161;0.0036651913542300463;-0.012217304669320583;0.0024434609804302454
01:00:0A:00:00:00:00;1726877402;21/09/24;00:10:02;1.007;0.002;0.161;0.0024434609804302454;-0.010995574295520782;0.0024434609804302454
01:00:0A:00:00:00:00;1726877403;21/09/24;00:10:03;1.008;0.002;0.161;0.0012217304902151227;-0.009773843921720982;0.006108652334660292
01:00:0A:00:00:00:00;1726877404;21/09/24;00:10:04;1.008;0.001;0.16;0.0024434609804302454;-0.009773843921720982;0.0024434609804302454
01:00:0A:00:00:00:00;1726877405;21/09/24;00:10:05;1.008;0.002;0.161;0.0024434609804302454;-0.010995574295520782;0.0024434609804302454
01:00:0A:00:00:00:00;1726877406;21/09/24;00:10:06;1.007;0.002;0.161;0.0012217304902151227;-0.010995574295520782;0.004886921960860491
01:00:0A:00:00:00:00;1726877407;21/09/24;00:10:07;1.008;0.0;0.161;0.0024434609804302454;-0.012217304669320583;0.0012217304902151227
01:00:0A:00:00:00:00;1726877408;21/09/24;00:10:08;1.008;0.002;0.161;0.0024434609804302454;-0.010995574295520782;0.0024434609804302454
01:00:0A:00:00:00:00;1726877409;21/09/24;00:10:09;1.01;0.002;0.161;0.0012217304902151227;-0.009773843921720982;0.006108652334660292
01:00:0A:00:00:00:00;1726877410;21/09/24;00:10:10;1.008;0.002;0.16;0.0024434609804302454;-0.010995574295520782;0.0012217304902151227
01:00:0A:00:00:00:00;1726877411;21/09/24;00:10:11;1.009;0.003;0.161;0.0024434609804302454;-0.010995574295520782;0.0012217304902151227
01:00:0A:00:00:00:00;1726877412;21/09/24;00:10:12;1.008;0.001;0.161;0.0012217304902151227;-0.012217304669320583;0.004886921960860491
01:00:0A:00:00:00:00;1726877413;21/09/24;00:10:13;1.007;0.0;0.162;0.0024434609804302454;-0.012217304669320583;0.0024434609804302454
01:00:0A:00:00:00:00;1726877414;21/09/24;00:10:14;1.008;0.003;0.161;0.0024434609804302454;-0.009773843921720982;0.0024434609804302454
01:00:0A:00:00:00:00;1726877415;21/09/24;00:10:15;1.009;0.002;0.161;0.0012217304902151227;-0.010995574295520782;0.004886921960860491
01:00:0A:00:00:00:00;1726877416;21/09/24;00:10:16;1.007;0.001;0.162;0.0024434609804302454;-0.010995574295520782;0.0024434609804302454
01:00:0A:00:00:00:00;1726877417;21/09/24;00:10:17;1.007;0.002;0.16;0.0024434609804302454;-0.010995574295520782;0.0024434609804302454
01:00:0A:00:00:00:00;1726877418;21/09/24;00:10:18;1.009;0.002;0.161;0.0012217304902151227;-0.012217304669320583;0.004886921960860491
01:00:0A:00:00:00:00;1726877419;21/09/24;00:10:19;1.009;0.001;0.162;0.0024434609804302454;-0.010995574295520782;0.0024434609804302454
01:00:0A:00:00:00:00;1726877420;21/09/24;00:10:20;1.008;0.003;0.162;0.0024434609804302454;-0.009773843921720982;0.0024434609804302454
01:00:0A:00:00:00:00;1726877421;21/09/24;00:10:21;1.008;0.001;0.161;0.0024434609804302454;-0.010995574295520782;0.006108652334660292
01:00:0A:00:00:00:00;1726877422;21/09/24;00:10:22;1.008;0.001;0.161;0.0036651913542300463;-0.010995574295520782;0.0012217304902151227
01:00:0A:00:00:00:00;1726877423;21/09/24;00:10:23;1.007;0.002;0.16;0.0036651913542300463;-0.010995574295520782;0.0024434609804302454
01:00:0A:00:00:00:00;1726877424;21/09/24;00:10:24;1.008;0.0;0.162;0.0024434609804302454;-0.012217304669320583;0.004886921960860491
01:00:0A:00:00:00:00;1726877425;21/09/24;00:10:25;1.008;0.001;0.162;0.0036651913542300463;-0.010995574295520782;0.0036651913542300463
01:00:0A:00:00:00:00;1726877426;21/09/24;00:10:26;1.008;0.002;0.162;0.004886921960860491;-0.009773843921720982;0.0024434609804302454
01:00:0A:00:00:00:00;1726877427;21/09/24;00:10:27;1.007;0.002;0.162;0.0036651913542300463;-0.010995574295520782;0.004886921960860491
01:00:0A:00:00:00:00;1726877428;21/09/24;00:10:28;1.008;0.001;0.161;0.0036651913542300463;-0.010995574295520782;0.0024434609804302454
01:00:0A:00:00:00:00;1726877429;21/09/24;00:10:29;1.007;0.001;0.161;0.004886921960860491;-0.010995574295520782;0.0024434609804302454
01:00:0A:00:00:00:00;1726877430;21/09/24;00:10:30;1.009;0.002;0.162;0.0036651913542300463;-0.012217304669320583;0.004886921960860491
01:00:0A:00:00:00:00;1726877431;21/09/24;00:10:31;1.009;0.0;0.162;0.004886921960860491;-0.010995574295520782;0.0024434609804302454
01:00:0A:00:00:00:00;1726877432;21/09/24;00:10:32;1.008;0.002;0.161;0.004886921960860491;-0.009773843921720982;0.0024434609804302454
01:00:0A:00:00:00:00;1726877433;21/09/24;00:10:33;1.008;0.003;0.162;0.0036651913542300463;-0.010995574295520782;0.006108652334660292
01:00:0A:00:00:00:00;1726877434;21/09/24;00:10:34;1.007;0.001;0.161;0.004886921960860491;-0.010995574295520782;0.0024434609804302454
01:00:0A:00:00:00:00;1726877435;21/09/24;00:10:35;1.009;0.002;0.162;0.004886921960860491;-0.010995574295520782;0.0024434609804302454
01:00:0A:00:00:00:00;1726877436;21/09/24;00:10:36;1.007;0.002;0.161;0.0036651913542300463;-0.012217304669320583;0.004886921960860491
01:00:0A:00:00:00:00;1726877437;21/09/24;00:10:37;1.009;0.001;0.161;0.004886921960860491;-0.010995574295520782;0.0036651913542300463
01:00:0A:00:00:00:00;1726877438;21/09/24;00:10:38;1.007;0.003;0.162;0.006108652334660292;-0.009773843921720982;0.0024434609804302454
01:00:0A:00:00:00:00;1726877439;21/09/24;00:10:39;1.008;0.002;0.161;0.004886921960860491;-0.010995574295520782;0.006108652334660292
01:00:0A:00:00:00:00;1726877440;21/09/24;00:10:40;1.007;0.0;0.161;0.004886921960860491;-0.010995574295520782;0.0036651913542300463
01:00:0A:00:00:00:00;1726877441;21/09/24;00:10:41;1.008;0.002;0.161;0.006108652334660292;-0.010995574295520782;0.0024434609804302454
01:00:0A:00:00:00:00;1726877442;21/09/24;00:10:42;1.008;0.001;0.161;0.004886921960860491;-0.010995574295520782;0.004886921960860491
01:00:0A:00:00:00:00;1726877443;21/09/24;00:10:43;1.008;0.001;0.162;0.006108652334660292;-0.010995574295520782;0.0024434609804302454
01:00:0A:00:00:00:00;1726877444;21/09/24;00:10:44;1.007;0.002;0.162;0.006108652334660292;-0.009773843921720982;0.0024434609804302454
01:00:0A:00:00:00:00;1726877445;21/09/24;00:10:45;1.008;0.002;0.161;0.004886921960860491;-0.010995574295520782;0.006108652334660292
01:00:0A:00:00:00:00;1726877446;21/09/24;00:10:46;1.007;0.0;0.161;0.004886921960860491;-0.010995574295520782;0.0024434609804302454
01:00:0A:00:00:00:00;1726877447;21/09/24;00:10:47;1.008;0.001;0.162;0.006108652334660292;-0.010995574295520782;0.0012217304902151227
01:00:0A:00:00:00:00;1726877448;21/09/24;00:10:48;1.008;0.002;0.162;0.004886921960860491;-0.010995574295520782;0.004886921960860491
01:00:0A:00:00:00:00;1726877449;21/09/24;00:10:49;1.008;0.001;0.162;0.004886921960860491;-0.010995574295520782;0.0024434609804302454
01:00:0A:00:00:00:00;1726877450;21/09/24;00:10:50;1.008;0.002;0.161;0.004886921960860491;-0.009773843921720982;0.0024434609804302454
01:00:0A:00:00:00:00;1726877451;21/09/24;00:10:51;1.007;0.002;0.161;0.0036651913542300463;-0.010995574295520782;0.004886921960860491
01:00:0A:00:00:00:00;1726877452;21/09/24;00:10:52;1.007;0.0;0.161;0.004886921960860491;-0.010995574295520782;0.0036651913542300463
01:00:0A:00:00:00:00;1726877453;21/09/24;00:10:53;1.008;0.002;0.162;0.004886921960860491;-0.010995574295520782;0.0024434609804302454
01:00:0A:00:00:00:00;1726877454;21/09/24;00:10:54;1.008;0.001;0.162;0.0036651913542300463;-0.010995574295520782;0.004886921960860491
01:00:0A:00:00:00:00;1726877455;21/09/24;00:10:55;1.008;0.001;0.161;0.0036651913542300463;-0.010995574295520782;0.0036651913542300463
01:00:0A:00:00:00:00;1726877456;21/09/24;00:10:56;1.008;0.002;0.161;0.004886921960860491;-0.009773843921720982;0.0024434609804302454
01:00:0A:00:00:00:00;1726877457;21/09/24;00:10:57;1.008;0.001;0.161;0.0036651913542300463;-0.010995574295520782;0.006108652334660292
01:00:0A:00:00:00:00;1726877458;21/09/24;00:10:58;1.009;0.0;0.161;0.0036651913542300463;-0.010995574295520782;0.0024434609804302454
01:00:0A:00:00:00:00;1726877459;21/09/24;00:10:59;1.008;0.002;0.162;0.004886921960860491;-0.010995574295520782;0.0012217304902151227
01:00:0A:00:00:00:00;1726877460;21/09/24;00:11:00;1.008;0.002;0.161;0.0024434609804302454;-0.010995574295520782;0.004886921960860491
01:00:0A:00:00:00:00;1726877461;21/09/24;00:11:01;1.008;0.001;0.161;0.0036651913542300463;-0.010995574295520782;0.0036651913542300463
01:00:0A:00:00:00:00;1726877462;21/09/24;00:11:02;1.007;0.002;0.16;0.0036651913542300463;-0.009773843921720982;0.0012217304902151227
01:00:0A:00:00:00:00;1726877463;21/09/24;00:11:03;1.006;0.001;0.162;0.0036651913542300463;-0.010995574295520782;0.004886921960860491
01:00:0A:00:00:00:00;1726877464;21/09/24;00:11:04;1.008;0.0;0.161;0.0036651913542300463;-0.010995574295520782;0.0036651913542300463
01:00:0A:00:00:00:00;1726877465;21/09/24;00:11:05;1.008;0.002;0.161;0.0036651913542300463;-0.010995574295520782;0.0012217304902151227
01:00:0A:00:00:00:00;1726877466;21/09/24;00:11:06;1.008;0.002;0.162;0.0036651913542300463;-0.010995574295520782;0.004886921960860491
01:00:0A:00:00:00:00;1726877467;21/09/24;00:11:07;1.008;0.0;0.161;0.0036651913542300463;-0.010995574295520782;0.0036651913542300463
01:00:0A:00:00:00:00;1726877468;21/09/24;00:11:08;1.008;0.002;0.161;0.004886921960860491;-0.009773843921720982;0.0012217304902151227
01:00:0A:00:00:00:00;1726877469;21/09/24;00:11:09;1.007;0.002;0.161;0.0036651913542300463;-0.010995574295520782;0.004886921960860491
01:00:0A:00:00:00:00;1726877470;21/09/24;00:11:10;1.009;0.001;0.16;0.0036651913542300463;-0.010995574295520782;0.0036651913542300463
01:00:0A:00:00:00:00;1726877471;21/09/24;00:11:11;1.009;0.001;0.161;0.0036651913542300463;-0.010995574295520782;0.0012217304902151227
01:00:0A:00:00:00:00;1726877472;21/09/24;00:11:12;1.008;0.003;0.162;0.0024434609804302454;-0.010995574295520782;0.004886921960860491
01:00:0A:00:00:00:00;1726877473;21/09/24;00:11:13;1.007;0.001;0.161;0.0024434609804302454;-0.010995574295520782;0.0036651913542300463
01:00:0A:00:00:00:00;1726877474;21/09/24;00:11:14;1.008;0.005;0.157;-0.02076941914856434;-0.009773843921720982;-0.0012217304902151227
01:00:0A:00:00:00:00;1726877475;21/09/24;00:11:15;1.007;0.001;0.162;-0.0354301817715168;-0.0073303827084600925;0.0012217304902151227
01:00:0A:00:00:00:00;1726877476;21/09/24;00:11:16;1.008;0.0;0.162;-0.03420845419168472;-0.015882495790719986;-0.0036651913542300463
01:00:0A:00:00:00:00;1726877477;21/09/24;00:11:17;1.009;0.004;0.159;-0.03298672288656235;-0.010995574295520782;-0.0024434609804302454
01:00:0A:00:00:00:00;1726877478;21/09/24;00:11:18;1.008;0.003;0.162;-0.03176499158143997;-0.00855211354792118;0.0012217304902151227
01:00:0A:00:00:00:00;1726877479;21/09/24;00:11:19;1.007;0.0;0.162;-0.02932153083384037;-0.014660765416920185;-0.0024434609804302454
01:00:0A:00:00:00:00;1726877480;21/09/24;00:11:20;1.008;0.002;0.16;-0.02932153083384037;-0.010995574295520782;-0.0024434609804302454
01:00:0A:00:00:00:00;1726877481;21/09/24;00:11:21;1.008;0.003;0.161;-0.02932153083384037;-0.009773843921720982;0.0012217304902151227
01:00:0A:00:00:00:00;1726877482;21/09/24;00:11:22;1.008;0.0;0.162;-0.028099799528717995;-0.013439035043120384;-0.0012217304902151227
01:00:0A:00:00:00:00;1726877483;21/09/24;00:11:23;1.008;0.002;0.161;-0.028099799528717995;-0.010995574295520782;-0.0024434609804302454
01:00:0A:00:00:00:00;1726877484;21/09/24;00:11:24;1.007;0.002;0.161;-0.028099799528717995;-0.009773843921720982;0.0012217304902151227
01:00:0A:00:00:00:00;1726877485;21/09/24;00:11:25;1.006;0.001;0.16;-0.028099799528717995;-0.013439035043120384;-0.0012217304902151227
01:00:0A:00:00:00:00;1726877486;21/09/24;00:11:26;1.007;0.001;0.16;-0.02687807008624077;-0.010995574295520782;-0.0024434609804302454
01:00:0A:00:00:00:00;1726877487;21/09/24;00:11:27;1.008;0.002;0.162;-0.028099799528717995;-0.010995574295520782;0.0012217304902151227
01:00:0A:00:00:00:00;1726877488;21/09/24;00:11:28;1.009;0.001;0.161;-0.028099799528717995;-0.013439035043120384;-0.0012217304902151227
01:00:0A:00:00:00:00;1726877489;21/09/24;00:11:29;1.009;0.002;0.16;-0.02687807008624077;-0.010995574295520782;-0.0024434609804302454
01:00:0A:00:00:00:00;1726877490;21/09/24;00:11:30;1.008;0.003;0.161;-0.02687807008624077;-0.010995574295520782;0.0012217304902151227
01:00:0A:00:00:00:00;1726877491;21/09/24;00:11:31;1.008;0.001;0.161;-0.02687807008624077;-0.013439035043120384;-0.0012217304902151227
01:00:0A:00:00:00:00;1726877492;21/09/24;00:11:32;1.008;0.002;0.16;-0.025656338781118393;-0.010995574295520782;-0.0024434609804302454
01:00:0A:00:00:00:00;1726877493;21/09/24;00:11:33;1.007;0.003;0.162;-0.025656338781118393;-0.010995574295520782;0.0012217304902151227
01:00:0A:00:00:00:00;1726877494;21/09/24;00:11:34;1.008;0.002;0.161;-0.025656338781118393;-0.013439035043120384;0.0
01:00:0A:00:00:00:00;1726877495;21/09/24;00:11:35;1.008;0.003;0.161;-0.024434609338641167;-0.009773843921720982;-0.0024434609804302454
01:00:0A:00:00:00:00;1726877496;21/09/24;00:11:36;1.009;0.003;0.162;-0.025656338781118393;-0.010995574295520782;0.0012217304902151227
01:00:0A:00:00:00:00;1726877497;21/09/24;00:11:37;1.008;0.001;0.161;-0.024434609338641167;-0.012217304669320583;0.0
01:00:0A:00:00:00:00;1726877498;21/09/24;00:11:38;1.008;0.002;0.161;-0.02321287989616394;-0.009773843921720982;-0.0024434609804302454
01:00:0A:00:00:00:00;1726877499;21/09/24;00:11:39;1.008;0.002;0.162;-0.024434609338641167;-0.012217304669320583;0.0012217304902151227
01:00:0A:00:00:00:00;1726877500;21/09/24;00:11:40;1.008;0.0;0.16;-0.024434609338641167;-0.013439035043120384;0.0
01:00:0A:00:00:00:00;1726877501;21/09/24;00:11:41;1.008;0.001;0.16;-0.02321287989616394;-0.009773843921720982;-0.0012217304902151227
01:00:0A:00:00:00:00;1726877502;21/09/24;00:11:42;1.008;0.002;0.162;-0.02321287989616394;-0.012217304669320583;0.0012217304902151227
01:00:0A:00:00:00:00;1726877503;21/09/24;00:11:43;1.008;0.0;0.161;-0.02321287989616394;-0.013439035043120384;0.0
01:00:0A:00:00:00:00;1726877504;21/09/24;00:11:44;1.008;0.002;0.161;-0.02321287989616394;-0.009773843921720982;-0.0012217304902151227
01:00:0A:00:00:00:00;1726877505;21/09/24;00:11:45;1.008;0.003;0.162;-0.02321287989616394;-0.012217304669320583;0.0012217304902151227
01:00:0A:00:00:00:00;1726877506;21/09/24;00:11:46;1.008;0.001;0.16;-0.021991148591041565;-0.013439035043120384;0.0
01:00:0A:00:00:00:00;1726877507;21/09/24;00:11:47;1.008;0.003;0.162;-0.021991148591041565;-0.009773843921720982;-0.0012217304902151227
01:00:0A:00:00:00:00;1726877508;21/09/24;00:11:48;1.008;0.001;0.162;-0.021991148591041565;-0.012217304669320583;0.0012217304902151227
01:00:0A:00:00:00:00;1726877509;21/09/24;00:11:49;1.009;0.0;0.161;-0.02076941914856434;-0.013439035043120384;0.0012217304902151227
01:00:0A:00:00:00:00;1726877510;21/09/24;00:11:50;1.008;0.002;0.162;-0.02076941914856434;-0.010995574295520782;0.0
01:00:0A:00:00:00:00;1726877511;21/09/24;00:11:51;1.005;0.0;0.16;-0.02076941914856434;-0.014660765416920185;0.0012217304902151227
01:00:0A:00:00:00:00;1726877512;21/09/24;00:11:52;0.997;0.001;0.155;-0.019547687843441963;-0.019547687843441963;0.0024434609804302454
01:00:0A:00:00:00:00;1726877513;21/09/24;00:11:53;0.999;0.001;0.164;-0.018325956538319588;-0.018325956538319588;0.0012217304902151227
01:00:0A:00:00:00:00;1726877514;21/09/24;00:11:54;1.022;0.001;0.17;-0.015882495790719986;-0.02076941914856434;-0.010995574295520782
01:00:0A:00:00:00:00;1726877515;21/09/24;00:11:55;1.036;0.009;0.152;-0.019547687843441963;-0.028099799528717995;-0.0036651913542300463
01:00:0A:00:00:00:00;1726877516;21/09/24;00:11:56;1.028;0.017;0.151;-0.013439035043120384;-0.0354301817715168;-0.036651913076639175
01:00:0A:00:00:00:00;1726877517;21/09/24;00:11:57;1.001;0.087;0.158;-0.04642575979232788;-0.014660765416920185;0.05375614017248154
01:00:0A:00:00:00:00;1726877518;21/09/24;00:11:58;0.96;-0.121;0.142;-0.018325956538319588;0.040317103266716;0.2321287840604782
01:00:0A:00:00:00:00;1726877519;21/09/24;00:11:59;0.958;-0.029;0.187;0.22602014243602753;-0.10873401165008545;-0.2638937830924988
01:00:0A:00:00:00:00;1726877520;21/09/24;00:12:00;1.009;-0.009;0.056;0.14416420459747314;-0.12950342893600464;0.20891590416431427
01:00:0A:00:00:00:00;1726877521;21/09/24;00:12:01;1.025;-0.223;0.13;0.3152064383029938;0.28099802136421204;-0.25534167885780334
01:00:0A:00:00:00:00;1726877522;21/09/24;00:12:02;0.969;0.155;0.407;0.28588491678237915;-0.2431243658065796;0.10384709388017654
01:00:0A:00:00:00:00;1726877523;21/09/24;00:12:03;1.034;-0.126;-0.06;0.24556782841682434;-0.08796459436416626;0.2541199326515198
01:00:0A:00:00:00:00;1726877524;21/09/24;00:12:04;0.985;0.058;0.308;0.3848450779914856;0.3677408695220947;-0.22846359014511108
01:00:0A:00:00:00:00;1726877525;21/09/24;00:12:05;1.009;-0.008;0.018;0.26145032048225403;-0.38240164518356323;0.3274237811565399
01:00:0A:00:00:00:00;1726877526;21/09/24;00:12:06;0.975;-0.107;0.152;0.34574973583221436;0.31031954288482666;-0.09773843735456467
01:00:0A:00:00:00:00;1726877527;21/09/24;00:12:07;0.948;0.023;0.215;0.2993239760398865;-0.18570303916931152;0.10995574295520782
01:00:0A:00:00:00:00;1726877528;21/09/24;00:12:08;0.959;-0.066;0.171;0.294437050819397;-0.04642575979232788;0.01710422709584236
01:00:0A:00:00:00:00;1726877529;21/09/24;00:12:09;1.017;-0.02;0.164;0.2626720666885376;-0.10751228034496307;-0.05497787147760391
01:00:0A:00:00:00:00;1726877530;21/09/24;00:12:10;1.077;0.002;0.113;0.14905111491680145;0.03420845419168472;0.1661553531885147
01:00:0A:00:00:00:00;1726877531;21/09/24;00:12:11;1.053;-0.076;0.274;0.17592918872833252;-0.09407324343919754;-0.013439035043120384
01:00:0A:00:00:00:00;1726877532;21/09/24;00:12:12;1.017;0.155;-0.018;0.23579397797584534;-0.2528982162475586;-0.16859880089759827
01:00:0A:00:00:00:00;1726877533;21/09/24;00:12:13;0.961;-0.119;0.275;0.19792033731937408;0.4056144952774048;0.2981022298336029
01:00:0A:00:00:00:00;1726877534;21/09/24;00:12:14;0.975;-0.058;0.039;-0.09162978082895279;-0.2785545289516449;-0.29077184200286865
01:00:0A:00:00:00:00;1726877535;21/09/24;00:12:15;0.966;-0.045;0.165;-0.025656338781118393;0.1966986060142517;0.46547931432724
01:00:0A:00:00:00:00;1726877536;21/09/24;00:12:16;1.005;-0.07;0.201;0.47280970215797424;0.5546656250953674;-0.042760565876960754
01:00:0A:00:00:00:00;1726877537;21/09/24;00:12:17;1.026;-0.06;0.194;1.411098599433899;0.27000245451927185;0.5436700582504272
01:00:0A:00:00:00:00;1726877538;21/09/24;00:12:18;1.001;-0.068;0.336;1.4501941204071045;-0.04886921867728233;0.2174680233001709
01:00:0A:00:00:00:00;1726877539;21/09/24;00:12:19;1.015;-0.084;-0.055;1.4587461948394775;-0.11362093687057495;0.1111774742603302
01:00:0A:00:00:00:00;1726877540;21/09/24;00:12:20;0.971;0.1;0.07;2.169793128967285;0.05009094998240471;-0.1918116807937622
01:00:0A:00:00:00:00;1726877541;21/09/24;00:12:21;0.961;0.017;0.202;1.9352210760116577;0.5998696088790894;0.09407324343919754
01:00:0A:00:00:00:00;1726877542;21/09/24;00:12:22;0.958;0.078;0.214;1.7214182615280151;-0.02687807008624077;0.607200026512146
01:00:0A:00:00:00:00;1726877543;21/09/24;00:12:23;0.928;0.172;0.386;0.6365215182304382;0.3433062732219696;0.4056144952774048
01:00:0A:00:00:00:00;1726877544;21/09/24;00:12:24;0.972;0.022;0.373;0.8002334833145142;-0.3836233615875244;0.5619960427284241
01:00:0A:00:00:00:00;1726877545;21/09/24;00:12:25;1.016;-0.285;0.069;1.9547687768936157;0.030543262138962746;0.36651912331581116
01:00:0A:00:00:00:00;1726877546;21/09/24;00:12:26;0.985;0.214;0.151;1.8264870643615723;-0.19792033731937408;0.042760565876960754
01:00:0A:00:00:00:00;1726877547;21/09/24;00:12:27;0.965;-0.026;0.242;1.567480206489563;0.5852089524269104;0.3494149148464203
01:00:0A:00:00:00:00;1726877548;21/09/24;00:12:28;0.975;0.014;0.034;1.4844024181365967;0.0073303827084600925;0.6597344279289246
01:00:0A:00:00:00:00;1726877549;21/09/24;00:12:29;0.952;0.043;0.332;1.5234979391098022;0.445931613445282;-0.036651913076639175
01:00:0A:00:00:00:00;1726877550;21/09/24;00:12:30;0.982;0.162;0.275;1.0824532508850098;-0.02687807008624077;1.2315043210983276
01:00:0A:00:00:00:00;1726877551;21/09/24;00:12:31;0.825;-0.299;0.641;1.2486084699630737;0.02687807008624077;0.23090705275535583
01:00:0A:00:00:00:00;1726877552;21/09/24;00:12:32;1.048;-0.042;0.239;1.0934487581253052;-0.4398229718208313;0.445931613445282
01:00:0A:00:00:00:00;1726877553;21/09/24;00:12:33;1.019;-0.198;0.064;1.1435396671295166;-0.1258382350206375;0.1673770695924759
01:00:0A:00:00:00:00;1726877554;21/09/24;00:12:34;0.885;0.229;0.258;1.1154398918151855;0.22113320231437683;-0.46303585171699524
01:00:0A:00:00:00:00;1726877555;21/09/24;00:12:35;0.95;-0.083;0.196;0.6963863372802734;0.13561207056045532;0.9382889866828918
01:00:0A:00:00:00:00;1726877556;21/09/24;00:12:36;0.943;-0.064;0.316;0.9004153609275818;-0.5412266254425049;-0.22113320231437683
01:00:0A:00:00:00:00;1726877557;21/09/24;00:12:37;1.049;-0.124;0.033;0.8087855577468872;0.1576032191514969;0.1722639948129654
01:00:0A:00:00:00:00;1726877558;21/09/24;00:12:38;1.03;-0.128;0.333;0.8197811245918274;-0.3799581527709961;0.08185594528913498
01:00:0A:00:00:00:00;1726877559;21/09/24;00:12:39;1.039;-0.178;-0.193;0.739146888256073;-0.2773328125476837;0.21502456068992615
01:00:0A:00:00:00:00;1726877560;21/09/24;00:12:40;0.92;0.258;0.477;0.7428121566772461;0.48869219422340393;-0.4447098970413208
01:00:0A:00:00:00:00;1726877561;21/09/24;00:12:41;1.02;-0.08;0.037;0.43737950921058655;-0.3323107063770294;0.5852089524269104
01:00:0A:00:00:00:00;1726877562;21/09/24;00:12:42;0.981;-0.003;0.064;0.6010913848876953;0.12095131725072861;-0.25534167885780334
01:00:0A:00:00:00:00;1726877563;21/09/24;00:12:43;0.994;-0.015;0.071;0.46303585171699524;0.006108652334660292;0.34697145223617554
01:00:0A:00:00:00:00;1726877564;21/09/24;00:12:44;1.053;-0.11;0.185;0.5387831330299377;0.13316862285137177;-0.1368338167667389
01:00:0A:00:00:00:00;1726877565;21/09/24;00:12:45;1.034;0.318;0.011;0.3738495111465454;-0.059864792972803116;0.01710422709584236
01:00:0A:00:00:00:00;1726877566;21/09/24;00:12:46;1.002;-0.306;0.254;0.24434609711170197;0.2590068578720093;0.5204571485519409
01:00:0A:00:00:00:00;1726877567;21/09/24;00:12:47;0.983;0.368;-0.02;0.3188716471195221;-0.3237585723400116;-0.4153883755207062
01:00:0A:00:00:00:00;1726877568;21/09/24;00:12:48;0.981;-0.133;0.336;0.010995574295520782;0.49846604466438293;0.48380526900291443
01:00:0A:00:00:00:00;1726877569;21/09/24;00:12:49;0.999;0.083;0.27;0.12950342893600464;-0.2883284091949463;-0.313984751701355
01:00:0A:00:00:00:00;1726877570;21/09/24;00:12:50;0.998;-0.022;-0.1;-0.03787364438176155;-0.1820378452539444;0.2675589621067047
01:00:0A:00:00:00:00;1726877571;21/09/24;00:12:51;0.96;-0.016;0.36;-0.024434609338641167;0.5900958180427551;-0.07941248267889023
01:00:0A:00:00:00:00;1726877572;21/09/24;00:12:52;1.005;0.056;0.064;-0.012217304669320583;-0.5241223573684692;0.006108652334660292
01:00:0A:00:00:00:00;1726877573;21/09/24;00:12:53;0.938;0.017;0.174;-0.040317103266716;0.35552355647087097;0.09529497474431992
01:00:0A:00:00:00:00;1726877574;21/09/24;00:12:54;0.937;0.02;0.071;-0.0012217304902151227;-0.6511822938919067;0.030543262138962746
01:00:0A:00:00:00:00;1726877575;21/09/24;00:12:55;0.947;0.114;0.003;0.07696902006864548;0.6352998614311218;-0.2773328125476837
01:00:0A:00:00:00:00;1726877576;21/09/24;00:12:56;0.871;0.275;0.37;-0.006108652334660292;0.5106833577156067;0.5302309989929199
01:00:0A:00:00:00:00;1726877577;21/09/24;00:12:57;0.722;-0.377;0.61;0.03176499158143997;-1.0690141916275024;0.7648032903671265
01:00:0A:00:00:00:00;1726877578;21/09/24;00:12:58;0.987;-0.187;0.134;1.0763444900512695;-0.5815436840057373;-0.846659243106842
01:00:0A:00:00:00:00;1726877579;21/09/24;00:12:59;1.014;-0.248;0.033;0.9443976283073425;-0.3494149148464203;0.17104226350784302
01:00:0A:00:00:00:00;1726877580;21/09/24;00:13:00;0.941;0.06;-0.285;1.214400053024292;0.12095131725072861;-1.1508700847625732
01:00:0A:00:00:00:00;1726877581;21/09/24;00:13:01;0.949;0.25;0.09;0.891863226890564;0.8588765263557434;-0.028099799528717995
01:00:0A:00:00:00:00;1726877582;21/09/24;00:13:02;0.961;0.082;0.263;0.6756169199943542;-0.013439035043120384;0.39706242084503174
01:00:0A:00:00:00:00;1726877583;21/09/24;00:13:03;1.005;0.016;0.125;0.607200026512146;-0.07452555745840073;-0.251676470041275
01:00:0A:00:00:00:00;1726877584;21/09/24;00:13:04;1.027;0.139;0.124;0.42760565876960754;0.3933972120285034;-0.036651913076639175
01:00:0A:00:00:00:00;1726877585;21/09/24;00:13:05;1.0;0.219;0.235;0.39584067463874817;0.4911356568336487;-0.16249015927314758
01:00:0A:00:00:00:00;1726877586;21/09/24;00:13:06;0.862;0.166;0.616;0.12461651116609573;0.48258352279663086;0.4605923891067505
01:00:0A:00:00:00:00;1726877587;21/09/24;00:13:07;0.876;-0.659;0.158;0.3897320330142975;-0.5644394755363464;0.6304128766059875
01:00:0A:00:00:00:00;1726877588;21/09/24;00:13:08;1.0;-0.399;-0.171;0.872315526008606;-0.7538076639175415;-0.6304128766059875
01:00:0A:00:00:00:00;1726877589;21/09/24;00:13:09;0.899;0.206;-0.354;0.7037167549133301;0.6157521605491638;-0.656069278717041
01:00:0A:00:00:00:00;1726877590;21/09/24;00:13:10;0.884;0.28;0.354;0.46792274713516235;1.1948524713516235;0.4605923891067505
01:00:0A:00:00:00:00;1726877591;21/09/24;00:13:11;0.918;0.083;0.399;0.3689626157283783;-0.1576032191514969;1.2388347387313843
01:00:0A:00:00:00:00;1726877592;21/09/24;00:13:12;0.87;-0.493;0.284;0.6352998614311218;-0.9517280459403992;0.17104226350784302
01:00:0A:00:00:00:00;1726877593;21/09/24;00:13:13;1.011;-0.297;-0.148;0.9126326441764832;-0.24678954482078552;-0.39828410744667053
01:00:0A:00:00:00:00;1726877594;21/09/24;00:13:14;1.043;0.018;0.087;0.9346237778663635;0.20402899384498596;0.00855211354792118
01:00:0A:00:00:00:00;1726877595;21/09/24;00:13:15;0.989;-0.017;0.203;0.9260717034339905;0.18570303916931152;0.10262535512447357
01:00:0A:00:00:00:00;1726877596;21/09/24;00:13:16;0.979;0.1;-0.074;0.940732479095459;0.375071257352829;-0.09773843735456467
01:00:0A:00:00:00:00;1726877597;21/09/24;00:13:17;0.945;0.197;0.297;0.7159340977668762;0.8649851679801941;0.6108652353286743
01:00:0A:00:00:00:00;1726877598;21/09/24;00:13:18;0.827;-0.001;0.578;0.48380526900291443;-0.31154125928878784;1.3524556159973145
01:00:0A:00:00:00:00;1726877599;21/09/24;00:13:19;0.835;-0.474;0.273;0.8014551997184753;-1.1178834438323975;0.3152064383029938
01:00:0A:00:00:00:00;1726877600;21/09/24;00:13:20;1.003;-0.286;0.003;1.0958921909332275;-0.436157763004303;-0.2724458873271942
01:00:0A:00:00:00:00;1726877601;21/09/24;00:13:21;0.989;0.151;0.199;1.0531316995620728;0.3995058536529541;-0.20647244155406952
01:00:0A:00:00:00:00;1726877602;21/09/24;00:13:22;0.967;-0.152;0.163;0.862541675567627;-0.1368338167667389;0.5473352670669556
01:00:0A:00:00:00:00;1726877603;21/09/24;00:13:23;0.978;-0.035;-0.137;1.0848965644836426;-0.5119050741195679;-0.42638394236564636
01:00:0A:00:00:00:00;1726877604;21/09/24;00:13:24;1.022;-0.078;-0.113;1.0054842233657837;0.5949827432632446;-0.11728612333536148
01:00:0A:00:00:00:00;1726877605;21/09/24;00:13:25;0.987;0.262;0.254;0.8222246170043945;0.1160643920302391;0.18081611394882202
01:00:0A:00:00:00:00;1726877606;21/09/24;00:13:26;1.027;-0.258;0.196;0.8087855577468872;-0.2541199326515198;0.06230825558304787
01:00:0A:00:00:00:00;1726877607;21/09/24;00:13:27;1.008;0.029;-0.334;0.6927211880683899;0.0036651913542300463;0.040317103266716
01:00:0A:00:00:00:00;1726877608;21/09/24;00:13:28;1.017;-0.002;0.341;0.5937609672546387;0.3323107063770294;0.012217304669320583
01:00:0A:00:00:00:00;1726877609;21/09/24;00:13:29;1.006;-0.006;0.271;0.42760565876960754;-0.10262535512447357;0.28588491678237915
01:00:0A:00:00:00:00;1726877610;21/09/24;00:13:30;1.007;-0.066;0.002;0.4801400899887085;-0.27611109614372253;-0.04153883829712868
01:00:0A:00:00:00:00;1726877611;21/09/24;00:13:31;0.967;0.216;0.089;0.5167919993400574;0.18936821818351746;-0.38240164518356323
01:00:0A:00:00:00:00;1726877612;21/09/24;00:13:32;0.948;0.213;0.18;0.2822197377681732;0.2919935882091522;0.47280970215797424
01:00:0A:00:00:00:00;1726877613;21/09/24;00:13:33;0.961;-0.09;0.284;0.23335053026676178;-0.05375614017248154;0.5167919993400574
01:00:0A:00:00:00:00;1726877614;21/09/24;00:13:34;0.992;-0.149;0.189;0.3799581527709961;-0.3799581527709961;-0.3946189284324646
01:00:0A:00:00:00:00;1726877615;21/09/24;00:13:35;1.011;0.157;-0.024;0.20402899384498596;0.30543261766433716;-0.05253440886735916
01:00:0A:00:00:00:00;1726877616;21/09/24;00:13:36;0.951;-0.03;0.462;0.08918632566928864;0.2675589621067047;0.27000245451927185
01:00:0A:00:00:00:00;1726877617;21/09/24;00:13:37;1.018;-0.215;0.126;0.20036379992961884;-0.4056144952774048;0.13316862285137177
01:00:0A:00:00:00:00;1726877618;21/09/24;00:13:38;0.979;0.081;0.114;0.3347541391849518;0.2370157092809677;-0.3286454975605011
01:00:0A:00:00:00:00;1726877619;21/09/24;00:13:39;0.955;-0.052;0.204;0.27122414112091064;0.051312677562236786;0.3689626157283783
01:00:0A:00:00:00:00;1726877620;21/09/24;00:13:40;0.951;0.016;0.174;0.39584067463874817;-0.06230825558304787;-0.27977627515792847
01:00:0A:00:00:00:00;1726877621;21/09/24;00:13:41;0.975;0.195;-0.009;0.27122414112091064;0.1820378452539444;0.18936821818351746
01:00:0A:00:00:00:00;1726877622;21/09/24;00:13:42;1.029;0.084;0.25;0.2687807083129883;0.10506881773471832;0.19058994948863983
01:00:0A:00:00:00:00;1726877623;21/09/24;00:13:43;1.056;-0.024;0.219;0.3347541391849518;-0.24678954482078552;0.013439035043120384
01:00:0A:00:00:00:00;1726877624;21/09/24;00:13:44;1.059;-0.014;-0.006;0.37140607833862305;-0.02687807008624077;-0.004886921960860491
01:00:0A:00:00:00:00;1726877625;21/09/24;00:13:45;0.938;0.138;0.353;0.34086278080940247;0.4080579876899719;-0.05742133408784866
01:00:0A:00:00:00:00;1726877626;21/09/24;00:13:46;0.959;-0.235;0.095;0.3384193480014801;-0.5656611919403076;0.5534439086914062
01:00:0A:00:00:00:00;1726877627;21/09/24;00:13:47;0.972;-0.139;0.136;0.6426302194595337;-0.039095375686883926;-0.5277875661849976
01:00:0A:00:00:00:00;1726877628;21/09/24;00:13:48;1.011;0.005;0.03;0.5485569834709167;0.08796459436416626;0.1368338167667389
01:00:0A:00:00:00:00;1726877629;21/09/24;00:13:49;1.04;-0.011;0.02;0.5448917746543884;0.16004669666290283;-0.24190263450145721
01:00:0A:00:00:00:00;1726877630;21/09/24;00:13:50;1.022;0.168;0.137;0.3530800938606262;0.17837265133857727;0.12095131725072861
01:00:0A:00:00:00:00;1726877631;21/09/24;00:13:51;1.028;-0.117;0.226;0.33719760179519653;0.04764748737215996;0.15393804013729095
01:00:0A:00:00:00:00;1726877632;21/09/24;00:13:52;1.027;0.122;0.14;0.3933972120285034;-0.02076941914856434;-0.2321287840604782
01:00:0A:00:00:00:00;1726877633;21/09/24;00:13:53;0.967;0.199;0.225;0.23945917189121246;0.34086278080940247;-0.08429940044879913
01:00:0A:00:00:00:00;1726877634;21/09/24;00:13:54;0.96;-0.125;0.283;0.07452555745840073;-0.10873401165008545;0.4105014204978943
01:00:0A:00:00:00:00;1726877635;21/09/24;00:13:55;0.988;-0.069;0.069;0.30054569244384766;-0.3836233615875244;-0.36529743671417236
01:00:0A:00:00:00:00;1726877636;21/09/24;00:13:56;0.972;0.098;0.211;0.2174680233001709;0.38728854060173035;-0.059864792972803116
01:00:0A:00:00:00:00;1726877637;21/09/24;00:13:57;0.963;-0.015;0.255;0.10018189996480942;-0.11362093687057495;0.14782939851284027
01:00:0A:00:00:00:00;1726877638;21/09/24;00:13:58;0.964;0.037;0.114;0.1368338167667389;0.004886921960860491;-0.3188716471195221
01:00:0A:00:00:00:00;1726877639;21/09/24;00:13:59;0.971;-0.013;0.19;-0.025656338781118393;0.20036379992961884;0.32131510972976685
01:00:0A:00:00:00:00;1726877640;21/09/24;00:14:00;0.992;-0.157;0.199;0.1368338167667389;-0.12217304855585098;-0.16004669666290283
01:00:0A:00:00:00:00;1726877641;21/09/24;00:14:01;1.016;0.081;0.097;0.1417207270860672;-0.03787364438176155;-0.10873401165008545
01:00:0A:00:00:00:00;1726877642;21/09/24;00:14:02;0.981;-0.007;0.179;0.10873401165008545;0.12095131725072861;0.09651670604944229
01:00:0A:00:00:00:00;1726877643;21/09/24;00:14:03;0.967;-0.023;0.169;0.1918116807937622;-0.12950342893600464;-0.19547687470912933
01:00:0A:00:00:00:00;1726877644;21/09/24;00:14:04;0.993;0.06;0.127;0.11728612333536148;0.1319468915462494;0.13927726447582245
01:00:0A:00:00:00:00;1726877645;21/09/24;00:14:05;1.037;-0.032;0.24;0.1661553531885147;-0.2834414541721344;-0.10018189996480942
01:00:0A:00:00:00:00;1726877646;21/09/24;00:14:06;1.079;0.076;-0.01;0.13561207056045532;0.12339477241039276;0.045204028487205505
01:00:0A:00:00:00:00;1726877647;21/09/24;00:14:07;0.998;-0.07;0.463;0.12461651116609573;0.1918116807937622;0.0659734457731247
01:00:0A:00:00:00:00;1726877648;21/09/24;00:14:08;1.05;0.051;-0.208;0.1722639948129654;-0.42271876335144043;-0.06352998316287994
01:00:0A:00:00:00:00;1726877649;21/09/24;00:14:09;0.966;-0.004;0.395;0.11850785464048386;0.6426302194595337;0.13805554807186127
01:00:0A:00:00:00:00;1726877650;21/09/24;00:14:10;1.02;-0.006;0.036;0.14905111491680145;-0.6059783101081848;0.08552113175392151
01:00:0A:00:00:00:00;1726877651;21/09/24;00:14:11;0.986;0.063;0.144;0.1514945775270462;0.322536826133728;-0.02932153083384037
01:00:0A:00:00:00:00;1726877652;21/09/24;00:14:12;0.949;-0.008;0.196;0.10506881773471832;-0.1319468915462494;0.1918116807937622
01:00:0A:00:00:00:00;1726877653;21/09/24;00:14:13;0.95;0.01;0.101;0.17592918872833252;-0.14294245839118958;-0.13805554807186127
01:00:0A:00:00:00:00;1726877654;21/09/24;00:14:14;0.94;0.052;0.173;0.10873401165008545;0.19303341209888458;0.08674286305904388
01:00:0A:00:00:00:00;1726877655;21/09/24;00:14:15;0.953;0.018;0.188;0.1111774742603302;-0.46792274713516235;0.009773843921720982
01:00:0A:00:00:00:00;1726877656;21/09/24;00:14:16;1.019;-0.011;0.069;0.1160643920302391;0.40194931626319885;-0.13439035415649414
01:00:0A:00:00:00:00;1726877657;21/09/24;00:14:17;0.973;0.057;0.369;0.0354301817715168;-0.26633724570274353;0.16371189057826996
01:00:0A:00:00:00:00;1726877658;21/09/24;00:14:18;1.033;-0.104;0.032;0.05497787147760391;0.03176499158143997;0.09529497474431992
01:00:0A:00:00:00:00;1726877659;21/09/24;00:14:19;0.997;0.022;0.221;0.1014036238193512;0.2822197377681732;-0.07941248267889023
01:00:0A:00:00:00:00;1726877660;21/09/24;00:14:20;1.016;-0.04;0.132;-0.2895500957965851;-0.09896016865968704;0.03176499158143997
01:00:0A:00:00:00:00;1726877661;21/09/24;00:14:21;1.043;-0.016;0.113;-0.20525071024894714;0.09162978082895279;-0.05009094998240471
01:00:0A:00:00:00:00;1726877662;21/09/24;00:14:22;1.036;-0.021;0.284;-0.20036379992961884;-0.10384709388017654;0.08552113175392151
01:00:0A:00:00:00:00;1726877663;21/09/24;00:14:23;1.07;0.042;0.022;-0.1722639948129654;-0.06719517707824707;0.04764748737215996
01:00:0A:00:00:00:00;1726877664;21/09/24;00:14:24;1.002;0.002;0.332;-0.1661553531885147;0.22968533635139465;0.09285151958465576
01:00:0A:00:00:00:00;1726877665;21/09/24;00:14:25;0.994;0.075;0.074;-0.09896016865968704;-0.33964109420776367;-0.18081611394882202
01:00:0A:00:00:00:00;1726877666;21/09/24;00:14:26;0.981;0.039;0.155;-0.15515977144241333;0.3323107063770294;0.0708603635430336
01:00:0A:00:00:00:00;1726877667;21/09/24;00:14:27;0.991;-0.041;0.24;-0.09407324343919754;-0.1270599663257599;-0.12950342893600464
01:00:0A:00:00:00:00;1726877668;21/09/24;00:14:28;1.035;0.073;0.069;-0.1111774742603302;-0.024434609338641167;-0.06719517707824707
01:00:0A:00:00:00:00;1726877669;21/09/24;00:14:29;1.022;-0.015;0.207;-0.1466076523065567;0.11850785464048386;0.06719517707824707
01:00:0A:00:00:00:00;1726877670;21/09/24;00:14:30;0.99;-0.032;0.188;-0.1111774742603302;-0.09407324343919754;-0.05375614017248154
01:00:0A:00:00:00:00;1726877671;21/09/24;00:14:31;0.963;0.031;0.125;-0.11728612333536148;-0.04398229718208313;-0.05009094998240471
01:00:0A:00:00:00:00;1726877672;21/09/24;00:14:32;0.951;-0.004;0.162;-0.15271630883216858;0.04642575979232788;0.11850785464048386
01:00:0A:00:00:00:00;1726877673;21/09/24;00:14:33;0.982;0.0;0.166;-0.07208210229873657;-0.18936821818351746;-0.22602014243602753
01:00:0A:00:00:00:00;1726877674;21/09/24;00:14:34;1.046;0.116;0.118;-0.161268413066864;0.07941248267889023;0.18936821818351746
01:00:0A:00:00:00:00;1726877675;21/09/24;00:14:35;1.033;-0.216;0.27;-0.04642575979232788;-0.05253440886735916;-0.19425514340400696
01:00:0A:00:00:00:00;1726877676;21/09/24;00:14:36;1.032;0.303;0.05;-0.09162978082895279;-0.030543262138962746;-0.13561207056045532
01:00:0A:00:00:00:00;1726877677;21/09/24;00:14:37;1.005;-0.214;0.36;0.059864792972803116;0.14538592100143433;0.2638937830924988
01:00:0A:00:00:00:00;1726877678;21/09/24;00:14:38;1.052;0.083;0.021;0.17470745742321014;-0.3274237811565399;-0.26145032048225403
01:00:0A:00:00:00:00;1726877679;21/09/24;00:14:39;0.983;0.004;0.193;0.06352998316287994;0.2834414541721344;0.17104226350784302
01:00:0A:00:00:00:00;1726877680;21/09/24;00:14:40;0.945;-0.01;0.147;0.11362093687057495;-0.24923302233219147;-0.05375614017248154
01:00:0A:00:00:00:00;1726877681;21/09/24;00:14:41;0.953;0.01;0.151;0.08674286305904388;0.17104226350784302;0.042760565876960754
01:00:0A:00:00:00:00;1726877682;21/09/24;00:14:42;0.985;0.012;0.219;0.07696902006864548;-0.17837265133857727;0.05375614017248154
01:00:0A:00:00:00:00;1726877683;21/09/24;00:14:43;1.058;-0.005;0.085;0.09896016865968704;0.16004669666290283;-0.028099799528717995
01:00:0A:00:00:00:00;1726877684;21/09/24;00:14:44;1.031;0.056;0.289;0.07819075137376785;0.024434609338641167;-0.0036651913542300463
01:00:0A:00:00:00:00;1726877685;21/09/24;00:14:45;1.038;-0.044;0.017;0.07941248267889023;-0.20525071024894714;0.014660765416920185
01:00:0A:00:00:00:00;1726877686;21/09/24;00:14:46;0.981;0.0;0.17;0.1111774742603302;0.17592918872833252;-0.09896016865968704
01:00:0A:00:00:00:00;1726877687;21/09/24;00:14:47;0.973;0.011;0.199;0.036651913076639175;-0.2431243658065796;0.12828169763088226
01:00:0A:00:00:00:00;1726877688;21/09/24;00:14:48;1.036;-0.036;0.082;0.08307767659425735;0.11972958594560623;-0.05375614017248154
01:00:0A:00:00:00:00;1726877689;21/09/24;00:14:49;1.035;0.074;0.254;0.059864792972803116;0.05619959905743599;-0.015882495790719986
01:00:0A:00:00:00:00;1726877690;21/09/24;00:14:50;1.051;-0.054;0.09;0.03420845419168472;-0.09285151958465576;0.10262535512447357
01:00:0A:00:00:00:00;1726877691;21/09/24;00:14:51;1.01;0.04;0.168;0.05742133408784866;0.10384709388017654;-0.07696902006864548
01:00:0A:00:00:00:00;1726877692;21/09/24;00:14:52;0.968;-0.012;0.149;-0.018325956538319588;-0.12950342893600464;0.21991148591041565
01:00:0A:00:00:00:00;1726877693;21/09/24;00:14:53;0.976;0.002;0.15;0.040317103266716;0.0073303827084600925;-0.04153883829712868
01:00:0A:00:00:00:00;1726877694;21/09/24;00:14:54;0.994;0.067;0.184;0.004886921960860491;-0.0354301817715168;0.06108652427792549
01:00:0A:00:00:00:00;1726877695;21/09/24;00:14:55;1.017;-0.01;0.145;0.019547687843441963;-0.045204028487205505;-0.018325956538319588
01:00:0A:00:00:00:00;1726877696;21/09/24;00:14:56;1.01;0.006;0.143;0.04886921867728233;0.021991148591041565;-0.10506881773471832
01:00:0A:00:00:00:00;1726877697;21/09/24;00:14:57;0.982;-0.001;0.175;0.02321287989616394;-0.012217304669320583;0.018325956538319588
01:00:0A:00:00:00:00;1726877698;21/09/24;00:14:58;0.975;-0.028;0.17;0.039095375686883926;-0.0659734457731247;-0.014660765416920185
01:00:0A:00:00:00:00;1726877699;21/09/24;00:14:59;1.003;-0.007;0.169;0.05009094998240471;0.036651913076639175;-0.036651913076639175
01:00:0A:00:00:00:00;1726877700;21/09/24;00:15:00;1.02;-0.004;0.185;0.02321287989616394;0.015882495790719986;0.06841690838336945
01:00:0A:00:00:00:00;1726877701;21/09/24;00:15:01;1.038;-0.027;0.146;0.028099799528717995;-0.0036651913542300463;0.05497787147760391
01:00:0A:00:00:00:00;1726877702;21/09/24;00:15:02;1.026;0.03;0.169;0.02687807008624077;0.013439035043120384;0.02932153083384037
01:00:0A:00:00:00:00;1726877703;21/09/24;00:15:03;1.018;0.013;0.164;0.014660765416920185;-0.006108652334660292;0.03176499158143997
01:00:0A:00:00:00:00;1726877704;21/09/24;00:15:04;1.012;-0.013;0.145;0.03176499158143997;0.009773843921720982;-0.024434609338641167
01:00:0A:00:00:00:00;1726877705;21/09/24;00:15:05;1.006;0.004;0.149;0.03176499158143997;0.040317103266716;-0.019547687843441963
01:00:0A:00:00:00:00;1726877706;21/09/24;00:15:06;0.992;-0.024;0.14;0.015882495790719986;-0.0024434609804302454;0.07452555745840073
01:00:0A:00:00:00:00;1726877707;21/09/24;00:15:07;0.987;-0.024;0.149;0.04642575979232788;-0.015882495790719986;-0.013439035043120384
