Source;Epoch timestamp (UTC);Date;Time (UTC);Accel X (G);Accel Y (G);Accel Z (G);Gyro X (rad/s);Gyro Y (rad/s);Gyro Z (rad/s)
01:00:0A:00:00:00:00;1727222387;24/09/24;23:59:47;1.025;0.025;0.155;0.1319468915462494;0.0036651913542300463;0.013439035043120384
01:00:0A:00:00:00:00;1727222388;24/09/24;23:59:48;1.02;0.029;0.153;0.13439035415649414;0.021991148591041565;0.009773843921720982
01:00:0A:00:00:00:00;1727222389;24/09/24;23:59:49;1.002;0.024;0.139;0.13439035415649414;0.018325956538319588;0.009773843921720982
01:00:0A:00:00:00:00;1727222390;24/09/24;23:59:50;0.993;0.026;0.132;0.1319468915462494;-0.0036651913542300463;0.012217304669320583
01:00:0A:00:00:00:00;1727222391;24/09/24;23:59:51;0.993;0.036;0.136;0.11972958594560623;-0.021991148591041565;0.025656338781118393
01:00:0A:00:00:00:00;1727222392;24/09/24;23:59:52;1.003;0.04;0.141;0.10506881773471832;-0.01710422709584236;0.02687807008624077
01:00:0A:00:00:00:00;1727222393;24/09/24;23:59:53;1.013;0.037;0.141;0.09896016865968704;-0.010995574295520782;0.01710422709584236
01:00:0A:00:00:00:00;1727222394;24/09/24;23:59:54;1.016;0.033;0.145;0.09773843735456467;-0.013439035043120384;0.00855211354792118
01:00:0A:00:00:00:00;1727222395;24/09/24;23:59:55;1.02;0.036;0.154;0.09040805697441101;0.0;0.00855211354792118
01:00:0A:00:00:00:00;1727222396;24/09/24;23:59:56;1.014;0.043;0.148;0.07452555745840073;0.015882495790719986;0.012217304669320583
01:00:0A:00:00:00:00;1727222397;24/09/24;23:59:57;1.011;0.045;0.149;0.051312677562236786;0.019547687843441963;0.014660765416920185
01:00:0A:00:00:00:00;1727222398;24/09/24;23:59:58;1.001;0.043;0.144;0.039095375686883926;0.014660765416920185;0.0073303827084600925
01:00:0A:00:00:00:00;1727222399;24/09/24;23:59:59;0.998;0.047;0.14;0.03176499158143997;-0.004886921960860491;-0.0012217304902151227
01:00:0A:00:00:00:00;1727222400;25/09/24;00:00:00;1.0;0.046;0.141;0.01710422709584236;-0.030543262138962746;0.0012217304902151227
01:00:0A:00:00:00:00;1727222401;25/09/24;00:00:01;1.007;0.04;0.148;0.0012217304902151227;-0.036651913076639175;0.00855211354792118
01:00:0A:00:00:00:00;1727222402;25/09/24;00:00:02;1.019;0.04;0.155;-0.00855211354792118;-0.02076941914856434;0.009773843921720982
01:00:0A:00:00:00:00;1727222403;25/09/24;00:00:03;1.018;0.043;0.153;-0.014660765416920185;0.00855211354792118;0.0012217304902151227
01:00:0A:00:00:00:00;1727222404;25/09/24;00:00:04;1.016;0.042;0.146;-0.021991148591041565;0.009773843921720982;-0.004886921960860491
01:00:0A:00:00:00:00;1727222405;25/09/24;00:00:05;1.003;0.042;0.135;-0.030543262138962746;-0.0012217304902151227;-0.0024434609804302454
01:00:0A:00:00:00:00;1727222406;25/09/24;00:00:06;1.007;-0.006;0.032;0.15882496535778046;-0.03787364438176155;0.04642575979232788
01:00:0A:00:00:00:00;1727222407;25/09/24;00:00:07;1.011;0.006;0.087;0.17959438264369965;0.10506881773471832;-0.04886921867728233
01:00:0A:00:00:00:00;1727222408;25/09/24;00:00:08;1.01;0.004;0.146;0.17837265133857727;-0.004886921960860491;0.05864306166768074
01:00:0A:00:00:00:00;1727222409;25/09/24;00:00:09;1.009;0.005;0.157;0.2321287840604782;-0.015882495790719986;-0.0073303827084600925
01:00:0A:00:00:00:00;1727222410;25/09/24;00:00:10;1.012;0.058;0.148;0.2174680233001709;-0.03298672288656235;-0.006108652334660292
01:00:0A:00:00:00:00;1727222411;25/09/24;00:00:11;1.017;0.063;0.137;0.14905111491680145;-0.0024434609804302454;0.02932153083384037
01:00:0A:00:00:00:00;1727222412;25/09/24;00:00:12;1.012;0.026;0.142;0.12095131725072861;0.02932153083384037;0.04886921867728233
01:00:0A:00:00:00:00;1727222413;25/09/24;00:00:13;1.003;0.011;0.156;0.15882496535778046;0.015882495790719986;0.015882495790719986
01:00:0A:00:00:00:00;1727222414;25/09/24;00:00:14;1.002;0.029;0.151;0.1820378452539444;-0.018325956538319588;-0.0012217304902151227
01:00:0A:00:00:00:00;1727222415;25/09/24;00:00:15;1.01;0.043;0.138;0.1563815027475357;-0.012217304669320583;0.021991148591041565
01:00:0A:00:00:00:00;1727222416;25/09/24;00:00:16;1.018;0.038;0.142;0.13316862285137177;0.006108652334660292;0.03298672288656235
01:00:0A:00:00:00:00;1727222417;25/09/24;00:00:17;1.018;0.028;0.159;0.14049901068210602;0.012217304669320583;0.02321287989616394
01:00:0A:00:00:00:00;1727222418;25/09/24;00:00:18;1.01;0.036;0.153;0.15027284622192383;0.012217304669320583;0.0073303827084600925
01:00:0A:00:00:00:00;1727222419;25/09/24;00:00:19;1.001;0.04;0.133;0.14049901068210602;-0.0012217304902151227;0.013439035043120384
01:00:0A:00:00:00:00;1727222420;25/09/24;00:00:20;0.994;0.034;0.13;0.1258382350206375;-0.013439035043120384;0.03298672288656235
01:00:0A:00:00:00:00;1727222421;25/09/24;00:00:21;1.009;0.028;0.148;0.13072516024112701;-0.018325956538319588;0.02932153083384037
01:00:0A:00:00:00:00;1727222422;25/09/24;00:00:22;1.022;0.031;0.158;0.14049901068210602;-0.02321287989616394;0.030543262138962746
01:00:0A:00:00:00:00;1727222423;25/09/24;00:00:23;1.027;0.039;0.145;0.14049901068210602;0.004886921960860491;0.018325956538319588
01:00:0A:00:00:00:00;1727222424;25/09/24;00:00:24;1.019;0.033;0.137;0.14049901068210602;0.024434609338641167;0.009773843921720982
01:00:0A:00:00:00:00;1727222425;25/09/24;00:00:25;0.996;0.025;0.135;0.14538592100143433;0.02687807008624077;0.0073303827084600925
01:00:0A:00:00:00:00;1727222426;25/09/24;00:00:26;0.988;0.029;0.139;0.15027284622192383;-0.00855211354792118;0.010995574295520782
01:00:0A:00:00:00:00;1727222437;25/09/24;00:00:37;1.013;0.038;0.149;0.05864306166768074;0.013439035043120384;0.024434609338641167
01:00:0A:00:00:00:00;1727222438;25/09/24;00:00:38;1.002;0.047;0.141;0.05619959905743599;0.0073303827084600925;0.00855211354792118
01:00:0A:00:00:00:00;1727222439;25/09/24;00:00:39;0.996;0.049;0.14;0.04886921867728233;-0.006108652334660292;-0.0036651913542300463
01:00:0A:00:00:00:00;1727222440;25/09/24;00:00:40;0.997;0.042;0.142;0.04153883829712868;-0.01710422709584236;-0.006108652334660292
01:00:0A:00:00:00:00;1727222441;25/09/24;00:00:41;1.001;0.029;0.145;0.039095375686883926;-0.02932153083384037;0.009773843921720982
01:00:0A:00:00:00:00;1727222442;25/09/24;00:00:42;1.005;0.029;0.144;0.039095375686883926;-0.030543262138962746;0.019547687843441963
01:00:0A:00:00:00:00;1727222443;25/09/24;00:00:43;1.018;0.04;0.151;0.036651913076639175;-0.021991148591041565;0.02076941914856434
01:00:0A:00:00:00:00;1727222444;25/09/24;00:00:44;1.025;0.045;0.156;0.03420845419168472;-0.004886921960860491;0.00855211354792118
01:00:0A:00:00:00:00;1727222445;25/09/24;00:00:45;1.019;0.041;0.149;0.03176499158143997;0.024434609338641167;-0.00855211354792118
01:00:0A:00:00:00:00;1727222446;25/09/24;00:00:46;0.994;0.03;0.139;0.04398229718208313;0.02076941914856434;0.051312677562236786
01:00:0A:00:00:00:00;1727222447;25/09/24;00:00:47;0.984;0.012;0.143;0.3530800938606262;0.0073303827084600925;0.02321287989616394
01:00:0A:00:00:00:00;1727222448;25/09/24;00:00:48;0.991;0.014;0.158;0.6988298296928406;-0.013439035043120384;0.14049901068210602
01:00:0A:00:00:00:00;1727222449;25/09/24;00:00:49;1.0;0.038;0.172;0.7831292152404785;-0.06230825558304787;0.059864792972803116
01:00:0A:00:00:00:00;1727222450;25/09/24;00:00:50;1.025;0.072;0.119;0.6805038452148438;-0.025656338781118393;0.09162978082895279
01:00:0A:00:00:00:00;1727222451;25/09/24;00:00:51;1.029;0.04;0.126;0.6010913848876953;0.06719517707824707;0.06719517707824707
01:00:0A:00:00:00:00;1727222452;25/09/24;00:00:52;1.014;0.059;0.167;0.5668829083442688;0.08307767659425735;0.01710422709584236
01:00:0A:00:00:00:00;1727222453;25/09/24;00:00:53;1.003;0.064;0.143;0.4813618063926697;0.02321287989616394;0.0708603635430336
01:00:0A:00:00:00:00;1727222454;25/09/24;00:00:54;0.992;0.022;0.126;0.436157763004303;0.010995574295520782;0.10995574295520782
01:00:0A:00:00:00:00;1727222455;25/09/24;00:00:55;0.998;0.009;0.15;0.4764748811721802;0.0012217304902151227;0.0354301817715168
01:00:0A:00:00:00:00;1727222456;25/09/24;00:00:56;1.008;0.047;0.153;0.4752531349658966;-0.019547687843441963;0.02687807008624077
01:00:0A:00:00:00:00;1727222457;25/09/24;00:00:57;1.018;0.052;0.138;0.41661006212234497;0.010995574295520782;0.05619959905743599
01:00:0A:00:00:00:00;1727222458;25/09/24;00:00:58;1.016;0.032;0.156;0.38117989897727966;0.04153883829712868;0.06230825558304787
01:00:0A:00:00:00:00;1727222459;25/09/24;00:00:59;1.011;0.04;0.173;0.3787364363670349;0.036651913076639175;0.05253440886735916
01:00:0A:00:00:00:00;1727222460;25/09/24;00:01:00;1.009;0.049;0.152;0.3604104816913605;0.012217304669320583;0.04886921867728233
01:00:0A:00:00:00:00;1727222461;25/09/24;00:01:01;1.006;0.037;0.13;0.3384193480014801;0.009773843921720982;0.04642575979232788
01:00:0A:00:00:00:00;1727222462;25/09/24;00:01:02;1.006;0.032;0.142;0.3347541391849518;0.018325956538319588;0.02932153083384037
01:00:0A:00:00:00:00;1727222463;25/09/24;00:01:03;1.002;0.042;0.155;0.3237585723400116;-0.006108652334660292;0.03176499158143997
01:00:0A:00:00:00:00;1727222464;25/09/24;00:01:04;1.004;0.045;0.152;0.29565879702568054;-0.013439035043120384;0.051312677562236786
01:00:0A:00:00:00:00;1727222465;25/09/24;00:01:05;1.007;0.027;0.147;0.2822197377681732;0.0012217304902151227;0.04764748737215996
01:00:0A:00:00:00:00;1727222466;25/09/24;00:01:06;1.012;0.024;0.152;0.2895500957965851;0.015882495790719986;0.030543262138962746
01:00:0A:00:00:00:00;1727222467;25/09/24;00:01:07;1.01;0.037;0.152;0.28466320037841797;0.010995574295520782;0.028099799528717995
01:00:0A:00:00:00:00;1727222468;25/09/24;00:01:08;1.01;0.04;0.143;0.2626720666885376;0.004886921960860491;0.045204028487205505
01:00:0A:00:00:00:00;1727222469;25/09/24;00:01:09;1.009;0.03;0.147;0.251676470041275;0.0073303827084600925;0.051312677562236786
01:00:0A:00:00:00:00;1727222470;25/09/24;00:01:10;1.008;0.035;0.155;0.2577851116657257;0.0036651913542300463;0.036651913076639175
01:00:0A:00:00:00:00;1727222471;25/09/24;00:01:11;1.009;0.04;0.155;0.2565633952617645;-0.0073303827084600925;0.024434609338641167
01:00:0A:00:00:00:00;1727222472;25/09/24;00:01:12;1.014;0.04;0.152;0.24190263450145721;-0.0036651913542300463;0.02932153083384037
01:00:0A:00:00:00:00;1727222473;25/09/24;00:01:13;1.012;0.033;0.155;0.22968533635139465;0.015882495790719986;0.02932153083384037
01:00:0A:00:00:00:00;1727222474;25/09/24;00:01:14;1.008;0.036;0.159;0.22479839622974396;0.021991148591041565;0.02321287989616394
01:00:0A:00:00:00:00;1727222475;25/09/24;00:01:15;1.001;0.037;0.148;0.21624629199504852;0.00855211354792118;0.02687807008624077
01:00:0A:00:00:00:00;1727222476;25/09/24;00:01:16;1.0;0.036;0.141;0.2028072476387024;-0.0024434609804302454;0.03298672288656235
01:00:0A:00:00:00:00;1727222477;25/09/24;00:01:17;1.005;0.035;0.141;0.1966986060142517;-0.018325956538319588;0.02932153083384037
01:00:0A:00:00:00:00;1727222478;25/09/24;00:01:18;1.008;0.037;0.148;0.18936821818351746;-0.02321287989616394;0.028099799528717995
01:00:0A:00:00:00:00;1727222479;25/09/24;00:01:19;1.011;0.04;0.156;0.1771509200334549;-0.01710422709584236;0.03176499158143997
01:00:0A:00:00:00:00;1727222480;25/09/24;00:01:20;1.015;0.042;0.155;0.1661553531885147;-0.004886921960860491;0.025656338781118393
01:00:0A:00:00:00:00;1727222481;25/09/24;00:01:21;1.014;0.039;0.152;0.15882496535778046;0.014660765416920185;0.012217304669320583
01:00:0A:00:00:00:00;1727222482;25/09/24;00:01:22;1.007;0.036;0.15;0.15393804013729095;0.01710422709584236;0.012217304669320583
01:00:0A:00:00:00:00;1727222483;25/09/24;00:01:23;1.004;0.038;0.145;0.14416420459747314;0.0024434609804302454;0.02076941914856434
01:00:0A:00:00:00:00;1727222484;25/09/24;00:01:24;1.006;0.037;0.143;0.13316862285137177;-0.010995574295520782;0.028099799528717995
01:00:0A:00:00:00:00;1727222485;25/09/24;00:01:25;1.006;0.037;0.147;0.1270599663257599;-0.006108652334660292;0.028099799528717995
01:00:0A:00:00:00:00;1727222486;25/09/24;00:01:26;1.009;0.04;0.148;0.1270599663257599;-0.00855211354792118;0.014660765416920185
01:00:0A:00:00:00:00;1727222487;25/09/24;00:01:27;1.007;0.041;0.147;0.12461651116609573;-0.014660765416920185;0.0073303827084600925
01:00:0A:00:00:00:00;1727222488;25/09/24;00:01:28;1.007;0.035;0.152;0.11850785464048386;-0.014660765416920185;0.012217304669320583
01:00:0A:00:00:00:00;1727222489;25/09/24;00:01:29;1.009;0.035;0.154;0.11239919811487198;-0.0073303827084600925;0.015882495790719986
01:00:0A:00:00:00:00;1727222490;25/09/24;00:01:30;1.008;0.036;0.153;0.1062905490398407;0.0073303827084600925;0.01710422709584236
01:00:0A:00:00:00:00;1727222491;25/09/24;00:01:31;1.007;0.04;0.148;0.10262535512447357;0.0073303827084600925;0.014660765416920185
01:00:0A:00:00:00:00;1727222492;25/09/24;00:01:32;1.007;0.041;0.145;0.09529497474431992;-0.004886921960860491;0.014660765416920185
01:00:0A:00:00:00:00;1727222493;25/09/24;00:01:33;1.008;0.038;0.144;0.09162978082895279;-0.013439035043120384;0.010995574295520782
01:00:0A:00:00:00:00;1727222494;25/09/24;00:01:34;1.009;0.036;0.15;0.08796459436416626;-0.010995574295520782;0.010995574295520782
01:00:0A:00:00:00:00;1727222495;25/09/24;00:01:35;1.008;0.04;0.153;0.080634206533432;-0.0024434609804302454;0.015882495790719986
01:00:0A:00:00:00:00;1727222496;25/09/24;00:01:36;1.008;0.041;0.151;0.07208210229873657;0.0012217304902151227;0.01710422709584236
01:00:0A:00:00:00:00;1727222497;25/09/24;00:01:37;1.005;0.04;0.146;0.06841690838336945;-0.0012217304902151227;0.00855211354792118
01:00:0A:00:00:00:00;1727222498;25/09/24;00:01:38;1.003;0.04;0.144;0.06352998316287994;-0.009773843921720982;0.006108652334660292
01:00:0A:00:00:00:00;1727222499;25/09/24;00:01:39;1.005;0.038;0.147;0.05864306166768074;-0.021991148591041565;0.010995574295520782
01:00:0A:00:00:00:00;1727222500;25/09/24;00:01:40;1.013;0.039;0.151;0.05253440886735916;-0.018325956538319588;0.014660765416920185
01:00:0A:00:00:00:00;1727222501;25/09/24;00:01:41;1.015;0.041;0.151;0.04642575979232788;-0.00855211354792118;0.013439035043120384
01:00:0A:00:00:00:00;1727222502;25/09/24;00:01:42;1.012;0.04;0.149;0.04153883829712868;0.0012217304902151227;0.0073303827084600925
01:00:0A:00:00:00:00;1727222503;25/09/24;00:01:43;1.009;0.04;0.147;0.03787364438176155;-0.0012217304902151227;0.004886921960860491
01:00:0A:00:00:00:00;1727222504;25/09/24;00:01:44;1.006;0.04;0.148;0.03298672288656235;-0.00855211354792118;0.00855211354792118
01:00:0A:00:00:00:00;1727222505;25/09/24;00:01:45;1.007;0.04;0.148;0.028099799528717995;-0.00855211354792118;0.00855211354792118
01:00:0A:00:00:00:00;1727222506;25/09/24;00:01:46;1.009;0.038;0.146;0.028099799528717995;-0.010995574295520782;0.0036651913542300463
01:00:0A:00:00:00:00;1727222507;25/09/24;00:01:47;1.011;0.039;0.148;0.025656338781118393;-0.00855211354792118;0.0036651913542300463
01:00:0A:00:00:00:00;1727222508;25/09/24;00:01:48;1.01;0.037;0.148;0.02321287989616394;-0.006108652334660292;0.006108652334660292
01:00:0A:00:00:00:00;1727222509;25/09/24;00:01:49;1.008;0.035;0.147;0.024434609338641167;-0.004886921960860491;0.004886921960860491
01:00:0A:00:00:00:00;1727222510;25/09/24;00:01:50;1.005;0.035;0.147;0.024434609338641167;-0.0073303827084600925;0.006108652334660292
01:00:0A:00:00:00:00;1727222511;25/09/24;00:01:51;1.004;0.036;0.148;0.025656338781118393;-0.0073303827084600925;0.009773843921720982
01:00:0A:00:00:00:00;1727222512;25/09/24;00:01:52;1.007;0.036;0.147;0.028099799528717995;-0.0073303827084600925;0.00855211354792118
01:00:0A:00:00:00:00;1727222513;25/09/24;00:01:53;1.008;0.037;0.147;0.030543262138962746;-0.012217304669320583;0.004886921960860491
01:00:0A:00:00:00:00;1727222514;25/09/24;00:01:54;1.009;0.034;0.148;0.03298672288656235;-0.009773843921720982;0.004886921960860491
01:00:0A:00:00:00:00;1727222515;25/09/24;00:01:55;1.009;0.033;0.148;0.03787364438176155;-0.012217304669320583;0.006108652334660292
01:00:0A:00:00:00:00;1727222516;25/09/24;00:01:56;1.009;0.035;0.149;0.042760565876960754;-0.014660765416920185;0.0073303827084600925
01:00:0A:00:00:00:00;1727222517;25/09/24;00:01:57;1.01;0.034;0.152;0.042760565876960754;-0.00855211354792118;0.009773843921720982
01:00:0A:00:00:00:00;1727222518;25/09/24;00:01:58;1.009;0.035;0.15;0.042760565876960754;-0.0036651913542300463;0.00855211354792118
01:00:0A:00:00:00:00;1727222519;25/09/24;00:01:59;1.008;0.038;0.15;0.04153883829712868;-0.0036651913542300463;0.0073303827084600925
01:00:0A:00:00:00:00;1727222520;25/09/24;00:02:00;1.007;0.038;0.148;0.036651913076639175;-0.0024434609804302454;0.004886921960860491
01:00:0A:00:00:00:00;1727222521;25/09/24;00:02:01;1.005;0.037;0.147;0.03298672288656235;-0.0036651913542300463;0.0036651913542300463
01:00:0A:00:00:00:00;1727222522;25/09/24;00:02:02;1.004;0.039;0.143;0.030543262138962746;-0.018325956538319588;0.004886921960860491
01:00:0A:00:00:00:00;1727222523;25/09/24;00:02:03;1.006;0.039;0.148;0.024434609338641167;-0.024434609338641167;0.0073303827084600925
01:00:0A:00:00:00:00;1727222524;25/09/24;00:02:04;1.011;0.039;0.152;0.019547687843441963;-0.015882495790719986;0.006108652334660292
01:00:0A:00:00:00:00;1727222525;25/09/24;00:02:05;1.011;0.038;0.152;0.01710422709584236;-0.006108652334660292;0.0024434609804302454
01:00:0A:00:00:00:00;1727222526;25/09/24;00:02:06;1.009;0.036;0.148;0.014660765416920185;-0.004886921960860491;0.0024434609804302454
01:00:0A:00:00:00:00;1727222527;25/09/24;00:02:07;1.006;0.034;0.147;0.012217304669320583;-0.00855211354792118;0.006108652334660292
01:00:0A:00:00:00:00;1727222528;25/09/24;00:02:08;1.009;0.036;0.148;0.009773843921720982;-0.010995574295520782;0.0073303827084600925
01:00:0A:00:00:00:00;1727222529;25/09/24;00:02:09;1.011;0.039;0.148;0.0073303827084600925;-0.012217304669320583;0.004886921960860491
01:00:0A:00:00:00:00;1727222530;25/09/24;00:02:10;1.011;0.039;0.15;0.0073303827084600925;-0.009773843921720982;0.0012217304902151227
01:00:0A:00:00:00:00;1727222531;25/09/24;00:02:11;1.008;0.041;0.148;0.006108652334660292;-0.004886921960860491;-0.004886921960860491
01:00:0A:00:00:00:00;1727222532;25/09/24;00:02:12;1.003;0.037;0.143;0.004886921960860491;-0.0073303827084600925;-0.004886921960860491
01:00:0A:00:00:00:00;1727222533;25/09/24;00:02:13;0.999;0.035;0.142;0.0024434609804302454;-0.02076941914856434;0.0036651913542300463
01:00:0A:00:00:00:00;1727222534;25/09/24;00:02:14;1.002;0.037;0.141;0.0012217304902151227;-0.03420845419168472;0.0073303827084600925
01:00:0A:00:00:00:00;1727222535;25/09/24;00:02:15;1.014;0.04;0.147;0.0;-0.0354301817715168;0.0073303827084600925
01:00:0A:00:00:00:00;1727222536;25/09/24;00:02:16;1.019;0.039;0.153;-0.0036651913542300463;-0.0073303827084600925;0.0012217304902151227
01:00:0A:00:00:00:00;1727222537;25/09/24;00:02:17;1.019;0.04;0.151;-0.0073303827084600925;0.00855211354792118;-0.0036651913542300463
01:00:0A:00:00:00:00;1727222538;25/09/24;00:02:18;1.009;0.039;0.144;-0.009773843921720982;0.013439035043120384;-0.0073303827084600925
01:00:0A:00:00:00:00;1727222539;25/09/24;00:02:19;1.001;0.036;0.142;-0.010995574295520782;0.0;-0.004886921960860491
01:00:0A:00:00:00:00;1727222540;25/09/24;00:02:20;0.998;0.034;0.141;-0.013439035043120384;-0.021991148591041565;0.006108652334660292
01:00:0A:00:00:00:00;1727222541;25/09/24;00:02:21;1.003;0.039;0.144;-0.014660765416920185;-0.028099799528717995;0.00855211354792118
01:00:0A:00:00:00:00;1727222542;25/09/24;00:02:22;1.011;0.041;0.151;-0.015882495790719986;-0.02321287989616394;0.0
01:00:0A:00:00:00:00;1727222543;25/09/24;00:02:23;1.013;0.041;0.154;-0.018325956538319588;-0.013439035043120384;-0.006108652334660292
01:00:0A:00:00:00:00;1727222544;25/09/24;00:02:24;1.009;0.039;0.148;-0.024434609338641167;-0.0012217304902151227;-0.006108652334660292
01:00:0A:00:00:00:00;1727222545;25/09/24;00:02:25;1.004;0.036;0.144;-0.02932153083384037;-0.0073303827084600925;0.0012217304902151227
01:00:0A:00:00:00:00;1727222546;25/09/24;00:02:26;1.003;0.036;0.144;-0.03176499158143997;-0.01710422709584236;0.0036651913542300463
01:00:0A:00:00:00:00;1727222547;25/09/24;00:02:27;1.01;0.039;0.149;-0.03176499158143997;-0.028099799528717995;0.004886921960860491
01:00:0A:00:00:00:00;1727222548;25/09/24;00:02:28;1.015;0.041;0.151;-0.03420845419168472;-0.021991148591041565;0.0
01:00:0A:00:00:00:00;1727222549;25/09/24;00:02:29;1.015;0.044;0.148;-0.04153883829712868;-0.0024434609804302454;-0.0073303827084600925
01:00:0A:00:00:00:00;1727222550;25/09/24;00:02:30;1.011;0.042;0.146;-0.04886921867728233;0.0073303827084600925;-0.009773843921720982
01:00:0A:00:00:00:00;1727222551;25/09/24;00:02:31;1.002;0.039;0.14;-0.051312677562236786;-0.0036651913542300463;-0.0073303827084600925
01:00:0A:00:00:00:00;1727222552;25/09/24;00:02:32;1.001;0.036;0.138;-0.05009094998240471;-0.02687807008624077;-0.0036651913542300463
01:00:0A:00:00:00:00;1727222553;25/09/24;00:02:33;1.004;0.04;0.139;-0.05253440886735916;-0.036651913076639175;-0.0024434609804302454
01:00:0A:00:00:00:00;1727222554;25/09/24;00:02:34;1.012;0.042;0.146;-0.05742133408784866;-0.028099799528717995;-0.0036651913542300463
01:00:0A:00:00:00:00;1727222555;25/09/24;00:02:35;1.013;0.04;0.151;-0.06108652427792549;-0.013439035043120384;-0.004886921960860491
01:00:0A:00:00:00:00;1727222556;25/09/24;00:02:36;1.012;0.04;0.149;-0.06352998316287994;-0.0024434609804302454;-0.004886921960860491
01:00:0A:00:00:00:00;1727222557;25/09/24;00:02:37;1.009;0.041;0.149;-0.06475171446800232;-0.0036651913542300463;-0.0073303827084600925
01:00:0A:00:00:00:00;1727222558;25/09/24;00:02:38;1.004;0.042;0.145;-0.06719517707824707;-0.00855211354792118;-0.009773843921720982
01:00:0A:00:00:00:00;1727222559;25/09/24;00:02:39;1.004;0.04;0.145;-0.06719517707824707;-0.019547687843441963;-0.0073303827084600925
01:00:0A:00:00:00:00;1727222560;25/09/24;00:02:40;1.007;0.04;0.148;-0.0659734457731247;-0.025656338781118393;-0.0073303827084600925
01:00:0A:00:00:00:00;1727222561;25/09/24;00:02:41;1.011;0.039;0.151;-0.0659734457731247;-0.014660765416920185;-0.006108652334660292
01:00:0A:00:00:00:00;1727222562;25/09/24;00:02:42;1.009;0.038;0.152;-0.06475171446800232;-0.00855211354792118;-0.0036651913542300463
01:00:0A:00:00:00:00;1727222563;25/09/24;00:02:43;1.006;0.039;0.147;-0.06230825558304787;-0.014660765416920185;-0.0012217304902151227
01:00:0A:00:00:00:00;1727222564;25/09/24;00:02:44;1.006;0.037;0.146;-0.05742133408784866;-0.018325956538319588;-0.0024434609804302454
01:00:0A:00:00:00:00;1727222565;25/09/24;00:02:45;1.007;0.038;0.146;-0.05375614017248154;-0.02076941914856434;-0.004886921960860491
01:00:0A:00:00:00:00;1727222566;25/09/24;00:02:46;1.011;0.038;0.148;-0.05009094998240471;-0.02076941914856434;-0.0073303827084600925
01:00:0A:00:00:00:00;1727222567;25/09/24;00:02:47;1.012;0.037;0.15;-0.04886921867728233;-0.012217304669320583;-0.0073303827084600925
01:00:0A:00:00:00:00;1727222568;25/09/24;00:02:48;1.015;0.017;0.122;-0.0073303827084600925;-0.01710422709584236;0.012217304669320583
01:00:0A:00:00:00:00;1727222569;25/09/24;00:02:49;1.008;0.03;0.134;0.006108652334660292;0.025656338781118393;-0.014660765416920185
01:00:0A:00:00:00:00;1727222570;25/09/24;00:02:50;1.004;0.038;0.146;0.004886921960860491;0.0012217304902151227;-0.0024434609804302454
01:00:0A:00:00:00:00;1727222571;25/09/24;00:02:51;1.004;0.042;0.154;-0.0012217304902151227;-0.02076941914856434;0.004886921960860491
01:00:0A:00:00:00:00;1727222572;25/09/24;00:02:52;1.009;0.04;0.151;-0.004886921960860491;-0.03298672288656235;0.0073303827084600925
01:00:0A:00:00:00:00;1727222573;25/09/24;00:02:53;1.016;0.035;0.145;-0.004886921960860491;-0.014660765416920185;0.0012217304902151227
01:00:0A:00:00:00:00;1727222574;25/09/24;00:02:54;1.013;0.034;0.149;-0.004886921960860491;0.013439035043120384;-0.004886921960860491
01:00:0A:00:00:00:00;1727222575;25/09/24;00:02:55;1.007;0.038;0.154;-0.006108652334660292;0.009773843921720982;-0.0024434609804302454
01:00:0A:00:00:00:00;1727222576;25/09/24;00:02:56;1.0;0.038;0.149;-0.0073303827084600925;-0.014660765416920185;0.006108652334660292
01:00:0A:00:00:00:00;1727222577;25/09/24;00:02:57;1.003;0.037;0.14;-0.0073303827084600925;-0.025656338781118393;0.004886921960860491
01:00:0A:00:00:00:00;1727222578;25/09/24;00:02:58;1.003;0.036;0.142;-0.006108652334660292;-0.019547687843441963;0.0012217304902151227
01:00:0A:00:00:00:00;1727222579;25/09/24;00:02:59;1.009;0.038;0.152;-0.006108652334660292;-0.019547687843441963;-0.0012217304902151227
01:00:0A:00:00:00:00;1727222580;25/09/24;00:03:00;1.012;0.04;0.158;-0.006108652334660292;-0.019547687843441963;0.0012217304902151227
01:00:0A:00:00:00:00;1727222581;25/09/24;00:03:01;1.012;0.038;0.155;-0.0073303827084600925;-0.009773843921720982;0.0036651913542300463
01:00:0A:00:00:00:00;1727222582;25/09/24;00:03:02;1.011;0.034;0.149;-0.006108652334660292;0.0;0.0024434609804302454
01:00:0A:00:00:00:00;1727222583;25/09/24;00:03:03;1.006;0.036;0.15;-0.0024434609804302454;0.0012217304902151227;0.0012217304902151227
01:00:0A:00:00:00:00;1727222584;25/09/24;00:03:04;1.003;0.039;0.151;0.0012217304902151227;-0.010995574295520782;0.0
01:00:0A:00:00:00:00;1727222585;25/09/24;00:03:05;1.007;0.04;0.15;0.0024434609804302454;-0.024434609338641167;0.0
01:00:0A:00:00:00:00;1727222586;25/09/24;00:03:06;1.012;0.036;0.15;0.0012217304902151227;-0.018325956538319588;0.0012217304902151227
01:00:0A:00:00:00:00;1727222587;25/09/24;00:03:07;1.011;0.035;0.152;0.0012217304902151227;-0.0073303827084600925;0.0036651913542300463
01:00:0A:00:00:00:00;1727222588;25/09/24;00:03:08;1.01;0.037;0.154;0.0024434609804302454;-0.0012217304902151227;0.004886921960860491
01:00:0A:00:00:00:00;1727222589;25/09/24;00:03:09;1.008;0.039;0.154;0.0036651913542300463;-0.006108652334660292;0.0036651913542300463
01:00:0A:00:00:00:00;1727222590;25/09/24;00:03:10;1.005;0.038;0.146;0.0036651913542300463;-0.014660765416920185;0.0036651913542300463
01:00:0A:00:00:00:00;1727222591;25/09/24;00:03:11;1.006;0.04;0.147;0.0024434609804302454;-0.01710422709584236;0.0012217304902151227
01:00:0A:00:00:00:00;1727222592;25/09/24;00:03:12;1.01;0.038;0.153;0.0036651913542300463;-0.013439035043120384;-0.0012217304902151227
01:00:0A:00:00:00:00;1727222593;25/09/24;00:03:13;1.012;0.038;0.157;0.0024434609804302454;-0.00855211354792118;0.0
01:00:0A:00:00:00:00;1727222594;25/09/24;00:03:14;1.009;0.038;0.15;-0.0012217304902151227;-0.004886921960860491;0.0036651913542300463
01:00:0A:00:00:00:00;1727222595;25/09/24;00:03:15;1.005;0.036;0.145;-0.0024434609804302454;-0.0073303827084600925;0.006108652334660292
01:00:0A:00:00:00:00;1727222596;25/09/24;00:03:16;1.005;0.038;0.146;-0.0024434609804302454;-0.015882495790719986;0.004886921960860491
01:00:0A:00:00:00:00;1727222597;25/09/24;00:03:17;1.007;0.038;0.15;-0.0012217304902151227;-0.02076941914856434;0.0012217304902151227
01:00:0A:00:00:00:00;1727222598;25/09/24;00:03:18;1.01;0.04;0.149;-0.0036651913542300463;-0.021991148591041565;-0.0012217304902151227
01:00:0A:00:00:00:00;1727222599;25/09/24;00:03:19;1.014;0.038;0.151;-0.0073303827084600925;-0.0073303827084600925;0.0
01:00:0A:00:00:00:00;1727222600;25/09/24;00:03:20;1.012;0.038;0.149;-0.012217304669320583;0.0024434609804302454;0.0012217304902151227
01:00:0A:00:00:00:00;1727222601;25/09/24;00:03:21;1.005;0.038;0.146;-0.013439035043120384;-0.0024434609804302454;0.0024434609804302454
01:00:0A:00:00:00:00;1727222602;25/09/24;00:03:22;1.001;0.039;0.146;-0.013439035043120384;-0.01710422709584236;0.0024434609804302454
01:00:0A:00:00:00:00;1727222603;25/09/24;00:03:23;1.006;0.039;0.146;-0.012217304669320583;-0.02932153083384037;0.0024434609804302454
01:00:0A:00:00:00:00;1727222604;25/09/24;00:03:24;1.012;0.039;0.15;-0.014660765416920185;-0.018325956538319588;-0.0012217304902151227
01:00:0A:00:00:00:00;1727222605;25/09/24;00:03:25;1.014;0.038;0.153;-0.01710422709584236;-0.00855211354792118;-0.0024434609804302454
01:00:0A:00:00:00:00;1727222606;25/09/24;00:03:26;1.012;0.038;0.15;-0.02076941914856434;-0.0012217304902151227;-0.0024434609804302454
01:00:0A:00:00:00:00;1727222607;25/09/24;00:03:27;1.007;0.04;0.146;-0.025656338781118393;-0.0036651913542300463;-0.0012217304902151227
01:00:0A:00:00:00:00;1727222608;25/09/24;00:03:28;1.004;0.04;0.145;-0.02932153083384037;-0.013439035043120384;0.0
01:00:0A:00:00:00:00;1727222609;25/09/24;00:03:29;1.004;0.04;0.145;-0.03298672288656235;-0.015882495790719986;-0.0012217304902151227
01:00:0A:00:00:00:00;1727222610;25/09/24;00:03:30;1.008;0.04;0.148;-0.0354301817715168;-0.019547687843441963;-0.0036651913542300463
01:00:0A:00:00:00:00;1727222611;25/09/24;00:03:31;1.01;0.04;0.152;-0.03787364438176155;-0.019547687843441963;-0.0036651913542300463
01:00:0A:00:00:00:00;1727222612;25/09/24;00:03:32;1.014;0.039;0.153;-0.04153883829712868;-0.009773843921720982;-0.0036651913542300463
01:00:0A:00:00:00:00;1727222613;25/09/24;00:03:33;1.008;0.039;0.149;-0.04398229718208313;-0.0024434609804302454;-0.0036651913542300463
01:00:0A:00:00:00:00;1727222614;25/09/24;00:03:34;1.005;0.039;0.149;-0.045204028487205505;-0.0073303827084600925;-0.0024434609804302454
01:00:0A:00:00:00:00;1727222615;25/09/24;00:03:35;1.005;0.039;0.15;-0.045204028487205505;-0.018325956538319588;-0.0024434609804302454
01:00:0A:00:00:00:00;1727222616;25/09/24;00:03:36;1.006;0.04;0.151;-0.04642575979232788;-0.01710422709584236;-0.0036651913542300463
01:00:0A:00:00:00:00;1727222617;25/09/24;00:03:37;1.008;0.039;0.151;-0.04764748737215996;-0.015882495790719986;-0.0036651913542300463
01:00:0A:00:00:00:00;1727222618;25/09/24;00:03:38;1.01;0.037;0.152;-0.04764748737215996;-0.015882495790719986;-0.0024434609804302454
01:00:0A:00:00:00:00;1727222619;25/09/24;00:03:39;1.008;0.039;0.151;-0.04764748737215996;-0.012217304669320583;-0.0024434609804302454
01:00:0A:00:00:00:00;1727222620;25/09/24;00:03:40;1.006;0.038;0.151;-0.04886921867728233;-0.012217304669320583;-0.0024434609804302454
01:00:0A:00:00:00:00;1727222621;25/09/24;00:03:41;1.004;0.039;0.15;-0.04886921867728233;-0.01710422709584236;-0.0024434609804302454
01:00:0A:00:00:00:00;1727222622;25/09/24;00:03:42;1.007;0.038;0.15;-0.04764748737215996;-0.018325956538319588;-0.0024434609804302454
01:00:0A:00:00:00:00;1727222623;25/09/24;00:03:43;1.009;0.037;0.152;-0.04642575979232788;-0.014660765416920185;-0.0036651913542300463
01:00:0A:00:00:00:00;1727222624;25/09/24;00:03:44;1.01;0.036;0.151;-0.045204028487205505;-0.009773843921720982;-0.0024434609804302454
01:00:0A:00:00:00:00;1727222625;25/09/24;00:03:45;1.009;0.037;0.149;-0.04398229718208313;-0.00855211354792118;-0.0012217304902151227
01:00:0A:00:00:00:00;1727222626;25/09/24;00:03:46;1.005;0.037;0.148;-0.04153883829712868;-0.013439035043120384;-0.0012217304902151227
01:00:0A:00:00:00:00;1727222627;25/09/24;00:03:47;1.005;0.035;0.149;-0.03787364438176155;-0.019547687843441963;-0.0012217304902151227
01:00:0A:00:00:00:00;1727222628;25/09/24;00:03:48;1.008;0.035;0.149;-0.03420845419168472;-0.019547687843441963;-0.0024434609804302454
01:00:0A:00:00:00:00;1727222629;25/09/24;00:03:49;1.01;0.035;0.15;-0.03176499158143997;-0.015882495790719986;-0.0024434609804302454
01:00:0A:00:00:00:00;1727222630;25/09/24;00:03:50;1.011;0.035;0.149;-0.030543262138962746;-0.010995574295520782;-0.0024434609804302454
01:00:0A:00:00:00:00;1727222631;25/09/24;00:03:51;1.009;0.035;0.149;-0.02932153083384037;-0.0073303827084600925;-0.0024434609804302454
01:00:0A:00:00:00:00;1727222632;25/09/24;00:03:52;1.009;0.035;0.147;-0.02932153083384037;-0.004886921960860491;-0.0012217304902151227
01:00:0A:00:00:00:00;1727222633;25/09/24;00:03:53;1.004;0.035;0.145;-0.028099799528717995;-0.013439035043120384;-0.0012217304902151227
01:00:0A:00:00:00:00;1727222634;25/09/24;00:03:54;1.005;0.035;0.146;-0.025656338781118393;-0.01710422709584236;-0.0012217304902151227
01:00:0A:00:00:00:00;1727222635;25/09/24;00:03:55;1.008;0.035;0.148;-0.025656338781118393;-0.015882495790719986;0.0
01:00:0A:00:00:00:00;1727222636;25/09/24;00:03:56;1.01;0.035;0.148;-0.024434609338641167;-0.014660765416920185;0.0
01:00:0A:00:00:00:00;1727222637;25/09/24;00:03:57;1.01;0.035;0.149;-0.02321287989616394;-0.012217304669320583;-0.0012217304902151227
01:00:0A:00:00:00:00;1727222638;25/09/24;00:03:58;1.01;0.036;0.148;-0.021991148591041565;-0.009773843921720982;0.0
01:00:0A:00:00:00:00;1727222639;25/09/24;00:03:59;1.007;0.034;0.148;-0.02076941914856434;-0.009773843921720982;0.0
01:00:0A:00:00:00:00;1727222640;25/09/24;00:04:00;1.005;0.035;0.147;-0.018325956538319588;-0.012217304669320583;0.0
01:00:0A:00:00:00:00;1727222641;25/09/24;00:04:01;1.005;0.035;0.148;-0.015882495790719986;-0.013439035043120384;0.0012217304902151227
01:00:0A:00:00:00:00;1727222642;25/09/24;00:04:02;1.008;0.035;0.149;-0.013439035043120384;-0.015882495790719986;0.0012217304902151227
01:00:0A:00:00:00:00;1727222643;25/09/24;00:04:03;1.009;0.036;0.148;-0.010995574295520782;-0.014660765416920185;0.0012217304902151227
01:00:0A:00:00:00:00;1727222644;25/09/24;00:04:04;1.011;0.036;0.148;-0.010995574295520782;-0.010995574295520782;0.0
01:00:0A:00:00:00:00;1727222645;25/09/24;00:04:05;1.01;0.036;0.147;-0.009773843921720982;-0.012217304669320583;0.0012217304902151227
01:00:0A:00:00:00:00;1727222646;25/09/24;00:04:06;1.007;0.035;0.149;-0.0073303827084600925;-0.012217304669320583;0.0
01:00:0A:00:00:00:00;1727222647;25/09/24;00:04:07;1.008;0.037;0.15;-0.0073303827084600925;-0.009773843921720982;0.0012217304902151227
01:00:0A:00:00:00:00;1727222648;25/09/24;00:04:08;1.008;0.036;0.148;-0.006108652334660292;-0.0073303827084600925;0.0012217304902151227
01:00:0A:00:00:00:00;1727222649;25/09/24;00:04:09;1.007;0.035;0.146;-0.004886921960860491;-0.010995574295520782;0.0012217304902151227
01:00:0A:00:00:00:00;1727222650;25/09/24;00:04:10;1.007;0.035;0.146;-0.0036651913542300463;-0.012217304669320583;0.0012217304902151227
01:00:0A:00:00:00:00;1727222651;25/09/24;00:04:11;1.01;0.035;0.149;-0.0012217304902151227;-0.015882495790719986;0.0024434609804302454
01:00:0A:00:00:00:00;1727222652;25/09/24;00:04:12;1.007;0.036;0.149;0.0;-0.014660765416920185;0.0024434609804302454
01:00:0A:00:00:00:00;1727222653;25/09/24;00:04:13;1.008;0.038;0.151;0.0;-0.010995574295520782;0.0024434609804302454
01:00:0A:00:00:00:00;1727222654;25/09/24;00:04:14;1.011;0.036;0.15;0.0012217304902151227;-0.00855211354792118;0.0024434609804302454
01:00:0A:00:00:00:00;1727222655;25/09/24;00:04:15;1.01;0.036;0.148;0.0024434609804302454;-0.006108652334660292;0.0024434609804302454
01:00:0A:00:00:00:00;1727222656;25/09/24;00:04:16;1.009;0.036;0.146;0.0036651913542300463;-0.00855211354792118;0.0024434609804302454
01:00:0A:00:00:00:00;1727222657;25/09/24;00:04:17;1.008;0.035;0.147;0.004886921960860491;-0.014660765416920185;0.0024434609804302454
01:00:0A:00:00:00:00;1727222658;25/09/24;00:04:18;1.008;0.036;0.149;0.006108652334660292;-0.015882495790719986;0.0036651913542300463
01:00:0A:00:00:00:00;1727222659;25/09/24;00:04:19;1.007;0.036;0.151;0.0073303827084600925;-0.010995574295520782;0.0036651913542300463
01:00:0A:00:00:00:00;1727222660;25/09/24;00:04:20;1.008;0.036;0.15;0.0073303827084600925;-0.0073303827084600925;0.0024434609804302454
01:00:0A:00:00:00:00;1727222661;25/09/24;00:04:21;1.007;0.036;0.148;0.0073303827084600925;-0.00855211354792118;0.0024434609804302454
01:00:0A:00:00:00:00;1727222662;25/09/24;00:04:22;1.008;0.036;0.146;0.00855211354792118;-0.013439035043120384;0.0036651913542300463
01:00:0A:00:00:00:00;1727222663;25/09/24;00:04:23;1.008;0.036;0.149;0.00855211354792118;-0.014660765416920185;0.0036651913542300463
01:00:0A:00:00:00:00;1727222664;25/09/24;00:04:24;1.009;0.037;0.15;0.009773843921720982;-0.013439035043120384;0.0036651913542300463
01:00:0A:00:00:00:00;1727222665;25/09/24;00:04:25;1.01;0.036;0.152;0.010995574295520782;-0.009773843921720982;0.0036651913542300463
01:00:0A:00:00:00:00;1727222666;25/09/24;00:04:26;1.009;0.036;0.15;0.010995574295520782;-0.004886921960860491;0.0024434609804302454
01:00:0A:00:00:00:00;1727222667;25/09/24;00:04:27;1.005;0.035;0.148;0.013439035043120384;-0.00855211354792118;0.0036651913542300463
01:00:0A:00:00:00:00;1727222668;25/09/24;00:04:28;1.005;0.036;0.147;0.014660765416920185;-0.013439035043120384;0.0036651913542300463
01:00:0A:00:00:00:00;1727222669;25/09/24;00:04:29;1.007;0.036;0.149;0.015882495790719986;-0.018325956538319588;0.006108652334660292
01:00:0A:00:00:00:00;1727222670;25/09/24;00:04:30;1.009;0.035;0.15;0.015882495790719986;-0.01710422709584236;0.004886921960860491
01:00:0A:00:00:00:00;1727222671;25/09/24;00:04:31;1.011;0.036;0.151;0.01710422709584236;-0.00855211354792118;0.004886921960860491
01:00:0A:00:00:00:00;1727222672;25/09/24;00:04:32;1.01;0.035;0.151;0.01710422709584236;-0.0036651913542300463;0.0036651913542300463
01:00:0A:00:00:00:00;1727222673;25/09/24;00:04:33;1.006;0.035;0.148;0.018325956538319588;-0.006108652334660292;0.0036651913542300463
01:00:0A:00:00:00:00;1727222674;25/09/24;00:04:34;1.005;0.035;0.146;0.02076941914856434;-0.012217304669320583;0.004886921960860491
01:00:0A:00:00:00:00;1727222675;25/09/24;00:04:35;1.007;0.036;0.147;0.021991148591041565;-0.015882495790719986;0.004886921960860491
01:00:0A:00:00:00:00;1727222676;25/09/24;00:04:36;1.01;0.037;0.148;0.02076941914856434;-0.014660765416920185;0.004886921960860491
01:00:0A:00:00:00:00;1727222677;25/09/24;00:04:37;1.011;0.038;0.15;0.019547687843441963;-0.012217304669320583;0.004886921960860491
01:00:0A:00:00:00:00;1727222678;25/09/24;00:04:38;1.011;0.036;0.149;0.019547687843441963;-0.006108652334660292;0.0036651913542300463
01:00:0A:00:00:00:00;1727222679;25/09/24;00:04:39;1.01;0.036;0.148;0.02076941914856434;-0.004886921960860491;0.0036651913542300463
01:00:0A:00:00:00:00;1727222680;25/09/24;00:04:40;1.006;0.037;0.145;0.019547687843441963;-0.0073303827084600925;0.0036651913542300463
01:00:0A:00:00:00:00;1727222681;25/09/24;00:04:41;1.006;0.037;0.148;0.018325956538319588;-0.012217304669320583;0.004886921960860491
01:00:0A:00:00:00:00;1727222682;25/09/24;00:04:42;1.007;0.036;0.148;0.019547687843441963;-0.013439035043120384;0.006108652334660292
01:00:0A:00:00:00:00;1727222683;25/09/24;00:04:43;1.009;0.036;0.148;0.018325956538319588;-0.012217304669320583;0.004886921960860491
01:00:0A:00:00:00:00;1727222684;25/09/24;00:04:44;1.011;0.038;0.147;0.018325956538319588;-0.010995574295520782;0.0036651913542300463
01:00:0A:00:00:00:00;1727222685;25/09/24;00:04:45;1.01;0.037;0.148;0.018325956538319588;-0.00855211354792118;0.0036651913542300463
01:00:0A:00:00:00:00;1727222686;25/09/24;00:04:46;1.009;0.036;0.148;0.01710422709584236;-0.00855211354792118;0.0036651913542300463
01:00:0A:00:00:00:00;1727222687;25/09/24;00:04:47;1.008;0.036;0.147;0.01710422709584236;-0.009773843921720982;0.004886921960860491
01:00:0A:00:00:00:00;1727222688;25/09/24;00:04:48;1.008;0.036;0.148;0.015882495790719986;-0.010995574295520782;0.0036651913542300463
01:00:0A:00:00:00:00;1727222689;25/09/24;00:04:49;1.008;0.037;0.147;0.015882495790719986;-0.010995574295520782;0.0036651913542300463
01:00:0A:00:00:00:00;1727222690;25/09/24;00:04:50;1.008;0.037;0.148;0.015882495790719986;-0.009773843921720982;0.004886921960860491
01:00:0A:00:00:00:00;1727222691;25/09/24;00:04:51;1.009;0.036;0.148;0.014660765416920185;-0.010995574295520782;0.004886921960860491
01:00:0A:00:00:00:00;1727222692;25/09/24;00:04:52;1.008;0.036;0.146;0.015882495790719986;-0.010995574295520782;0.0036651913542300463
01:00:0A:00:00:00:00;1727222693;25/09/24;00:04:53;1.007;0.036;0.147;0.015882495790719986;-0.012217304669320583;0.0036651913542300463
01:00:0A:00:00:00:00;1727222694;25/09/24;00:04:54;1.008;0.037;0.149;0.015882495790719986;-0.010995574295520782;0.004886921960860491
01:00:0A:00:00:00:00;1727222695;25/09/24;00:04:55;1.009;0.036;0.148;0.015882495790719986;-0.00855211354792118;0.0036651913542300463
01:00:0A:00:00:00:00;1727222696;25/09/24;00:04:56;1.007;0.036;0.147;0.015882495790719986;-0.009773843921720982;0.0036651913542300463
01:00:0A:00:00:00:00;1727222697;25/09/24;00:04:57;1.008;0.035;0.147;0.01710422709584236;-0.010995574295520782;0.0024434609804302454
01:00:0A:00:00:00:00;1727222698;25/09/24;00:04:58;1.008;0.036;0.146;0.015882495790719986;-0.010995574295520782;0.004886921960860491
01:00:0A:00:00:00:00;1727222699;25/09/24;00:04:59;1.008;0.037;0.149;0.015882495790719986;-0.010995574295520782;0.006108652334660292
01:00:0A:00:00:00:00;1727222700;25/09/24;00:05:00;1.008;0.036;0.148;0.015882495790719986;-0.012217304669320583;0.0036651913542300463
01:00:0A:00:00:00:00;1727222701;25/09/24;00:05:01;1.008;0.037;0.148;0.01710422709584236;-0.009773843921720982;0.0024434609804302454
01:00:0A:00:00:00:00;1727222702;25/09/24;00:05:02;1.008;0.036;0.148;0.015882495790719986;-0.0073303827084600925;0.0036651913542300463
01:00:0A:00:00:00:00;1727222703;25/09/24;00:05:03;1.008;0.036;0.147;0.015882495790719986;-0.010995574295520782;0.004886921960860491
01:00:0A:00:00:00:00;1727222704;25/09/24;00:05:04;1.009;0.036;0.146;0.015882495790719986;-0.013439035043120384;0.004886921960860491
01:00:0A:00:00:00:00;1727222705;25/09/24;00:05:05;1.009;0.037;0.147;0.014660765416920185;-0.012217304669320583;0.006108652334660292
01:00:0A:00:00:00:00;1727222706;25/09/24;00:05:06;1.008;0.037;0.149;0.014660765416920185;-0.010995574295520782;0.004886921960860491
01:00:0A:00:00:00:00;1727222707;25/09/24;00:05:07;1.009;0.039;0.148;0.014660765416920185;-0.0073303827084600925;0.0024434609804302454
01:00:0A:00:00:00:00;1727222708;25/09/24;00:05:08;1.008;0.039;0.148;0.014660765416920185;-0.006108652334660292;0.0024434609804302454
01:00:0A:00:00:00:00;1727222709;25/09/24;00:05:09;1.007;0.036;0.147;0.014660765416920185;-0.00855211354792118;0.0024434609804302454
01:00:0A:00:00:00:00;1727222710;25/09/24;00:05:10;1.008;0.036;0.147;0.013439035043120384;-0.013439035043120384;0.004886921960860491
01:00:0A:00:00:00:00;1727222711;25/09/24;00:05:11;1.008;0.036;0.148;0.013439035043120384;-0.013439035043120384;0.006108652334660292
01:00:0A:00:00:00:00;1727222712;25/09/24;00:05:12;1.009;0.038;0.149;0.013439035043120384;-0.012217304669320583;0.0036651913542300463
01:00:0A:00:00:00:00;1727222713;25/09/24;00:05:13;1.008;0.038;0.149;0.013439035043120384;-0.010995574295520782;0.0024434609804302454
01:00:0A:00:00:00:00;1727222714;25/09/24;00:05:14;1.008;0.037;0.148;0.012217304669320583;-0.0073303827084600925;0.0036651913542300463
01:00:0A:00:00:00:00;1727222715;25/09/24;00:05:15;1.009;0.036;0.149;0.010995574295520782;-0.00855211354792118;0.0036651913542300463
01:00:0A:00:00:00:00;1727222716;25/09/24;00:05:16;1.008;0.036;0.148;0.012217304669320583;-0.010995574295520782;0.0036651913542300463
01:00:0A:00:00:00:00;1727222717;25/09/24;00:05:17;1.008;0.037;0.148;0.012217304669320583;-0.012217304669320583;0.004886921960860491
01:00:0A:00:00:00:00;1727222718;25/09/24;00:05:18;1.007;0.037;0.149;0.012217304669320583;-0.012217304669320583;0.006108652334660292
01:00:0A:00:00:00:00;1727222719;25/09/24;00:05:19;1.007;0.037;0.149;0.012217304669320583;-0.009773843921720982;0.0024434609804302454
01:00:0A:00:00:00:00;1727222720;25/09/24;00:05:20;1.007;0.037;0.149;0.012217304669320583;-0.009773843921720982;0.0024434609804302454
01:00:0A:00:00:00:00;1727222721;25/09/24;00:05:21;1.007;0.036;0.148;0.010995574295520782;-0.010995574295520782;0.0036651913542300463
01:00:0A:00:00:00:00;1727222722;25/09/24;00:05:22;1.009;0.037;0.148;0.012217304669320583;-0.013439035043120384;0.0036651913542300463
01:00:0A:00:00:00:00;1727222723;25/09/24;00:05:23;1.008;0.037;0.149;0.009773843921720982;-0.012217304669320583;0.004886921960860491
01:00:0A:00:00:00:00;1727222724;25/09/24;00:05:24;1.008;0.038;0.148;0.00855211354792118;-0.009773843921720982;0.0036651913542300463
01:00:0A:00:00:00:00;1727222725;25/09/24;00:05:25;1.007;0.037;0.149;0.009773843921720982;-0.009773843921720982;0.0024434609804302454
01:00:0A:00:00:00:00;1727222726;25/09/24;00:05:26;1.008;0.038;0.149;0.00855211354792118;-0.009773843921720982;0.0024434609804302454
01:00:0A:00:00:00:00;1727222727;25/09/24;00:05:27;1.007;0.037;0.148;0.0073303827084600925;-0.009773843921720982;0.0036651913542300463
01:00:0A:00:00:00:00;1727222728;25/09/24;00:05:28;1.008;0.038;0.148;0.0073303827084600925;-0.012217304669320583;0.0036651913542300463
01:00:0A:00:00:00:00;1727222729;25/09/24;00:05:29;1.007;0.037;0.148;0.0073303827084600925;-0.013439035043120384;0.0036651913542300463
01:00:0A:00:00:00:00;1727222730;25/09/24;00:05:30;1.008;0.037;0.15;0.0073303827084600925;-0.013439035043120384;0.0036651913542300463
01:00:0A:00:00:00:00;1727222731;25/09/24;00:05:31;1.009;0.036;0.149;0.006108652334660292;-0.010995574295520782;0.0024434609804302454
01:00:0A:00:00:00:00;1727222732;25/09/24;00:05:32;1.009;0.037;0.148;0.0073303827084600925;-0.00855211354792118;0.0024434609804302454
01:00:0A:00:00:00:00;1727222733;25/09/24;00:05:33;1.007;0.037;0.148;0.0073303827084600925;-0.00855211354792118;0.0036651913542300463
01:00:0A:00:00:00:00;1727222734;25/09/24;00:05:34;1.009;0.036;0.148;0.00855211354792118;-0.010995574295520782;0.0036651913542300463
01:00:0A:00:00:00:00;1727222735;25/09/24;00:05:35;1.008;0.037;0.148;0.009773843921720982;-0.010995574295520782;0.0036651913542300463
01:00:0A:00:00:00:00;1727222736;25/09/24;00:05:36;1.007;0.036;0.148;0.010995574295520782;-0.009773843921720982;0.0036651913542300463
01:00:0A:00:00:00:00;1727222737;25/09/24;00:05:37;1.007;0.036;0.149;0.014660765416920185;-0.012217304669320583;0.004886921960860491
01:00:0A:00:00:00:00;1727222738;25/09/24;00:05:38;1.008;0.037;0.148;0.015882495790719986;-0.010995574295520782;0.0036651913542300463
01:00:0A:00:00:00:00;1727222739;25/09/24;00:05:39;1.008;0.035;0.148;0.01710422709584236;-0.009773843921720982;0.0036651913542300463
01:00:0A:00:00:00:00;1727222740;25/09/24;00:05:40;1.008;0.036;0.148;0.019547687843441963;-0.010995574295520782;0.004886921960860491
01:00:0A:00:00:00:00;1727222741;25/09/24;00:05:41;1.008;0.035;0.148;0.019547687843441963;-0.012217304669320583;0.004886921960860491
01:00:0A:00:00:00:00;1727222742;25/09/24;00:05:42;1.009;0.037;0.147;0.019547687843441963;-0.009773843921720982;0.004886921960860491
01:00:0A:00:00:00:00;1727222743;25/09/24;00:05:43;1.01;0.036;0.147;0.02076941914856434;-0.009773843921720982;0.004886921960860491
01:00:0A:00:00:00:00;1727222744;25/09/24;00:05:44;1.008;0.037;0.146;0.02076941914856434;-0.009773843921720982;0.004886921960860491
01:00:0A:00:00:00:00;1727222745;25/09/24;00:05:45;1.008;0.037;0.146;0.02076941914856434;-0.010995574295520782;0.004886921960860491
01:00:0A:00:00:00:00;1727222746;25/09/24;00:05:46;1.008;0.037;0.148;0.02076941914856434;-0.012217304669320583;0.0036651913542300463
01:00:0A:00:00:00:00;1727222747;25/09/24;00:05:47;1.008;0.036;0.148;0.02076941914856434;-0.012217304669320583;0.004886921960860491
01:00:0A:00:00:00:00;1727222748;25/09/24;00:05:48;1.009;0.037;0.148;0.019547687843441963;-0.009773843921720982;0.004886921960860491
01:00:0A:00:00:00:00;1727222749;25/09/24;00:05:49;1.008;0.038;0.147;0.02076941914856434;-0.009773843921720982;0.004886921960860491
01:00:0A:00:00:00:00;1727222750;25/09/24;00:05:50;1.009;0.037;0.147;0.019547687843441963;-0.009773843921720982;0.004886921960860491
01:00:0A:00:00:00:00;1727222751;25/09/24;00:05:51;1.008;0.037;0.149;0.018325956538319588;-0.00855211354792118;0.006108652334660292
01:00:0A:00:00:00:00;1727222752;25/09/24;00:05:52;1.007;0.038;0.147;0.018325956538319588;-0.010995574295520782;0.004886921960860491
01:00:0A:00:00:00:00;1727222753;25/09/24;00:05:53;1.008;0.037;0.147;0.019547687843441963;-0.012217304669320583;0.0036651913542300463
01:00:0A:00:00:00:00;1727222754;25/09/24;00:05:54;1.009;0.035;0.15;0.02076941914856434;-0.009773843921720982;0.004886921960860491
01:00:0A:00:00:00:00;1727222755;25/09/24;00:05:55;1.009;0.035;0.148;0.021991148591041565;-0.00855211354792118;0.004886921960860491
01:00:0A:00:00:00:00;1727222756;25/09/24;00:05:56;1.006;0.036;0.147;0.02321287989616394;-0.009773843921720982;0.006108652334660292
01:00:0A:00:00:00:00;1727222757;25/09/24;00:05:57;1.007;0.036;0.148;0.024434609338641167;-0.012217304669320583;0.006108652334660292
01:00:0A:00:00:00:00;1727222758;25/09/24;00:05:58;1.008;0.036;0.148;0.02687807008624077;-0.012217304669320583;0.004886921960860491
01:00:0A:00:00:00:00;1727222759;25/09/24;00:05:59;1.01;0.037;0.148;0.02687807008624077;-0.010995574295520782;0.006108652334660292
01:00:0A:00:00:00:00;1727222760;25/09/24;00:06:00;1.009;0.036;0.148;0.02687807008624077;-0.00855211354792118;0.006108652334660292
01:00:0A:00:00:00:00;1727222761;25/09/24;00:06:01;1.008;0.036;0.148;0.028099799528717995;-0.0073303827084600925;0.004886921960860491
01:00:0A:00:00:00:00;1727222762;25/09/24;00:06:02;1.007;0.036;0.147;0.028099799528717995;-0.00855211354792118;0.004886921960860491
01:00:0A:00:00:00:00;1727222763;25/09/24;00:06:03;1.006;0.036;0.147;0.028099799528717995;-0.00855211354792118;0.006108652334660292
01:00:0A:00:00:00:00;1727222764;25/09/24;00:06:04;1.006;0.036;0.147;0.028099799528717995;-0.012217304669320583;0.006108652334660292
01:00:0A:00:00:00:00;1727222765;25/09/24;00:06:05;1.008;0.037;0.148;0.02932153083384037;-0.014660765416920185;0.006108652334660292
01:00:0A:00:00:00:00;1727222766;25/09/24;00:06:06;1.01;0.036;0.149;0.028099799528717995;-0.009773843921720982;0.006108652334660292
01:00:0A:00:00:00:00;1727222767;25/09/24;00:06:07;1.009;0.037;0.149;0.02687807008624077;-0.0073303827084600925;0.006108652334660292
01:00:0A:00:00:00:00;1727222768;25/09/24;00:06:08;1.008;0.037;0.147;0.028099799528717995;-0.0073303827084600925;0.0036651913542300463
01:00:0A:00:00:00:00;1727222769;25/09/24;00:06:09;1.009;0.037;0.147;0.02687807008624077;-0.00855211354792118;0.004886921960860491
01:00:0A:00:00:00:00;1727222770;25/09/24;00:06:10;1.008;0.036;0.147;0.025656338781118393;-0.010995574295520782;0.006108652334660292
01:00:0A:00:00:00:00;1727222771;25/09/24;00:06:11;1.008;0.037;0.147;0.025656338781118393;-0.010995574295520782;0.006108652334660292
01:00:0A:00:00:00:00;1727222772;25/09/24;00:06:12;1.008;0.038;0.147;0.024434609338641167;-0.010995574295520782;0.006108652334660292
01:00:0A:00:00:00:00;1727222773;25/09/24;00:06:13;1.008;0.037;0.148;0.02321287989616394;-0.009773843921720982;0.004886921960860491
01:00:0A:00:00:00:00;1727222774;25/09/24;00:06:14;1.008;0.037;0.148;0.021991148591041565;-0.009773843921720982;0.0036651913542300463
01:00:0A:00:00:00:00;1727222775;25/09/24;00:06:15;1.008;0.036;0.148;0.02076941914856434;-0.009773843921720982;0.004886921960860491
01:00:0A:00:00:00:00;1727222776;25/09/24;00:06:16;1.009;0.038;0.148;0.018325956538319588;-0.010995574295520782;0.006108652334660292
01:00:0A:00:00:00:00;1727222777;25/09/24;00:06:17;1.009;0.038;0.148;0.018325956538319588;-0.010995574295520782;0.004886921960860491
01:00:0A:00:00:00:00;1727222778;25/09/24;00:06:18;1.008;0.037;0.148;0.01710422709584236;-0.009773843921720982;0.0036651913542300463
01:00:0A:00:00:00:00;1727222779;25/09/24;00:06:19;1.009;0.037;0.148;0.015882495790719986;-0.00855211354792118;0.0036651913542300463
01:00:0A:00:00:00:00;1727222780;25/09/24;00:06:20;1.008;0.038;0.147;0.014660765416920185;-0.010995574295520782;0.0036651913542300463
01:00:0A:00:00:00:00;1727222781;25/09/24;00:06:21;1.009;0.037;0.147;0.014660765416920185;-0.010995574295520782;0.0036651913542300463
01:00:0A:00:00:00:00;1727222782;25/09/24;00:06:22;1.009;0.037;0.149;0.013439035043120384;-0.010995574295520782;0.006108652334660292
01:00:0A:00:00:00:00;1727222783;25/09/24;00:06:23;1.009;0.037;0.148;0.013439035043120384;-0.010995574295520782;0.004886921960860491
01:00:0A:00:00:00:00;1727222784;25/09/24;00:06:24;1.009;0.037;0.148;0.013439035043120384;-0.010995574295520782;0.0036651913542300463
01:00:0A:00:00:00:00;1727222785;25/09/24;00:06:25;1.008;0.038;0.15;0.013439035043120384;-0.009773843921720982;0.0036651913542300463
01:00:0A:00:00:00:00;1727222786;25/09/24;00:06:26;1.009;0.037;0.147;0.013439035043120384;-0.009773843921720982;0.0036651913542300463
01:00:0A:00:00:00:00;1727222787;25/09/24;00:06:27;1.008;0.036;0.147;0.013439035043120384;-0.010995574295520782;0.0036651913542300463
01:00:0A:00:00:00:00;1727222788;25/09/24;00:06:28;1.007;0.037;0.148;0.013439035043120384;-0.010995574295520782;0.004886921960860491
01:00:0A:00:00:00:00;1727222789;25/09/24;00:06:29;1.009;0.037;0.147;0.013439035043120384;-0.012217304669320583;0.004886921960860491
01:00:0A:00:00:00:00;1727222790;25/09/24;00:06:30;1.007;0.037;0.148;0.013439035043120384;-0.010995574295520782;0.0036651913542300463
01:00:0A:00:00:00:00;1727222791;25/09/24;00:06:31;1.008;0.037;0.147;0.012217304669320583;-0.009773843921720982;0.0036651913542300463
01:00:0A:00:00:00:00;1727222792;25/09/24;00:06:32;1.009;0.037;0.147;0.012217304669320583;-0.010995574295520782;0.0036651913542300463
01:00:0A:00:00:00:00;1727222793;25/09/24;00:06:33;1.008;0.037;0.148;0.010995574295520782;-0.010995574295520782;0.0036651913542300463
01:00:0A:00:00:00:00;1727222794;25/09/24;00:06:34;1.009;0.037;0.147;0.010995574295520782;-0.009773843921720982;0.0036651913542300463
01:00:0A:00:00:00:00;1727222795;25/09/24;00:06:35;1.008;0.036;0.148;0.010995574295520782;-0.010995574295520782;0.0036651913542300463
01:00:0A:00:00:00:00;1727222796;25/09/24;00:06:36;1.008;0.038;0.147;0.009773843921720982;-0.012217304669320583;0.0036651913542300463
01:00:0A:00:00:00:00;1727222797;25/09/24;00:06:37;1.009;0.037;0.149;0.009773843921720982;-0.010995574295520782;0.0036651913542300463
01:00:0A:00:00:00:00;1727222798;25/09/24;00:06:38;1.009;0.036;0.149;0.00855211354792118;-0.009773843921720982;0.0036651913542300463
01:00:0A:00:00:00:00;1727222799;25/09/24;00:06:39;1.009;0.037;0.147;0.0073303827084600925;-0.010995574295520782;0.0036651913542300463
01:00:0A:00:00:00:00;1727222800;25/09/24;00:06:40;1.008;0.037;0.148;0.0073303827084600925;-0.010995574295520782;0.0036651913542300463
01:00:0A:00:00:00:00;1727222801;25/09/24;00:06:41;1.009;0.037;0.149;0.0073303827084600925;-0.010995574295520782;0.0024434609804302454
01:00:0A:00:00:00:00;1727222802;25/09/24;00:06:42;1.008;0.037;0.148;0.006108652334660292;-0.009773843921720982;0.0024434609804302454
01:00:0A:00:00:00:00;1727222803;25/09/24;00:06:43;1.008;0.037;0.148;0.004886921960860491;-0.009773843921720982;0.0024434609804302454
01:00:0A:00:00:00:00;1727222804;25/09/24;00:06:44;1.007;0.038;0.148;0.004886921960860491;-0.012217304669320583;0.0036651913542300463
01:00:0A:00:00:00:00;1727222805;25/09/24;00:06:45;1.007;0.038;0.147;0.004886921960860491;-0.012217304669320583;0.0036651913542300463
01:00:0A:00:00:00:00;1727222806;25/09/24;00:06:46;1.008;0.037;0.148;0.004886921960860491;-0.010995574295520782;0.0024434609804302454
01:00:0A:00:00:00:00;1727222807;25/09/24;00:06:47;1.009;0.036;0.147;0.0036651913542300463;-0.012217304669320583;0.0024434609804302454
01:00:0A:00:00:00:00;1727222808;25/09/24;00:06:48;1.008;0.036;0.149;0.004886921960860491;-0.010995574295520782;0.0024434609804302454
01:00:0A:00:00:00:00;1727222809;25/09/24;00:06:49;1.01;0.036;0.148;0.006108652334660292;-0.00855211354792118;0.0036651913542300463
01:00:0A:00:00:00:00;1727222810;25/09/24;00:06:50;1.008;0.037;0.147;0.006108652334660292;-0.009773843921720982;0.0036651913542300463
01:00:0A:00:00:00:00;1727222811;25/09/24;00:06:51;1.009;0.035;0.148;0.0073303827084600925;-0.012217304669320583;0.0036651913542300463
01:00:0A:00:00:00:00;1727222812;25/09/24;00:06:52;1.008;0.037;0.147;0.00855211354792118;-0.012217304669320583;0.0036651913542300463
01:00:0A:00:00:00:00;1727222813;25/09/24;00:06:53;1.008;0.036;0.149;0.010995574295520782;-0.012217304669320583;0.0036651913542300463
01:00:0A:00:00:00:00;1727222814;25/09/24;00:06:54;1.008;0.036;0.148;0.012217304669320583;-0.010995574295520782;0.0036651913542300463
01:00:0A:00:00:00:00;1727222815;25/09/24;00:06:55;1.008;0.036;0.148;0.013439035043120384;-0.009773843921720982;0.0036651913542300463
01:00:0A:00:00:00:00;1727222816;25/09/24;00:06:56;1.008;0.037;0.148;0.013439035043120384;-0.009773843921720982;0.0036651913542300463
01:00:0A:00:00:00:00;1727222817;25/09/24;00:06:57;1.009;0.036;0.147;0.015882495790719986;-0.009773843921720982;0.0036651913542300463
01:00:0A:00:00:00:00;1727222818;25/09/24;00:06:58;1.007;0.036;0.147;0.015882495790719986;-0.010995574295520782;0.0036651913542300463
01:00:0A:00:00:00:00;1727222819;25/09/24;00:06:59;1.008;0.036;0.148;0.01710422709584236;-0.012217304669320583;0.0036651913542300463
01:00:0A:00:00:00:00;1727222820;25/09/24;00:07:00;1.009;0.036;0.149;0.01710422709584236;-0.012217304669320583;0.004886921960860491
01:00:0A:00:00:00:00;1727222821;25/09/24;00:07:01;1.009;0.036;0.148;0.01710422709584236;-0.009773843921720982;0.004886921960860491
01:00:0A:00:00:00:00;1727222822;25/09/24;00:07:02;1.008;0.037;0.147;0.01710422709584236;-0.00855211354792118;0.004886921960860491
01:00:0A:00:00:00:00;1727222823;25/09/24;00:07:03;1.008;0.037;0.147;0.01710422709584236;-0.012217304669320583;0.004886921960860491
01:00:0A:00:00:00:00;1727222824;25/09/24;00:07:04;1.009;0.037;0.148;0.01710422709584236;-0.012217304669320583;0.004886921960860491
01:00:0A:00:00:00:00;1727222825;25/09/24;00:07:05;1.009;0.036;0.149;0.01710422709584236;-0.009773843921720982;0.0036651913542300463
01:00:0A:00:00:00:00;1727222826;25/09/24;00:07:06;1.009;0.038;0.149;0.01710422709584236;-0.009773843921720982;0.0036651913542300463
01:00:0A:00:00:00:00;1727222827;25/09/24;00:07:07;1.008;0.037;0.147;0.015882495790719986;-0.00855211354792118;0.0036651913542300463
01:00:0A:00:00:00:00;1727222828;25/09/24;00:07:08;1.007;0.036;0.148;0.015882495790719986;-0.009773843921720982;0.0036651913542300463
01:00:0A:00:00:00:00;1727222829;25/09/24;00:07:09;1.007;0.036;0.148;0.014660765416920185;-0.010995574295520782;0.004886921960860491
01:00:0A:00:00:00:00;1727222830;25/09/24;00:07:10;1.007;0.037;0.147;0.014660765416920185;-0.012217304669320583;0.0036651913542300463
01:00:0A:00:00:00:00;1727222831;25/09/24;00:07:11;1.009;0.037;0.148;0.014660765416920185;-0.012217304669320583;0.0036651913542300463
01:00:0A:00:00:00:00;1727222832;25/09/24;00:07:12;1.01;0.037;0.149;0.014660765416920185;-0.009773843921720982;0.0036651913542300463
01:00:0A:00:00:00:00;1727222833;25/09/24;00:07:13;1.009;0.037;0.148;0.014660765416920185;-0.0073303827084600925;0.0036651913542300463
01:00:0A:00:00:00:00;1727222834;25/09/24;00:07:14;1.007;0.036;0.147;0.014660765416920185;-0.00855211354792118;0.0036651913542300463
01:00:0A:00:00:00:00;1727222835;25/09/24;00:07:15;1.007;0.038;0.146;0.014660765416920185;-0.012217304669320583;0.004886921960860491
01:00:0A:00:00:00:00;1727222836;25/09/24;00:07:16;1.008;0.045;0.145;0.03420845419168472;-0.01710422709584236;-0.012217304669320583
01:00:0A:00:00:00:00;1727222837;25/09/24;00:07:17;1.008;0.05;0.144;0.0012217304902151227;-0.00855211354792118;0.009773843921720982
01:00:0A:00:00:00:00;1727222838;25/09/24;00:07:18;1.008;0.036;0.149;-0.0036651913542300463;-0.00855211354792118;0.013439035043120384
01:00:0A:00:00:00:00;1727222839;25/09/24;00:07:19;1.01;0.035;0.148;0.010995574295520782;-0.012217304669320583;0.0036651913542300463
01:00:0A:00:00:00:00;1727222840;25/09/24;00:07:20;1.008;0.036;0.148;0.013439035043120384;-0.010995574295520782;0.0012217304902151227
01:00:0A:00:00:00:00;1727222841;25/09/24;00:07:21;1.009;0.04;0.148;0.010995574295520782;-0.009773843921720982;0.0024434609804302454
01:00:0A:00:00:00:00;1727222842;25/09/24;00:07:22;1.008;0.04;0.147;0.006108652334660292;-0.009773843921720982;0.004886921960860491
01:00:0A:00:00:00:00;1727222843;25/09/24;00:07:23;1.008;0.037;0.149;0.0073303827084600925;-0.010995574295520782;0.004886921960860491
01:00:0A:00:00:00:00;1727222844;25/09/24;00:07:24;1.008;0.037;0.149;0.010995574295520782;-0.012217304669320583;0.0024434609804302454
01:00:0A:00:00:00:00;1727222845;25/09/24;00:07:25;1.007;0.038;0.146;0.010995574295520782;-0.010995574295520782;0.0024434609804302454
01:00:0A:00:00:00:00;1727222846;25/09/24;00:07:26;1.008;0.038;0.147;0.0073303827084600925;-0.009773843921720982;0.0036651913542300463
01:00:0A:00:00:00:00;1727222847;25/09/24;00:07:27;1.008;0.037;0.149;0.0073303827084600925;-0.010995574295520782;0.004886921960860491
01:00:0A:00:00:00:00;1727222848;25/09/24;00:07:28;1.008;0.036;0.147;0.00855211354792118;-0.010995574295520782;0.0036651913542300463
01:00:0A:00:00:00:00;1727222849;25/09/24;00:07:29;1.008;0.037;0.146;0.009773843921720982;-0.009773843921720982;0.0024434609804302454
01:00:0A:00:00:00:00;1727222850;25/09/24;00:07:30;1.008;0.038;0.148;0.009773843921720982;-0.010995574295520782;0.0036651913542300463
01:00:0A:00:00:00:00;1727222851;25/09/24;00:07:31;1.008;0.038;0.147;0.00855211354792118;-0.010995574295520782;0.004886921960860491
01:00:0A:00:00:00:00;1727222852;25/09/24;00:07:32;1.008;0.038;0.149;0.00855211354792118;-0.010995574295520782;0.0036651913542300463
01:00:0A:00:00:00:00;1727222853;25/09/24;00:07:33;1.008;0.038;0.147;0.009773843921720982;-0.010995574295520782;0.0024434609804302454
01:00:0A:00:00:00:00;1727222854;25/09/24;00:07:34;1.008;0.037;0.147;0.009773843921720982;-0.010995574295520782;0.0024434609804302454
01:00:0A:00:00:00:00;1727222855;25/09/24;00:07:35;1.008;0.038;0.148;0.0073303827084600925;-0.009773843921720982;0.0036651913542300463
01:00:0A:00:00:00:00;1727222856;25/09/24;00:07:36;1.008;0.038;0.149;0.0073303827084600925;-0.012217304669320583;0.0036651913542300463
01:00:0A:00:00:00:00;1727222857;25/09/24;00:07:37;1.008;0.038;0.148;0.00855211354792118;-0.012217304669320583;0.0036651913542300463
01:00:0A:00:00:00:00;1727222858;25/09/24;00:07:38;1.009;0.038;0.147;0.00855211354792118;-0.010995574295520782;0.0036651913542300463
01:00:0A:00:00:00:00;1727222859;25/09/24;00:07:39;1.01;0.038;0.148;0.0073303827084600925;-0.009773843921720982;0.0024434609804302454
01:00:0A:00:00:00:00;1727222860;25/09/24;00:07:40;1.008;0.037;0.147;0.0073303827084600925;-0.010995574295520782;0.0036651913542300463
01:00:0A:00:00:00:00;1727222861;25/09/24;00:07:41;1.007;0.038;0.147;0.0073303827084600925;-0.010995574295520782;0.0036651913542300463
01:00:0A:00:00:00:00;1727222862;25/09/24;00:07:42;1.006;0.037;0.147;0.0073303827084600925;-0.012217304669320583;0.0036651913542300463
01:00:0A:00:00:00:00;1727222863;25/09/24;00:07:43;1.009;0.038;0.147;0.0073303827084600925;-0.012217304669320583;0.0036651913542300463
01:00:0A:00:00:00:00;1727222864;25/09/24;00:07:44;1.009;0.037;0.148;0.0073303827084600925;-0.010995574295520782;0.0024434609804302454
01:00:0A:00:00:00:00;1727222865;25/09/24;00:07:45;1.008;0.037;0.148;0.0073303827084600925;-0.009773843921720982;0.0036651913542300463
01:00:0A:00:00:00:00;1727222866;25/09/24;00:07:46;1.008;0.038;0.147;0.0073303827084600925;-0.010995574295520782;0.0036651913542300463
01:00:0A:00:00:00:00;1727222867;25/09/24;00:07:47;1.009;0.037;0.147;0.0073303827084600925;-0.010995574295520782;0.0024434609804302454
01:00:0A:00:00:00:00;1727222868;25/09/24;00:07:48;1.008;0.037;0.147;0.0073303827084600925;-0.010995574295520782;0.0036651913542300463
01:00:0A:00:00:00:00;1727222869;25/09/24;00:07:49;1.008;0.037;0.147;0.0073303827084600925;-0.012217304669320583;0.0036651913542300463
01:00:0A:00:00:00:00;1727222870;25/09/24;00:07:50;1.009;0.037;0.147;0.0073303827084600925;-0.012217304669320583;0.0036651913542300463
01:00:0A:00:00:00:00;1727222871;25/09/24;00:07:51;1.009;0.038;0.146;0.0073303827084600925;-0.009773843921720982;0.0036651913542300463
01:00:0A:00:00:00:00;1727222872;25/09/24;00:07:52;1.008;0.037;0.147;0.006108652334660292;-0.00855211354792118;0.0024434609804302454
01:00:0A:00:00:00:00;1727222873;25/09/24;00:07:53;1.007;0.038;0.147;0.006108652334660292;-0.009773843921720982;0.0024434609804302454
01:00:0A:00:00:00:00;1727222874;25/09/24;00:07:54;1.007;0.037;0.147;0.006108652334660292;-0.012217304669320583;0.0024434609804302454
01:00:0A:00:00:00:00;1727222875;25/09/24;00:07:55;1.007;0.037;0.148;0.004886921960860491;-0.013439035043120384;0.0036651913542300463
01:00:0A:00:00:00:00;1727222876;25/09/24;00:07:56;1.008;0.037;0.148;0.0036651913542300463;-0.010995574295520782;0.0024434609804302454
01:00:0A:00:00:00:00;1727222877;25/09/24;00:07:57;1.009;0.039;0.148;0.0036651913542300463;-0.009773843921720982;0.0024434609804302454
01:00:0A:00:00:00:00;1727222878;25/09/24;00:07:58;1.008;0.038;0.147;0.0036651913542300463;-0.009773843921720982;0.0024434609804302454
01:00:0A:00:00:00:00;1727222879;25/09/24;00:07:59;1.008;0.038;0.146;0.0036651913542300463;-0.010995574295520782;0.0024434609804302454
01:00:0A:00:00:00:00;1727222880;25/09/24;00:08:00;1.007;0.038;0.147;0.0024434609804302454;-0.010995574295520782;0.0024434609804302454
01:00:0A:00:00:00:00;1727222881;25/09/24;00:08:01;1.007;0.038;0.147;0.0036651913542300463;-0.013439035043120384;0.0036651913542300463
01:00:0A:00:00:00:00;1727222882;25/09/24;00:08:02;1.008;0.038;0.147;0.0036651913542300463;-0.012217304669320583;0.0036651913542300463
01:00:0A:00:00:00:00;1727222883;25/09/24;00:08:03;1.01;0.037;0.148;0.0036651913542300463;-0.009773843921720982;0.0024434609804302454
01:00:0A:00:00:00:00;1727222884;25/09/24;00:08:04;1.008;0.037;0.146;0.0036651913542300463;-0.009773843921720982;0.0024434609804302454
01:00:0A:00:00:00:00;1727222885;25/09/24;00:08:05;1.008;0.038;0.146;0.004886921960860491;-0.009773843921720982;0.0024434609804302454
01:00:0A:00:00:00:00;1727222886;25/09/24;00:08:06;1.008;0.038;0.147;0.004886921960860491;-0.010995574295520782;0.0036651913542300463
01:00:0A:00:00:00:00;1727222887;25/09/24;00:08:07;1.008;0.037;0.149;0.006108652334660292;-0.012217304669320583;0.0036651913542300463
01:00:0A:00:00:00:00;1727222888;25/09/24;00:08:08;1.009;0.037;0.148;0.006108652334660292;-0.010995574295520782;0.0036651913542300463
01:00:0A:00:00:00:00;1727222889;25/09/24;00:08:09;1.009;0.038;0.149;0.006108652334660292;-0.009773843921720982;0.0024434609804302454
01:00:0A:00:00:00:00;1727222890;25/09/24;00:08:10;1.008;0.037;0.148;0.006108652334660292;-0.009773843921720982;0.0036651913542300463
01:00:0A:00:00:00:00;1727222891;25/09/24;00:08:11;1.007;0.037;0.148;0.0073303827084600925;-0.009773843921720982;0.0024434609804302454
01:00:0A:00:00:00:00;1727222892;25/09/24;00:08:12;1.008;0.038;0.147;0.0073303827084600925;-0.010995574295520782;0.0036651913542300463
01:00:0A:00:00:00:00;1727222893;25/09/24;00:08:13;1.008;0.038;0.149;0.0073303827084600925;-0.012217304669320583;0.0036651913542300463
01:00:0A:00:00:00:00;1727222894;25/09/24;00:08:14;1.009;0.037;0.148;0.0073303827084600925;-0.010995574295520782;0.0036651913542300463
01:00:0A:00:00:00:00;1727222895;25/09/24;00:08:15;1.009;0.038;0.148;0.0073303827084600925;-0.009773843921720982;0.0036651913542300463
01:00:0A:00:00:00:00;1727222896;25/09/24;00:08:16;1.008;0.037;0.148;0.00855211354792118;-0.009773843921720982;0.0036651913542300463
01:00:0A:00:00:00:00;1727222897;25/09/24;00:08:17;1.008;0.037;0.148;0.00855211354792118;-0.010995574295520782;0.0036651913542300463
01:00:0A:00:00:00:00;1727222898;25/09/24;00:08:18;1.008;0.037;0.148;0.00855211354792118;-0.010995574295520782;0.0036651913542300463
01:00:0A:00:00:00:00;1727222899;25/09/24;00:08:19;1.007;0.037;0.148;0.009773843921720982;-0.012217304669320583;0.0036651913542300463
01:00:0A:00:00:00:00;1727222900;25/09/24;00:08:20;1.009;0.037;0.147;0.009773843921720982;-0.012217304669320583;0.0036651913542300463
01:00:0A:00:00:00:00;1727222901;25/09/24;00:08:21;1.008;0.038;0.148;0.010995574295520782;-0.010995574295520782;0.0036651913542300463
01:00:0A:00:00:00:00;1727222902;25/09/24;00:08:22;1.008;0.036;0.148;0.010995574295520782;-0.009773843921720982;0.0036651913542300463
01:00:0A:00:00:00:00;1727222903;25/09/24;00:08:23;1.008;0.037;0.148;0.012217304669320583;-0.009773843921720982;0.0036651913542300463
01:00:0A:00:00:00:00;1727222904;25/09/24;00:08:24;1.007;0.037;0.147;0.013439035043120384;-0.009773843921720982;0.0036651913542300463
01:00:0A:00:00:00:00;1727222905;25/09/24;00:08:25;1.006;0.037;0.148;0.014660765416920185;-0.010995574295520782;0.004886921960860491
01:00:0A:00:00:00:00;1727222906;25/09/24;00:08:26;1.008;0.036;0.148;0.014660765416920185;-0.010995574295520782;0.0036651913542300463
01:00:0A:00:00:00:00;1727222907;25/09/24;00:08:27;1.009;0.036;0.148;0.015882495790719986;-0.010995574295520782;0.004886921960860491
01:00:0A:00:00:00:00;1727222908;25/09/24;00:08:28;1.007;0.037;0.148;0.01710422709584236;-0.010995574295520782;0.004886921960860491
01:00:0A:00:00:00:00;1727222909;25/09/24;00:08:29;1.009;0.037;0.148;0.01710422709584236;-0.010995574295520782;0.004886921960860491
01:00:0A:00:00:00:00;1727222910;25/09/24;00:08:30;1.009;0.036;0.149;0.018325956538319588;-0.00855211354792118;0.004886921960860491
01:00:0A:00:00:00:00;1727222911;25/09/24;00:08:31;1.007;0.036;0.148;0.019547687843441963;-0.009773843921720982;0.004886921960860491
01:00:0A:00:00:00:00;1727222912;25/09/24;00:08:32;1.008;0.037;0.148;0.019547687843441963;-0.010995574295520782;0.004886921960860491
01:00:0A:00:00:00:00;1727222913;25/09/24;00:08:33;1.009;0.037;0.149;0.02076941914856434;-0.009773843921720982;0.004886921960860491
01:00:0A:00:00:00:00;1727222914;25/09/24;00:08:34;1.007;0.037;0.148;0.021991148591041565;-0.010995574295520782;0.006108652334660292
01:00:0A:00:00:00:00;1727222915;25/09/24;00:08:35;1.009;0.036;0.149;0.021991148591041565;-0.010995574295520782;0.004886921960860491
01:00:0A:00:00:00:00;1727222916;25/09/24;00:08:36;1.008;0.036;0.148;0.021991148591041565;-0.00855211354792118;0.004886921960860491
01:00:0A:00:00:00:00;1727222917;25/09/24;00:08:37;1.008;0.037;0.148;0.02321287989616394;-0.00855211354792118;0.004886921960860491
01:00:0A:00:00:00:00;1727222918;25/09/24;00:08:38;1.009;0.036;0.147;0.02321287989616394;-0.010995574295520782;0.006108652334660292
01:00:0A:00:00:00:00;1727222919;25/09/24;00:08:39;1.007;0.036;0.149;0.02321287989616394;-0.010995574295520782;0.004886921960860491
01:00:0A:00:00:00:00;1727222920;25/09/24;00:08:40;1.008;0.037;0.148;0.024434609338641167;-0.010995574295520782;0.004886921960860491
01:00:0A:00:00:00:00;1727222921;25/09/24;00:08:41;1.009;0.037;0.149;0.024434609338641167;-0.009773843921720982;0.004886921960860491
01:00:0A:00:00:00:00;1727222922;25/09/24;00:08:42;1.007;0.037;0.148;0.024434609338641167;-0.00855211354792118;0.004886921960860491
01:00:0A:00:00:00:00;1727222923;25/09/24;00:08:43;1.008;0.037;0.148;0.024434609338641167;-0.00855211354792118;0.006108652334660292
01:00:0A:00:00:00:00;1727222924;25/09/24;00:08:44;1.008;0.038;0.149;0.024434609338641167;-0.010995574295520782;0.006108652334660292
01:00:0A:00:00:00:00;1727222925;25/09/24;00:08:45;1.007;0.038;0.149;0.024434609338641167;-0.010995574295520782;0.006108652334660292
01:00:0A:00:00:00:00;1727222926;25/09/24;00:08:46;1.009;0.036;0.149;0.025656338781118393;-0.010995574295520782;0.004886921960860491
01:00:0A:00:00:00:00;1727222927;25/09/24;00:08:47;1.009;0.037;0.148;0.024434609338641167;-0.009773843921720982;0.006108652334660292
01:00:0A:00:00:00:00;1727222928;25/09/24;00:08:48;1.008;0.036;0.148;0.024434609338641167;-0.00855211354792118;0.004886921960860491
01:00:0A:00:00:00:00;1727222929;25/09/24;00:08:49;1.009;0.037;0.148;0.024434609338641167;-0.00855211354792118;0.004886921960860491
01:00:0A:00:00:00:00;1727222930;25/09/24;00:08:50;1.007;0.037;0.148;0.024434609338641167;-0.010995574295520782;0.006108652334660292
01:00:0A:00:00:00:00;1727222931;25/09/24;00:08:51;1.007;0.038;0.148;0.024434609338641167;-0.012217304669320583;0.006108652334660292
01:00:0A:00:00:00:00;1727222932;25/09/24;00:08:52;1.009;0.037;0.148;0.024434609338641167;-0.010995574295520782;0.004886921960860491
01:00:0A:00:00:00:00;1727222933;25/09/24;00:08:53;1.009;0.037;0.148;0.024434609338641167;-0.00855211354792118;0.004886921960860491
01:00:0A:00:00:00:00;1727222934;25/09/24;00:08:54;1.009;0.036;0.148;0.02321287989616394;-0.00855211354792118;0.004886921960860491
01:00:0A:00:00:00:00;1727222935;25/09/24;00:08:55;1.007;0.037;0.148;0.02321287989616394;-0.00855211354792118;0.004886921960860491
01:00:0A:00:00:00:00;1727222936;25/09/24;00:08:56;1.007;0.037;0.148;0.02321287989616394;-0.010995574295520782;0.004886921960860491
01:00:0A:00:00:00:00;1727222937;25/09/24;00:08:57;1.008;0.038;0.148;0.021991148591041565;-0.010995574295520782;0.004886921960860491
01:00:0A:00:00:00:00;1727222938;25/09/24;00:08:58;1.008;0.036;0.149;0.021991148591041565;-0.010995574295520782;0.004886921960860491
01:00:0A:00:00:00:00;1727222939;25/09/24;00:08:59;1.009;0.037;0.148;0.021991148591041565;-0.010995574295520782;0.004886921960860491
01:00:0A:00:00:00:00;1727222940;25/09/24;00:09:00;1.01;0.037;0.148;0.02076941914856434;-0.00855211354792118;0.004886921960860491
01:00:0A:00:00:00:00;1727222941;25/09/24;00:09:01;1.008;0.037;0.148;0.02076941914856434;-0.00855211354792118;0.004886921960860491
01:00:0A:00:00:00:00;1727222942;25/09/24;00:09:02;1.008;0.037;0.148;0.019547687843441963;-0.010995574295520782;0.004886921960860491
01:00:0A:00:00:00:00;1727222943;25/09/24;00:09:03;1.008;0.038;0.148;0.019547687843441963;-0.010995574295520782;0.004886921960860491
01:00:0A:00:00:00:00;1727222944;25/09/24;00:09:04;1.01;0.038;0.147;0.018325956538319588;-0.010995574295520782;0.004886921960860491
01:00:0A:00:00:00:00;1727222945;25/09/24;00:09:05;1.009;0.037;0.148;0.018325956538319588;-0.009773843921720982;0.004886921960860491
01:00:0A:00:00:00:00;1727222946;25/09/24;00:09:06;1.008;0.037;0.148;0.01710422709584236;-0.009773843921720982;0.004886921960860491
01:00:0A:00:00:00:00;1727222947;25/09/24;00:09:07;1.009;0.038;0.148;0.015882495790719986;-0.009773843921720982;0.0036651913542300463
01:00:0A:00:00:00:00;1727222948;25/09/24;00:09:08;1.009;0.038;0.148;0.015882495790719986;-0.009773843921720982;0.0036651913542300463
01:00:0A:00:00:00:00;1727222949;25/09/24;00:09:09;1.008;0.037;0.147;0.015882495790719986;-0.010995574295520782;0.0036651913542300463
01:00:0A:00:00:00:00;1727222950;25/09/24;00:09:10;1.009;0.038;0.147;0.014660765416920185;-0.010995574295520782;0.0036651913542300463
01:00:0A:00:00:00:00;1727222951;25/09/24;00:09:11;1.008;0.039;0.148;0.013439035043120384;-0.010995574295520782;0.0036651913542300463
01:00:0A:00:00:00:00;1727222952;25/09/24;00:09:12;1.007;0.038;0.148;0.013439035043120384;-0.009773843921720982;0.0036651913542300463
01:00:0A:00:00:00:00;1727222953;25/09/24;00:09:13;1.008;0.038;0.148;0.012217304669320583;-0.009773843921720982;0.0036651913542300463
01:00:0A:00:00:00:00;1727222954;25/09/24;00:09:14;1.008;0.037;0.147;0.012217304669320583;-0.010995574295520782;0.0036651913542300463
01:00:0A:00:00:00:00;1727222955;25/09/24;00:09:15;1.009;0.038;0.148;0.010995574295520782;-0.010995574295520782;0.0036651913542300463
01:00:0A:00:00:00:00;1727222956;25/09/24;00:09:16;1.008;0.038;0.148;0.010995574295520782;-0.010995574295520782;0.0036651913542300463
01:00:0A:00:00:00:00;1727222957;25/09/24;00:09:17;1.008;0.038;0.149;0.009773843921720982;-0.010995574295520782;0.0036651913542300463
01:00:0A:00:00:00:00;1727222958;25/09/24;00:09:18;1.008;0.037;0.149;0.00855211354792118;-0.010995574295520782;0.0036651913542300463
01:00:0A:00:00:00:00;1727222959;25/09/24;00:09:19;1.008;0.037;0.148;0.00855211354792118;-0.010995574295520782;0.0036651913542300463
01:00:0A:00:00:00:00;1727222960;25/09/24;00:09:20;1.007;0.037;0.148;0.0073303827084600925;-0.010995574295520782;0.0036651913542300463
01:00:0A:00:00:00:00;1727222961;25/09/24;00:09:21;1.008;0.037;0.147;0.0073303827084600925;-0.010995574295520782;0.0036651913542300463
01:00:0A:00:00:00:00;1727222962;25/09/24;00:09:22;1.009;0.037;0.148;0.0073303827084600925;-0.010995574295520782;0.0036651913542300463
01:00:0A:00:00:00:00;1727222963;25/09/24;00:09:23;1.008;0.037;0.148;0.0073303827084600925;-0.010995574295520782;0.0036651913542300463
01:00:0A:00:00:00:00;1727222964;25/09/24;00:09:24;1.008;0.037;0.148;0.006108652334660292;-0.010995574295520782;0.0024434609804302454
01:00:0A:00:00:00:00;1727222965;25/09/24;00:09:25;1.008;0.038;0.147;0.006108652334660292;-0.010995574295520782;0.0024434609804302454
01:00:0A:00:00:00:00;1727222966;25/09/24;00:09:26;1.008;0.037;0.148;0.006108652334660292;-0.010995574295520782;0.0024434609804302454
01:00:0A:00:00:00:00;1727222967;25/09/24;00:09:27;1.009;0.037;0.147;0.006108652334660292;-0.010995574295520782;0.0024434609804302454
01:00:0A:00:00:00:00;1727222968;25/09/24;00:09:28;1.007;0.037;0.148;0.004886921960860491;-0.010995574295520782;0.0024434609804302454
01:00:0A:00:00:00:00;1727222969;25/09/24;00:09:29;1.009;0.037;0.148;0.004886921960860491;-0.012217304669320583;0.0024434609804302454
01:00:0A:00:00:00:00;1727222970;25/09/24;00:09:30;1.008;0.036;0.148;0.004886921960860491;-0.012217304669320583;0.0024434609804302454
01:00:0A:00:00:00:00;1727222971;25/09/24;00:09:31;1.008;0.037;0.148;0.004886921960860491;-0.010995574295520782;0.0024434609804302454
01:00:0A:00:00:00:00;1727222972;25/09/24;00:09:32;1.007;0.037;0.148;0.004886921960860491;-0.010995574295520782;0.0024434609804302454
01:00:0A:00:00:00:00;1727222973;25/09/24;00:09:33;1.008;0.037;0.148;0.004886921960860491;-0.010995574295520782;0.0024434609804302454
01:00:0A:00:00:00:00;1727222974;25/09/24;00:09:34;1.008;0.037;0.148;0.004886921960860491;-0.010995574295520782;0.0024434609804302454
01:00:0A:00:00:00:00;1727222975;25/09/24;00:09:35;1.007;0.037;0.148;0.004886921960860491;-0.010995574295520782;0.0024434609804302454
01:00:0A:00:00:00:00;1727222976;25/09/24;00:09:36;1.009;0.036;0.147;0.004886921960860491;-0.012217304669320583;0.0024434609804302454
01:00:0A:00:00:00:00;1727222977;25/09/24;00:09:37;1.01;0.038;0.148;0.004886921960860491;-0.010995574295520782;0.0024434609804302454
01:00:0A:00:00:00:00;1727222978;25/09/24;00:09:38;1.008;0.037;0.148;0.004886921960860491;-0.010995574295520782;0.0024434609804302454
01:00:0A:00:00:00:00;1727222979;25/09/24;00:09:39;1.009;0.037;0.148;0.004886921960860491;-0.009773843921720982;0.0024434609804302454
01:00:0A:00:00:00:00;1727222980;25/09/24;00:09:40;1.009;0.037;0.147;0.004886921960860491;-0.009773843921720982;0.0024434609804302454
01:00:0A:00:00:00:00;1727222981;25/09/24;00:09:41;1.008;0.037;0.148;0.004886921960860491;-0.012217304669320583;0.0024434609804302454
01:00:0A:00:00:00:00;1727222982;25/09/24;00:09:42;1.008;0.037;0.147;0.004886921960860491;-0.012217304669320583;0.0024434609804302454
01:00:0A:00:00:00:00;1727222983;25/09/24;00:09:43;1.008;0.036;0.148;0.004886921960860491;-0.010995574295520782;0.0024434609804302454
01:00:0A:00:00:00:00;1727222984;25/09/24;00:09:44;1.009;0.037;0.148;0.004886921960860491;-0.009773843921720982;0.0024434609804302454
01:00:0A:00:00:00:00;1727222985;25/09/24;00:09:45;1.009;0.036;0.147;0.004886921960860491;-0.010995574295520782;0.0036651913542300463
01:00:0A:00:00:00:00;1727222986;25/09/24;00:09:46;1.007;0.037;0.147;0.004886921960860491;-0.010995574295520782;0.0036651913542300463
01:00:0A:00:00:00:00;1727222987;25/09/24;00:09:47;1.008;0.037;0.147;0.006108652334660292;-0.010995574295520782;0.0036651913542300463
01:00:0A:00:00:00:00;1727222988;25/09/24;00:09:48;1.008;0.028;0.142;0.06475171446800232;-0.009773843921720982;0.012217304669320583
01:00:0A:00:00:00:00;1727222989;25/09/24;00:09:49;1.01;0.032;0.146;0.05375614017248154;-0.009773843921720982;0.012217304669320583
01:00:0A:00:00:00:00;1727222990;25/09/24;00:09:50;1.009;0.032;0.147;0.059864792972803116;-0.0036651913542300463;0.004886921960860491
01:00:0A:00:00:00:00;1727222991;25/09/24;00:09:51;1.008;0.04;0.149;0.05742133408784866;-0.004886921960860491;0.004886921960860491
01:00:0A:00:00:00:00;1727222992;25/09/24;00:09:52;1.007;0.04;0.149;0.04886921867728233;-0.009773843921720982;0.010995574295520782
01:00:0A:00:00:00:00;1727222993;25/09/24;00:09:53;1.008;0.035;0.147;0.045204028487205505;-0.010995574295520782;0.013439035043120384
01:00:0A:00:00:00:00;1727222994;25/09/24;00:09:54;1.008;0.033;0.147;0.04886921867728233;-0.00855211354792118;0.0073303827084600925
01:00:0A:00:00:00:00;1727222995;25/09/24;00:09:55;1.008;0.036;0.149;0.05253440886735916;-0.0073303827084600925;0.0036651913542300463
01:00:0A:00:00:00:00;1727222996;25/09/24;00:09:56;1.008;0.04;0.149;0.04886921867728233;-0.00855211354792118;0.0073303827084600925
01:00:0A:00:00:00:00;1727222997;25/09/24;00:09:57;1.008;0.039;0.148;0.042760565876960754;-0.009773843921720982;0.010995574295520782
01:00:0A:00:00:00:00;1727222998;25/09/24;00:09:58;1.008;0.035;0.148;0.04398229718208313;-0.00855211354792118;0.009773843921720982
01:00:0A:00:00:00:00;1727222999;25/09/24;00:09:59;1.008;0.035;0.148;0.04764748737215996;-0.00855211354792118;0.006108652334660292
01:00:0A:00:00:00:00;1727223000;25/09/24;00:10:00;1.007;0.038;0.147;0.04764748737215996;-0.009773843921720982;0.006108652334660292
01:00:0A:00:00:00:00;1727223001;25/09/24;00:10:01;1.007;0.037;0.147;0.04398229718208313;-0.009773843921720982;0.00855211354792118
01:00:0A:00:00:00:00;1727223002;25/09/24;00:10:02;1.007;0.036;0.148;0.04153883829712868;-0.009773843921720982;0.009773843921720982
01:00:0A:00:00:00:00;1727223003;25/09/24;00:10:03;1.009;0.036;0.147;0.04398229718208313;-0.0073303827084600925;0.0073303827084600925
01:00:0A:00:00:00:00;1727223004;25/09/24;00:10:04;1.008;0.036;0.149;0.04642575979232788;-0.0073303827084600925;0.006108652334660292
01:00:0A:00:00:00:00;1727223005;25/09/24;00:10:05;1.009;0.038;0.148;0.04398229718208313;-0.009773843921720982;0.0073303827084600925
01:00:0A:00:00:00:00;1727223006;25/09/24;00:10:06;1.009;0.037;0.148;0.04153883829712868;-0.009773843921720982;0.00855211354792118
01:00:0A:00:00:00:00;1727223007;25/09/24;00:10:07;1.008;0.036;0.149;0.042760565876960754;-0.009773843921720982;0.00855211354792118
01:00:0A:00:00:00:00;1727223008;25/09/24;00:10:08;1.008;0.035;0.149;0.04398229718208313;-0.00855211354792118;0.006108652334660292
01:00:0A:00:00:00:00;1727223009;25/09/24;00:10:09;1.008;0.037;0.149;0.04398229718208313;-0.009773843921720982;0.006108652334660292
01:00:0A:00:00:00:00;1727223010;25/09/24;00:10:10;1.009;0.038;0.149;0.04153883829712868;-0.00855211354792118;0.0073303827084600925
01:00:0A:00:00:00:00;1727223011;25/09/24;00:10:11;1.007;0.036;0.148;0.040317103266716;-0.00855211354792118;0.00855211354792118
01:00:0A:00:00:00:00;1727223012;25/09/24;00:10:12;1.008;0.036;0.148;0.04153883829712868;-0.009773843921720982;0.0073303827084600925
01:00:0A:00:00:00:00;1727223013;25/09/24;00:10:13;1.008;0.037;0.148;0.04153883829712868;-0.009773843921720982;0.0073303827084600925
01:00:0A:00:00:00:00;1727223014;25/09/24;00:10:14;1.008;0.037;0.148;0.040317103266716;-0.009773843921720982;0.0073303827084600925
01:00:0A:00:00:00:00;1727223015;25/09/24;00:10:15;1.007;0.037;0.147;0.039095375686883926;-0.00855211354792118;0.0073303827084600925
01:00:0A:00:00:00:00;1727223016;25/09/24;00:10:16;1.008;0.035;0.148;0.039095375686883926;-0.00855211354792118;0.0073303827084600925
01:00:0A:00:00:00:00;1727223017;25/09/24;00:10:17;1.009;0.035;0.148;0.040317103266716;-0.009773843921720982;0.0073303827084600925
01:00:0A:00:00:00:00;1727223018;25/09/24;00:10:18;1.009;0.037;0.148;0.039095375686883926;-0.009773843921720982;0.0073303827084600925
01:00:0A:00:00:00:00;1727223019;25/09/24;00:10:19;1.008;0.037;0.148;0.039095375686883926;-0.00855211354792118;0.0073303827084600925
01:00:0A:00:00:00:00;1727223020;25/09/24;00:10:20;1.008;0.036;0.148;0.03787364438176155;-0.00855211354792118;0.0073303827084600925
01:00:0A:00:00:00:00;1727223021;25/09/24;00:10:21;1.008;0.037;0.148;0.039095375686883926;-0.009773843921720982;0.0073303827084600925
01:00:0A:00:00:00:00;1727223022;25/09/24;00:10:22;1.008;0.037;0.148;0.03787364438176155;-0.009773843921720982;0.0073303827084600925
01:00:0A:00:00:00:00;1727223023;25/09/24;00:10:23;1.008;0.036;0.148;0.03787364438176155;-0.009773843921720982;0.0073303827084600925
01:00:0A:00:00:00:00;1727223024;25/09/24;00:10:24;1.008;0.038;0.149;0.036651913076639175;-0.009773843921720982;0.0073303827084600925
01:00:0A:00:00:00:00;1727223025;25/09/24;00:10:25;1.008;0.036;0.148;0.036651913076639175;-0.009773843921720982;0.0073303827084600925
01:00:0A:00:00:00:00;1727223026;25/09/24;00:10:26;1.009;0.037;0.148;0.036651913076639175;-0.009773843921720982;0.006108652334660292
01:00:0A:00:00:00:00;1727223027;25/09/24;00:10:27;1.008;0.037;0.148;0.0354301817715168;-0.009773843921720982;0.0073303827084600925
01:00:0A:00:00:00:00;1727223028;25/09/24;00:10:28;1.007;0.037;0.148;0.0354301817715168;-0.009773843921720982;0.0073303827084600925
01:00:0A:00:00:00:00;1727223029;25/09/24;00:10:29;1.008;0.037;0.148;0.0354301817715168;-0.009773843921720982;0.006108652334660292
01:00:0A:00:00:00:00;1727223030;25/09/24;00:10:30;1.008;0.036;0.148;0.03420845419168472;-0.009773843921720982;0.006108652334660292
01:00:0A:00:00:00:00;1727223031;25/09/24;00:10:31;1.008;0.037;0.148;0.03420845419168472;-0.009773843921720982;0.006108652334660292
01:00:0A:00:00:00:00;1727223032;25/09/24;00:10:32;1.008;0.036;0.148;0.03298672288656235;-0.009773843921720982;0.006108652334660292
01:00:0A:00:00:00:00;1727223033;25/09/24;00:10:33;1.008;0.037;0.148;0.03176499158143997;-0.009773843921720982;0.006108652334660292
01:00:0A:00:00:00:00;1727223034;25/09/24;00:10:34;1.008;0.037;0.149;0.03176499158143997;-0.009773843921720982;0.006108652334660292
01:00:0A:00:00:00:00;1727223035;25/09/24;00:10:35;1.009;0.037;0.148;0.030543262138962746;-0.009773843921720982;0.004886921960860491
01:00:0A:00:00:00:00;1727223036;25/09/24;00:10:36;1.008;0.037;0.148;0.030543262138962746;-0.009773843921720982;0.004886921960860491
01:00:0A:00:00:00:00;1727223037;25/09/24;00:10:37;1.008;0.037;0.148;0.02932153083384037;-0.009773843921720982;0.006108652334660292
01:00:0A:00:00:00:00;1727223038;25/09/24;00:10:38;1.009;0.036;0.148;0.02932153083384037;-0.009773843921720982;0.006108652334660292
01:00:0A:00:00:00:00;1727223039;25/09/24;00:10:39;1.012;0.037;0.149;0.028099799528717995;-0.012217304669320583;0.00855211354792118
01:00:0A:00:00:00:00;1727223040;25/09/24;00:10:40;1.012;0.039;0.149;0.028099799528717995;-0.0024434609804302454;0.0036651913542300463
01:00:0A:00:00:00:00;1727223041;25/09/24;00:10:41;1.001;0.039;0.146;0.02932153083384037;-0.0024434609804302454;0.0
01:00:0A:00:00:00:00;1727223042;25/09/24;00:10:42;0.996;0.037;0.145;0.030543262138962746;-0.015882495790719986;-0.0036651913542300463
01:00:0A:00:00:00:00;1727223043;25/09/24;00:10:43;1.0;0.034;0.146;0.030543262138962746;-0.03420845419168472;0.0036651913542300463
01:00:0A:00:00:00:00;1727223044;25/09/24;00:10:44;1.016;0.032;0.152;0.02932153083384037;-0.0354301817715168;0.013439035043120384
01:00:0A:00:00:00:00;1727223045;25/09/24;00:10:45;1.02;0.033;0.148;0.02687807008624077;-0.02076941914856434;0.015882495790719986
01:00:0A:00:00:00:00;1727223046;25/09/24;00:10:46;1.018;0.034;0.148;0.025656338781118393;0.014660765416920185;0.014660765416920185
01:00:0A:00:00:00:00;1727223047;25/09/24;00:10:47;1.004;0.038;0.154;0.03420845419168472;0.024434609338641167;0.010995574295520782
01:00:0A:00:00:00:00;1727223048;25/09/24;00:10:48;0.984;0.036;0.147;0.051312677562236786;-0.02687807008624077;0.0036651913542300463
01:00:0A:00:00:00:00;1727223049;25/09/24;00:10:49;0.987;0.031;0.146;0.06352998316287994;-0.05009094998240471;0.010995574295520782
01:00:0A:00:00:00:00;1727223050;25/09/24;00:10:50;1.022;0.038;0.173;0.07696902006864548;-0.03787364438176155;-0.021991148591041565
01:00:0A:00:00:00:00;1727223051;25/09/24;00:10:51;1.045;0.072;0.137;0.019547687843441963;-0.05497787147760391;-0.009773843921720982
01:00:0A:00:00:00:00;1727223052;25/09/24;00:10:52;1.038;0.0;0.038;-0.04398229718208313;-0.06108652427792549;0.0757472887635231
01:00:0A:00:00:00:00;1727223053;25/09/24;00:10:53;0.975;-0.02;0.086;-0.012217304669320583;0.12950342893600464;0.03298672288656235
01:00:0A:00:00:00:00;1727223054;25/09/24;00:10:54;0.945;0.039;0.137;0.05375614017248154;-0.0073303827084600925;-0.07330382615327835
01:00:0A:00:00:00:00;1727223055;25/09/24;00:10:55;0.988;0.06;0.107;0.0024434609804302454;-0.20525071024894714;0.1563815027475357
01:00:0A:00:00:00:00;1727223056;25/09/24;00:10:56;1.043;-0.057;0.032;0.07452555745840073;0.05253440886735916;-0.05009094998240471
01:00:0A:00:00:00:00;1727223057;25/09/24;00:10:57;1.075;0.058;0.23;0.1160643920302391;0.07819075137376785;-0.0659734457731247
01:00:0A:00:00:00:00;1727223058;25/09/24;00:10:58;1.069;0.154;0.165;0.0012217304902151227;0.015882495790719986;-0.11484266817569733
01:00:0A:00:00:00:00;1727223059;25/09/24;00:10:59;0.998;0.058;0.123;0.19914205372333527;0.2785545289516449;-0.12461651116609573
01:00:0A:00:00:00:00;1727223060;25/09/24;00:11:00;0.918;0.063;0.04;0.006108652334660292;-0.23457224667072296;0.03420845419168472
01:00:0A:00:00:00:00;1727223061;25/09/24;00:11:01;0.932;0.004;0.076;-0.23335053026676178;0.24678954482078552;0.11362093687057495
01:00:0A:00:00:00:00;1727223062;25/09/24;00:11:02;1.002;0.08;0.187;-0.2382374405860901;-0.5119050741195679;-0.0659734457731247
01:00:0A:00:00:00:00;1727223063;25/09/24;00:11:03;1.051;0.057;-0.145;-0.5900958180427551;0.3738495111465454;0.251676470041275
01:00:0A:00:00:00:00;1727223064;25/09/24;00:11:04;1.027;-0.055;0.45;-0.5546656250953674;0.18814648687839508;-0.39095374941825867
01:00:0A:00:00:00:00;1727223065;25/09/24;00:11:05;1.036;0.316;-0.009;-0.7916813492774963;-0.34697145223617554;-0.19425514340400696
01:00:0A:00:00:00:00;1727223066;25/09/24;00:11:06;1.005;-0.025;0.0;-1.1105530261993408;-0.030543262138962746;0.25045475363731384
01:00:0A:00:00:00:00;1727223067;25/09/24;00:11:07;0.952;0.079;0.032;-1.1410963535308838;-0.028099799528717995;-0.18570303916931152
01:00:0A:00:00:00:00;1727223068;25/09/24;00:11:08;0.979;0.098;0.102;-1.1349875926971436;-0.08307767659425735;-0.12950342893600464
01:00:0A:00:00:00:00;1727223069;25/09/24;00:11:09;1.044;0.078;0.212;-1.1472049951553345;-0.2590068578720093;-0.02932153083384037
01:00:0A:00:00:00:00;1727223070;25/09/24;00:11:10;1.084;0.116;-0.049;-1.1765265464782715;-0.012217304669320583;0.15393804013729095
01:00:0A:00:00:00:00;1727223071;25/09/24;00:11:11;1.016;-0.301;-0.157;-1.252273678779602;-0.14782939851284027;0.5314527750015259
01:00:0A:00:00:00:00;1727223072;25/09/24;00:11:12;1.013;-0.119;-0.043;-1.1288789510726929;0.22479839622974396;0.3604104816913605
01:00:0A:00:00:00:00;1727223073;25/09/24;00:11:13;0.918;-0.141;0.072;-1.0335839986801147;0.436157763004303;0.05619959905743599
01:00:0A:00:00:00:00;1727223074;25/09/24;00:11:14;0.938;0.037;0.143;-0.949284553527832;-0.07330382615327835;-0.39095374941825867
01:00:0A:00:00:00:00;1727223075;25/09/24;00:11:15;1.022;0.031;0.087;-1.1924089193344116;-0.08796459436416626;0.39584067463874817
01:00:0A:00:00:00:00;1727223076;25/09/24;00:11:16;1.048;-0.207;-0.052;-1.0702358484268188;0.4349360466003418;-0.445931613445282
01:00:0A:00:00:00:00;1727223077;25/09/24;00:11:17;0.982;0.196;0.479;-1.282817006111145;-0.20647244155406952;-0.5644394755363464
01:00:0A:00:00:00:00;1727223078;25/09/24;00:11:18;0.977;0.353;0.0;-1.53693687915802;-0.970054030418396;-0.2565633952617645
01:00:0A:00:00:00:00;1727223079;25/09/24;00:11:19;0.874;0.44;-0.076;-1.9975292682647705;-1.3720033168792725;0.014660765416920185
01:00:0A:00:00:00:00;1727223080;25/09/24;00:11:20;0.866;0.466;0.08;-2.27852725982666;-0.8063421249389648;-0.05619959905743599
01:00:0A:00:00:00:00;1727223081;25/09/24;00:11:21;0.853;0.364;0.43;-2.122145652770996;-0.6487389206886292;-0.7037167549133301
01:00:0A:00:00:00:00;1727223082;25/09/24;00:11:22;0.894;0.014;0.576;-1.695761799812317;-0.5375614166259766;-0.8100073337554932
01:00:0A:00:00:00:00;1727223083;25/09/24;00:11:23;0.907;0.134;0.587;-1.4795156717300415;-0.11972958594560623;-0.45814892649650574
01:00:0A:00:00:00:00;1727223084;25/09/24;00:11:24;0.797;-0.093;0.753;-0.9187413454055786;-0.1258382350206375;-0.8784241676330566
01:00:0A:00:00:00:00;1727223085;25/09/24;00:11:25;0.814;0.407;0.479;-0.8258897662162781;-0.7941248416900635;-0.8319984674453735
01:00:0A:00:00:00:00;1727223086;25/09/24;00:11:26;0.725;0.479;0.408;-1.2082914113998413;-1.253495454788208;-0.7012733221054077
01:00:0A:00:00:00:00;1727223087;25/09/24;00:11:27;0.719;0.538;0.313;-1.557706356048584;-1.3512338399887085;-0.9321803450584412
01:00:0A:00:00:00:00;1727223088;25/09/24;00:11:28;0.786;0.318;0.606;-1.6407840251922607;-0.6096435189247131;-0.8894197940826416
01:00:0A:00:00:00:00;1727223089;25/09/24;00:11:29;0.911;0.265;0.518;-1.379333734512329;-0.656069278717041;-1.0067058801651
01:00:0A:00:00:00:00;1727223090;25/09/24;00:11:30;0.737;0.528;0.643;-1.604132056236267;-0.4691444933414459;-0.6047565937042236
01:00:0A:00:00:00:00;1727223091;25/09/24;00:11:31;0.88;0.081;0.635;-1.29381263256073;-0.76846843957901;-0.720820963382721
01:00:0A:00:00:00:00;1727223092;25/09/24;00:11:32;0.848;0.475;0.302;-1.4037683010101318;-0.598647952079773;-0.4752531349658966
01:00:0A:00:00:00:00;1727223093;25/09/24;00:11:33;0.846;0.125;0.507;-1.3720033168792725;-0.7134906053543091;-0.3298672139644623
01:00:0A:00:00:00:00;1727223094;25/09/24;00:11:34;0.936;0.164;0.231;-1.0775662660598755;-0.8539896011352539;-0.5913175940513611
01:00:0A:00:00:00:00;1727223095;25/09/24;00:11:35;0.879;0.331;0.352;-1.222952127456665;-0.5510004162788391;0.0036651913542300463
01:00:0A:00:00:00:00;1727223096;25/09/24;00:11:36;0.927;0.13;0.458;-0.9615018963813782;-0.6157521605491638;-0.4153883755207062
01:00:0A:00:00:00:00;1727223097;25/09/24;00:11:37;0.882;0.423;0.347;-1.0030406713485718;-0.513126790523529;-0.513126790523529
01:00:0A:00:00:00:00;1727223098;25/09/24;00:11:38;0.778;0.343;0.57;-1.145983099937439;-0.5925393104553223;-0.646295428276062
01:00:0A:00:00:00:00;1727223099;25/09/24;00:11:39;0.829;0.569;0.007;-1.3267992734909058;-2.090380907058716;-0.5864306092262268
01:00:0A:00:00:00:00;1727223100;25/09/24;00:11:40;0.528;0.551;0.716;-1.3548990488052368;-0.4483751058578491;-1.193630576133728
01:00:0A:00:00:00:00;1727223101;25/09/24;00:11:41;0.684;0.552;0.469;-1.2779300212860107;-1.3952162265777588;-0.5461135506629944
01:00:0A:00:00:00:00;1727223102;25/09/24;00:11:42;0.899;0.356;0.254;-1.89979088306427;-1.1582003831863403;-0.11362093687057495
01:00:0A:00:00:00:00;1727223103;25/09/24;00:11:43;1.018;0.08;0.086;-2.2259929180145264;-0.29077184200286865;0.01710422709584236
01:00:0A:00:00:00:00;1727223104;25/09/24;00:11:44;0.995;0.142;0.197;-2.239431858062744;-0.40194931626319885;-0.6010913848876953
01:00:0A:00:00:00:00;1727223105;25/09/24;00:11:45;0.967;0.196;0.134;-2.383596181869507;-0.616973876953125;-0.4080579876899719
01:00:0A:00:00:00:00;1727223106;25/09/24;00:11:46;0.98;-0.149;-0.138;-2.172236919403076;-0.20402899384498596;0.4544837474822998
01:00:0A:00:00:00:00;1727223107;25/09/24;00:11:47;0.997;0.055;0.114;-1.9217820167541504;-0.28099802136421204;-0.29688048362731934
01:00:0A:00:00:00:00;1727223108;25/09/24;00:11:48;0.943;0.324;0.106;-2.1392500400543213;-0.6963863372802734;0.18814648687839508
01:00:0A:00:00:00:00;1727223109;25/09/24;00:11:49;1.016;0.187;0.049;-2.252871036529541;-0.7159340977668762;0.08674286305904388
01:00:0A:00:00:00:00;1727223110;25/09/24;00:11:50;0.943;0.399;0.229;-2.4544565677642822;-0.5913175940513611;-0.14294245839118958
01:00:0A:00:00:00:00;1727223111;25/09/24;00:11:51;1.029;0.156;-0.091;-1.7861698865890503;-0.05375614017248154;-0.5082398653030396
01:00:0A:00:00:00:00;1727223112;25/09/24;00:11:52;0.945;-0.124;0.423;-1.3096951246261597;0.2076941877603531;-0.21991148591041565
01:00:0A:00:00:00:00;1727223113;25/09/24;00:11:53;1.013;-0.006;0.208;-0.8894197940826416;-0.5009095072746277;-0.1820378452539444
01:00:0A:00:00:00:00;1727223114;25/09/24;00:11:54;0.99;0.257;-0.105;-1.1691960096359253;-0.20891590416431427;0.13316862285137177
01:00:0A:00:00:00:00;1727223115;25/09/24;00:11:55;1.011;0.136;0.251;-2.9712486267089844;-0.27122414112091064;-0.5693264007568359
01:00:0A:00:00:00:00;1727223116;25/09/24;00:11:56;0.931;0.154;0.468;-2.331061840057373;-0.3237585723400116;-0.8271114826202393
01:00:0A:00:00:00:00;1727223117;25/09/24;00:11:57;0.865;0.243;0.562;-1.93766450881958;-0.6010913848876953;-1.3243558406829834
01:00:0A:00:00:00:00;1727223118;25/09/24;00:11:58;0.834;0.578;-0.175;-1.0323623418807983;-2.5754077434539795;0.06841690838336945
01:00:0A:00:00:00:00;1727223119;25/09/24;00:11:59;0.51;0.912;0.078;-2.3909265995025635;-2.101376533508301;0.38240164518356323
01:00:0A:00:00:00:00;1727223120;25/09/24;00:12:00;0.891;0.396;-0.215;-2.863736391067505;-1.6762142181396484;0.7819074988365173
01:00:0A:00:00:00:00;1727223121;25/09/24;00:12:01;0.805;0.45;0.268;-2.6145031452178955;0.021991148591041565;0.29077184200286865
01:00:0A:00:00:00:00;1727223122;25/09/24;00:12:02;0.971;-0.005;0.317;-1.6297883987426758;-0.38117989897727966;-0.5155702233314514
01:00:0A:00:00:00:00;1727223123;25/09/24;00:12:03;0.937;0.217;0.257;-1.929112434387207;-0.6255260109901428;-0.445931613445282
01:00:0A:00:00:00:00;1727223124;25/09/24;00:12:04;0.904;0.334;0.206;-1.9828685522079468;-0.9004153609275818;-0.616973876953125
01:00:0A:00:00:00:00;1727223125;25/09/24;00:12:05;0.968;0.122;0.195;-2.065946340560913;-0.911410927772522;0.1576032191514969
01:00:0A:00:00:00:00;1727223126;25/09/24;00:12:06;0.975;0.173;-0.004;-2.10504150390625;-0.07330382615327835;-0.13439035415649414
01:00:0A:00:00:00:00;1727223127;25/09/24;00:12:07;0.985;-0.04;0.274;-1.9046778678894043;-0.2577851116657257;-0.3848450779914856
01:00:0A:00:00:00:00;1727223128;25/09/24;00:12:08;0.993;0.072;0.309;-1.6212363243103027;-0.16004669666290283;-0.5424482822418213
01:00:0A:00:00:00:00;1727223129;25/09/24;00:12:09;0.996;0.305;-0.146;-1.3487904071807861;-0.29688048362731934;0.08796459436416626
01:00:0A:00:00:00:00;1727223130;25/09/24;00:12:10;0.935;0.267;-0.371;-1.9633208513259888;-0.5522221922874451;0.47280970215797424
01:00:0A:00:00:00:00;1727223131;25/09/24;00:12:11;1.022;-0.021;-0.17;-2.305405378341675;-0.09651670604944229;0.39584067463874817
01:00:0A:00:00:00:00;1727223132;25/09/24;00:12:12;1.027;0.056;0.102;-0.929736852645874;-0.13805554807186127;-0.2382374405860901
01:00:0A:00:00:00:00;1727223133;25/09/24;00:12:13;1.036;0.08;0.017;-0.9053022265434265;-0.24190263450145721;-0.06475171446800232
01:00:0A:00:00:00:00;1727223134;25/09/24;00:12:14;1.048;0.113;-0.08;-1.8545868396759033;-0.2883284091949463;0.17837265133857727
01:00:0A:00:00:00:00;1727223135;25/09/24;00:12:15;1.013;0.204;-0.069;-3.4831535816192627;-0.03420845419168472;0.15027284622192383
01:00:0A:00:00:00:00;1727223136;25/09/24;00:12:16;1.015;-0.131;-0.15;-2.8857274055480957;-0.2626720666885376;0.0708603635430336
01:00:0A:00:00:00:00;1727223137;25/09/24;00:12:17;0.968;0.023;0.318;-2.515542984008789;0.08185594528913498;-0.040317103266716
01:00:0A:00:00:00:00;1727223138;25/09/24;00:12:18;0.957;-0.286;0.062;-1.7348573207855225;0.26022857427597046;-0.2431243658065796
01:00:0A:00:00:00:00;1727223139;25/09/24;00:12:19;0.983;-0.231;0.073;-1.1997392177581787;0.46181410551071167;-0.13927726447582245
01:00:0A:00:00:00:00;1727223140;25/09/24;00:12:20;0.966;-0.32;0.093;-0.6866125464439392;0.10995574295520782;-0.036651913076639175
01:00:0A:00:00:00:00;1727223141;25/09/24;00:12:21;0.958;-0.359;0.184;-0.1722639948129654;0.41783180832862854;-0.19792033731937408
01:00:0A:00:00:00:00;1727223142;25/09/24;00:12:22;0.843;0.0;0.595;0.00855211354792118;0.18570303916931152;-0.5632177591323853
01:00:0A:00:00:00:00;1727223143;25/09/24;00:12:23;0.789;0.364;0.487;-0.13316862285137177;-0.7012733221054077;-0.6707300543785095
01:00:0A:00:00:00:00;1727223144;25/09/24;00:12:24;0.847;0.517;-0.028;-0.9150761365890503;-0.9810495376586914;-0.10995574295520782
01:00:0A:00:00:00:00;1727223145;25/09/24;00:12:25;0.833;0.563;0.077;-1.5442672967910767;-1.2278391122817993;0.006108652334660292
01:00:0A:00:00:00:00;1727223146;25/09/24;00:12:26;0.625;0.799;0.121;-1.9682077169418335;-1.6481143236160278;-0.35063666105270386
01:00:0A:00:00:00:00;1727223147;25/09/24;00:12:27;0.617;0.46;0.65;-1.8081611394882202;-1.4037683010101318;-1.0042624473571777
01:00:0A:00:00:00:00;1727223148;25/09/24;00:12:28;0.72;0.709;0.505;0.28099802136421204;0.06719517707824707;-0.17104226350784302
01:00:0A:00:00:00:00;1727223149;25/09/24;00:12:29;0.633;0.648;0.319;-0.8319984674453735;-0.7086036801338196;0.006108652334660292
01:00:0A:00:00:00:00;1727223150;25/09/24;00:12:30;0.612;0.65;0.403;-1.9010125398635864;-1.3829989433288574;-0.7806857824325562
01:00:0A:00:00:00:00;1727223151;25/09/24;00:12:31;0.913;0.34;0.314;-2.3518309593200684;-1.281595230102539;-0.7171557545661926
01:00:0A:00:00:00:00;1727223152;25/09/24;00:12:32;0.857;0.485;0.317;-2.811201810836792;-0.8295549750328064;-0.5717698335647583
01:00:0A:00:00:00:00;1727223153;25/09/24;00:12:33;1.037;0.012;0.137;-2.5925118923187256;-0.7000515460968018;-0.27122414112091064
01:00:0A:00:00:00:00;1727223154;25/09/24;00:12:34;1.009;-0.036;0.257;-0.3298672139644623;0.4508185386657715;-0.6499606370925903
01:00:0A:00:00:00:00;1727223155;25/09/24;00:12:35;0.932;0.318;0.328;-1.0250318050384521;-0.35552355647087097;0.07208210229873657
01:00:0A:00:00:00:00;1727223156;25/09/24;00:12:36;0.991;-0.014;-0.013;-1.2205088138580322;-0.33719760179519653;0.31154125928878784
01:00:0A:00:00:00:00;1727223157;25/09/24;00:12:37;0.961;-0.182;-0.026;-1.3854423761367798;0.41661006212234497;-0.14905111491680145
01:00:0A:00:00:00:00;1727223158;25/09/24;00:12:38;0.966;-0.221;0.117;-1.3903292417526245;0.46547931432724;0.2919935882091522
01:00:0A:00:00:00:00;1727223159;25/09/24;00:12:39;0.868;-0.443;0.335;-0.646295428276062;0.6524040699005127;-0.9272934198379517
01:00:0A:00:00:00:00;1727223160;25/09/24;00:12:40;0.797;0.267;0.545;-0.5180137157440186;-0.5216788649559021;-0.8515461683273315
01:00:0A:00:00:00:00;1727223161;25/09/24;00:12:41;0.945;0.232;0.314;-0.8527678847312927;-0.7000515460968018;-0.0036651913542300463
01:00:0A:00:00:00:00;1727223162;25/09/24;00:12:42;0.99;0.122;0.024;-1.0213667154312134;-0.16371189057826996;-0.20036379992961884
01:00:0A:00:00:00:00;1727223163;25/09/24;00:12:43;0.898;0.165;0.337;-1.1801916360855103;-0.010995574295520782;-0.14049901068210602
01:00:0A:00:00:00:00;1727223164;25/09/24;00:12:44;0.915;0.043;0.278;-0.7819074988365173;-0.626747727394104;-0.45814892649650574
01:00:0A:00:00:00:00;1727223165;25/09/24;00:12:45;0.961;0.216;0.113;-0.9065240025520325;-0.4288274049758911;0.01710422709584236
01:00:0A:00:00:00:00;1727223166;25/09/24;00:12:46;1.039;0.161;0.072;-1.0946705341339111;-0.3237585723400116;0.2370157092809677
01:00:0A:00:00:00:00;1727223167;25/09/24;00:12:47;1.051;0.109;-0.142;-1.1337658166885376;0.06841690838336945;0.010995574295520782
01:00:0A:00:00:00:00;1727223168;25/09/24;00:12:48;1.038;-0.125;0.162;-1.017701506614685;0.11239919811487198;0.16371189057826996
01:00:0A:00:00:00:00;1727223169;25/09/24;00:12:49;1.027;-0.035;0.031;-0.6243042349815369;-0.03298672288656235;-0.24068090319633484
01:00:0A:00:00:00:00;1727223170;25/09/24;00:12:50;0.971;0.083;0.104;-0.6401867866516113;0.13439035415649414;-0.1576032191514969
01:00:0A:00:00:00:00;1727223171;25/09/24;00:12:51;0.964;-0.028;0.148;-0.5827654600143433;-0.2028072476387024;0.10506881773471832
01:00:0A:00:00:00:00;1727223172;25/09/24;00:12:52;0.999;-0.093;0.043;-0.34208452701568604;-0.0659734457731247;-0.051312677562236786
01:00:0A:00:00:00:00;1727223173;25/09/24;00:12:53;1.023;-0.056;0.056;-0.19303341209888458;0.09651670604944229;-0.039095375686883926
01:00:0A:00:00:00:00;1727223174;25/09/24;00:12:54;1.024;0.001;0.14;-0.14782939851284027;0.09040805697441101;0.006108652334660292
01:00:0A:00:00:00:00;1727223175;25/09/24;00:12:55;1.005;0.024;0.162;-0.10873401165008545;-0.02687807008624077;-0.010995574295520782
01:00:0A:00:00:00:00;1727223176;25/09/24;00:12:56;1.004;0.013;0.12;-0.0708603635430336;-0.0659734457731247;-0.014660765416920185
01:00:0A:00:00:00:00;1727223177;25/09/24;00:12:57;1.007;0.0;0.118;-0.05009094998240471;0.012217304669320583;0.0
01:00:0A:00:00:00:00;1727223178;25/09/24;00:12:58;0.999;-0.001;0.152;-0.010995574295520782;0.06475171446800232;0.0036651913542300463
01:00:0A:00:00:00:00;1727223179;25/09/24;00:12:59;0.995;0.057;0.159;0.0;0.0073303827084600925;-0.025656338781118393
01:00:0A:00:00:00:00;1727223180;25/09/24;00:13:00;1.0;0.085;0.132;-0.04886921867728233;-0.05619959905743599;0.036651913076639175
01:00:0A:00:00:00:00;1727223181;25/09/24;00:13:01;1.015;0.055;0.121;-0.05619959905743599;-0.06352998316287994;-0.025656338781118393
01:00:0A:00:00:00:00;1727223182;25/09/24;00:13:02;1.014;0.039;0.142;-0.042760565876960754;-0.04398229718208313;-0.09896016865968704
01:00:0A:00:00:00:00;1727223183;25/09/24;00:13:03;1.006;0.047;0.184;-0.08674286305904388;-0.04153883829712868;-0.05864306166768074
01:00:0A:00:00:00:00;1727223184;25/09/24;00:13:04;1.021;0.06;0.204;-0.16004669666290283;-0.10018189996480942;0.036651913076639175
01:00:0A:00:00:00:00;1727223185;25/09/24;00:13:05;1.049;0.04;0.197;0.4996877610683441;-0.07452555745840073;-0.17348572611808777
01:00:0A:00:00:00:00;1727223186;25/09/24;00:13:06;1.079;0.036;0.178;1.4929546117782593;0.2125810980796814;0.22968533635139465
01:00:0A:00:00:00:00;1727223187;25/09/24;00:13:07;1.031;0.1;0.321;1.5638149976730347;0.35063666105270386;0.07696902006864548
01:00:0A:00:00:00:00;1727223188;25/09/24;00:13:08;0.992;-0.083;0.077;1.321912407875061;0.018325956538319588;0.4703662395477295
01:00:0A:00:00:00:00;1727223189;25/09/24;00:13:09;0.946;0.065;0.093;1.2779300212860107;-0.03420845419168472;-0.07696902006864548
01:00:0A:00:00:00:00;1727223190;25/09/24;00:13:10;0.93;0.065;0.005;0.891863226890564;0.16004669666290283;0.21502456068992615
01:00:0A:00:00:00:00;1727223191;25/09/24;00:13:11;0.964;0.041;0.046;0.7745770812034607;-0.006108652334660292;0.02932153083384037
01:00:0A:00:00:00:00;1727223192;25/09/24;00:13:12;1.006;0.049;0.057;0.6304128766059875;-0.06963863223791122;0.11850785464048386
01:00:0A:00:00:00:00;1727223193;25/09/24;00:13:13;1.018;0.009;0.125;0.5729915499687195;0.01710422709584236;0.09896016865968704
01:00:0A:00:00:00:00;1727223194;25/09/24;00:13:14;1.001;0.051;0.198;0.607200026512146;-0.0354301817715168;0.028099799528717995
01:00:0A:00:00:00:00;1727223195;25/09/24;00:13:15;1.014;0.103;0.187;0.5351179242134094;-0.03787364438176155;0.045204028487205505
01:00:0A:00:00:00:00;1727223196;25/09/24;00:13:16;1.026;0.068;0.159;0.4349360466003418;-0.010995574295520782;0.05375614017248154
01:00:0A:00:00:00:00;1727223197;25/09/24;00:13:17;1.033;0.057;0.186;0.4043927788734436;0.040317103266716;-0.021991148591041565
01:00:0A:00:00:00:00;1727223198;25/09/24;00:13:18;1.031;0.08;0.153;0.34574973583221436;0.018325956538319588;-0.012217304669320583
01:00:0A:00:00:00:00;1727223199;25/09/24;00:13:19;1.028;0.052;0.127;0.2626720666885376;0.03298672288656235;0.012217304669320583
01:00:0A:00:00:00:00;1727223200;25/09/24;00:13:20;1.018;0.011;0.14;0.2174680233001709;0.05497787147760391;0.05497787147760391
01:00:0A:00:00:00:00;1727223201;25/09/24;00:13:21;0.993;0.002;0.155;0.2382374405860901;0.06230825558304787;0.06963863223791122
01:00:0A:00:00:00:00;1727223202;25/09/24;00:13:22;0.987;0.046;0.136;0.2626720666885376;-0.0012217304902151227;0.03787364438176155
01:00:0A:00:00:00:00;1727223203;25/09/24;00:13:23;1.001;0.063;0.111;0.2174680233001709;-0.009773843921720982;0.05619959905743599
01:00:0A:00:00:00:00;1727223204;25/09/24;00:13:24;1.034;0.047;0.114;0.18448130786418915;-0.015882495790719986;0.07452555745840073
01:00:0A:00:00:00:00;1727223205;25/09/24;00:13:25;1.045;0.038;0.141;0.19058994948863983;-0.010995574295520782;0.025656338781118393
01:00:0A:00:00:00:00;1727223206;25/09/24;00:13:26;1.034;0.077;0.151;0.17104226350784302;0.02932153083384037;-0.028099799528717995
01:00:0A:00:00:00:00;1727223207;25/09/24;00:13:27;1.017;0.073;0.139;0.12828169763088226;0.04764748737215996;-0.004886921960860491
01:00:0A:00:00:00:00;1727223208;25/09/24;00:13:28;0.983;0.024;0.133;0.13927726447582245;0.02687807008624077;0.006108652334660292
01:00:0A:00:00:00:00;1727223209;25/09/24;00:13:29;0.975;0.006;0.133;0.17959438264369965;-0.0073303827084600925;-0.013439035043120384
01:00:0A:00:00:00:00;1727223210;25/09/24;00:13:30;0.975;0.01;0.146;0.19547687470912933;-0.040317103266716;0.02076941914856434
01:00:0A:00:00:00:00;1727223211;25/09/24;00:13:31;1.002;0.029;0.165;0.17837265133857727;-0.042760565876960754;0.06719517707824707
01:00:0A:00:00:00:00;1727223212;25/09/24;00:13:32;1.018;0.041;0.173;0.17104226350784302;-0.05009094998240471;0.05864306166768074
01:00:0A:00:00:00:00;1727223213;25/09/24;00:13:33;1.038;0.055;0.167;0.15882496535778046;0.0024434609804302454;0.018325956538319588
01:00:0A:00:00:00:00;1727223214;25/09/24;00:13:34;1.036;0.065;0.154;0.11972958594560623;0.0354301817715168;-0.0036651913542300463
01:00:0A:00:00:00:00;1727223215;25/09/24;00:13:35;1.012;0.057;0.14;0.0659734457731247;0.06475171446800232;0.0
01:00:0A:00:00:00:00;1727223216;25/09/24;00:13:36;0.997;0.04;0.131;0.02076941914856434;0.036651913076639175;0.021991148591041565
01:00:0A:00:00:00:00;1727223217;25/09/24;00:13:37;0.991;0.037;0.123;0.014660765416920185;-0.004886921960860491;0.030543262138962746
01:00:0A:00:00:00:00;1727223218;25/09/24;00:13:38;0.997;0.044;0.144;0.018325956538319588;-0.02321287989616394;0.01710422709584236
01:00:0A:00:00:00:00;1727223219;25/09/24;00:13:39;1.005;0.06;0.152;0.0073303827084600925;-0.028099799528717995;0.006108652334660292
01:00:0A:00:00:00:00;1727223220;25/09/24;00:13:40;1.008;0.044;0.142;0.0;-0.006108652334660292;-0.015882495790719986
01:00:0A:00:00:00:00;1727223221;25/09/24;00:13:41;1.008;0.039;0.146;0.0012217304902151227;0.0012217304902151227;-0.02321287989616394
01:00:0A:00:00:00:00;1727223222;25/09/24;00:13:42;1.012;0.03;0.138;0.0012217304902151227;-0.0024434609804302454;-0.012217304669320583
01:00:0A:00:00:00:00;1727223223;25/09/24;00:13:43;1.01;0.028;0.136;-0.010995574295520782;-0.014660765416920185;0.00855211354792118
01:00:0A:00:00:00:00;1727223224;25/09/24;00:13:44;0.991;0.03;0.14;-0.014660765416920185;-0.039095375686883926;0.024434609338641167
01:00:0A:00:00:00:00;1727223225;25/09/24;00:13:45;0.977;0.025;0.143;-0.0012217304902151227;-0.06230825558304787;0.021991148591041565
01:00:0A:00:00:00:00;1727223226;25/09/24;00:13:46;0.986;0.032;0.151;0.019547687843441963;-0.07696902006864548;0.00855211354792118
01:00:0A:00:00:00:00;1727223227;25/09/24;00:13:47;1.021;0.039;0.162;0.01710422709584236;-0.03420845419168472;0.015882495790719986
01:00:0A:00:00:00:00;1727223228;25/09/24;00:13:48;1.038;0.044;0.163;-0.0012217304902151227;-0.009773843921720982;0.03176499158143997
01:00:0A:00:00:00:00;1727223229;25/09/24;00:13:49;1.048;0.039;0.153;-0.0024434609804302454;0.04398229718208313;0.019547687843441963
01:00:0A:00:00:00:00;1727223230;25/09/24;00:13:50;1.038;0.04;0.143;0.00855211354792118;0.04642575979232788;-0.006108652334660292
01:00:0A:00:00:00:00;1727223231;25/09/24;00:13:51;1.014;0.053;0.137;0.006108652334660292;0.042760565876960754;-0.014660765416920185
01:00:0A:00:00:00:00;1727223232;25/09/24;00:13:52;1.008;0.052;0.144;-0.006108652334660292;0.021991148591041565;-0.0073303827084600925
01:00:0A:00:00:00:00;1727223233;25/09/24;00:13:53;0.996;0.045;0.146;-0.0024434609804302454;-0.006108652334660292;-0.021991148591041565
01:00:0A:00:00:00:00;1727223234;25/09/24;00:13:54;1.002;0.036;0.145;0.00855211354792118;-0.012217304669320583;-0.030543262138962746
01:00:0A:00:00:00:00;1727223235;25/09/24;00:13:55;0.997;0.019;0.142;0.014660765416920185;-0.0073303827084600925;-0.01710422709584236
01:00:0A:00:00:00:00;1727223236;25/09/24;00:13:56;0.99;0.015;0.145;0.018325956538319588;-0.00855211354792118;0.018325956538319588
01:00:0A:00:00:00:00;1727223237;25/09/24;00:13:57;0.989;0.019;0.14;0.02321287989616394;-0.010995574295520782;0.03787364438176155
01:00:0A:00:00:00:00;1727223238;25/09/24;00:13:58;0.989;0.036;0.136;0.02932153083384037;-0.025656338781118393;0.0354301817715168
01:00:0A:00:00:00:00;1727223239;25/09/24;00:13:59;0.989;0.043;0.135;0.03176499158143997;-0.042760565876960754;0.024434609338641167
01:00:0A:00:00:00:00;1727223240;25/09/24;00:14:00;0.999;0.056;0.138;0.03176499158143997;-0.07208210229873657;-0.0012217304902151227
01:00:0A:00:00:00:00;1727223241;25/09/24;00:14:01;1.008;0.058;0.142;0.009773843921720982;-0.0708603635430336;-0.004886921960860491
01:00:0A:00:00:00:00;1727223242;25/09/24;00:14:02;1.027;0.058;0.16;-0.018325956538319588;-0.025656338781118393;-0.014660765416920185
01:00:0A:00:00:00:00;1727223243;25/09/24;00:14:03;1.037;0.048;0.161;-0.03787364438176155;0.00855211354792118;-0.024434609338641167
01:00:0A:00:00:00:00;1727223244;25/09/24;00:14:04;1.04;0.038;0.143;-0.051312677562236786;0.06230825558304787;-0.025656338781118393
01:00:0A:00:00:00:00;1727223245;25/09/24;00:14:05;1.016;0.033;0.122;-0.05864306166768074;0.042760565876960754;-0.009773843921720982
01:00:0A:00:00:00:00;1727223246;25/09/24;00:14:06;1.003;0.033;0.122;-0.06841690838336945;0.009773843921720982;0.0024434609804302454
01:00:0A:00:00:00:00;1727223247;25/09/24;00:14:07;0.989;0.039;0.145;-0.0708603635430336;-0.03420845419168472;0.013439035043120384
01:00:0A:00:00:00:00;1727223248;25/09/24;00:14:08;1.0;0.035;0.168;-0.06108652427792549;-0.03298672288656235;0.0036651913542300463
01:00:0A:00:00:00:00;1727223249;25/09/24;00:14:09;1.003;0.034;0.171;-0.05253440886735916;0.006108652334660292;0.0012217304902151227
01:00:0A:00:00:00:00;1727223250;25/09/24;00:14:10;0.999;0.03;0.142;-0.05009094998240471;0.018325956538319588;-0.0012217304902151227
01:00:0A:00:00:00:00;1727223251;25/09/24;00:14:11;0.976;0.033;0.107;-0.05619959905743599;-0.019547687843441963;0.019547687843441963
01:00:0A:00:00:00:00;1727223252;25/09/24;00:14:12;0.969;0.04;0.102;-0.05619959905743599;-0.0659734457731247;0.02076941914856434
01:00:0A:00:00:00:00;1727223253;25/09/24;00:14:13;1.001;0.055;0.124;-0.059864792972803116;-0.09773843735456467;0.0036651913542300463
01:00:0A:00:00:00:00;1727223254;25/09/24;00:14:14;1.023;0.057;0.147;-0.07819075137376785;-0.06475171446800232;-0.0036651913542300463
01:00:0A:00:00:00:00;1727223255;25/09/24;00:14:15;1.045;0.042;0.156;-0.09529497474431992;0.04153883829712868;-0.025656338781118393
01:00:0A:00:00:00:00;1727223256;25/09/24;00:14:16;1.034;0.037;0.14;-0.10873401165008545;0.06841690838336945;-0.010995574295520782
01:00:0A:00:00:00:00;1727223257;25/09/24;00:14:17;1.017;0.045;0.138;-0.11239919811487198;0.04398229718208313;-0.01710422709584236
01:00:0A:00:00:00:00;1727223258;25/09/24;00:14:18;1.003;0.046;0.134;-0.1062905490398407;-0.028099799528717995;-0.010995574295520782
01:00:0A:00:00:00:00;1727223259;25/09/24;00:14:19;1.011;0.03;0.149;-0.08307767659425735;-0.05009094998240471;-0.030543262138962746
01:00:0A:00:00:00:00;1727223260;25/09/24;00:14:20;1.018;0.005;0.165;-0.06230825558304787;-0.019547687843441963;-0.028099799528717995
01:00:0A:00:00:00:00;1727223261;25/09/24;00:14:21;1.02;0.008;0.162;-0.059864792972803116;0.018325956538319588;-0.01710422709584236
01:00:0A:00:00:00:00;1727223262;25/09/24;00:14:22;0.998;0.03;0.136;-0.08796459436416626;0.040317103266716;0.028099799528717995
01:00:0A:00:00:00:00;1727223263;25/09/24;00:14:23;0.976;0.043;0.124;-0.10873401165008545;-0.006108652334660292;0.04764748737215996
01:00:0A:00:00:00:00;1727223264;25/09/24;00:14:24;0.974;0.07;0.121;-0.11362093687057495;-0.03420845419168472;0.00855211354792118
01:00:0A:00:00:00:00;1727223265;25/09/24;00:14:25;0.991;0.085;0.127;-0.1258382350206375;-0.07208210229873657;-0.04398229718208313
01:00:0A:00:00:00:00;1727223266;25/09/24;00:14:26;1.002;0.08;0.147;-0.17592918872833252;-0.04764748737215996;-0.04153883829712868
01:00:0A:00:00:00:00;1727223267;25/09/24;00:14:27;1.019;0.046;0.156;-0.2028072476387024;-0.05375614017248154;-0.01710422709584236
01:00:0A:00:00:00:00;1727223268;25/09/24;00:14:28;1.026;0.027;0.146;-0.19058994948863983;-0.07208210229873657;-0.0024434609804302454
01:00:0A:00:00:00:00;1727223269;25/09/24;00:14:29;1.04;0.04;0.142;-0.1771509200334549;-0.03298672288656235;-0.021991148591041565
01:00:0A:00:00:00:00;1727223270;25/09/24;00:14:30;1.047;0.055;0.159;-0.1820378452539444;-0.0073303827084600925;-0.025656338781118393
01:00:0A:00:00:00:00;1727223271;25/09/24;00:14:31;1.042;0.009;0.055;0.03420845419168472;0.05497787147760391;-0.039095375686883926
01:00:0A:00:00:00:00;1727223272;25/09/24;00:14:32;0.99;0.065;0.112;0.2174680233001709;0.03420845419168472;-0.01710422709584236
01:00:0A:00:00:00:00;1727223273;25/09/24;00:14:33;0.977;0.045;0.075;0.6499606370925903;-0.0073303827084600925;0.08307767659425735
01:00:0A:00:00:00:00;1727223274;25/09/24;00:14:34;0.977;-0.007;0.075;1.1520917415618896;0.08185594528913498;0.1563815027475357
01:00:0A:00:00:00:00;1727223275;25/09/24;00:14:35;0.982;0.081;0.148;1.086118459701538;-0.02687807008624077;0.06352998316287994
01:00:0A:00:00:00:00;1727223276;25/09/24;00:14:36;1.014;0.138;0.088;0.8381071090698242;-0.0036651913542300463;0.21135938167572021
01:00:0A:00:00:00:00;1727223277;25/09/24;00:14:37;1.03;0.041;0.157;0.7183775305747986;0.0659734457731247;0.13927726447582245
01:00:0A:00:00:00:00;1727223278;25/09/24;00:14:38;1.016;0.098;0.226;0.6927211880683899;0.07330382615327835;0.0659734457731247
01:00:0A:00:00:00:00;1727223279;25/09/24;00:14:39;1.017;0.092;0.151;0.5815436840057373;0.010995574295520782;0.12095131725072861
01:00:0A:00:00:00:00;1727223280;25/09/24;00:14:40;1.011;0.021;0.154;0.5558874011039734;0.06230825558304787;0.10506881773471832
01:00:0A:00:00:00:00;1727223281;25/09/24;00:14:41;0.995;0.046;0.183;0.5937609672546387;0.040317103266716;0.006108652334660292
01:00:0A:00:00:00:00;1727223282;25/09/24;00:14:42;0.995;0.086;0.151;0.5155702233314514;-0.015882495790719986;0.03298672288656235
01:00:0A:00:00:00:00;1727223283;25/09/24;00:14:43;0.998;0.045;0.134;0.41294488310813904;-0.004886921960860491;0.09651670604944229
01:00:0A:00:00:00:00;1727223284;25/09/24;00:14:44;0.996;0.02;0.168;0.40194931626319885;0.006108652334660292;0.080634206533432
01:00:0A:00:00:00:00;1727223285;25/09/24;00:14:45;1.008;0.048;0.181;0.4080579876899719;0.0012217304902151227;0.05742133408784866
01:00:0A:00:00:00:00;1727223286;25/09/24;00:14:46;1.021;0.06;0.155;0.3701843321323395;-0.0024434609804302454;0.05742133408784866
01:00:0A:00:00:00:00;1727223287;25/09/24;00:14:47;1.031;0.035;0.143;0.35063666105270386;0.0354301817715168;0.0354301817715168
01:00:0A:00:00:00:00;1727223288;25/09/24;00:14:48;1.021;0.037;0.166;0.34697145223617554;0.05619959905743599;0.02321287989616394
01:00:0A:00:00:00:00;1727223289;25/09/24;00:14:49;0.995;0.062;0.156;0.31642818450927734;0.021991148591041565;0.03420845419168472
01:00:0A:00:00:00:00;1727223290;25/09/24;00:14:50;0.976;0.063;0.137;0.2687807083129883;-0.021991148591041565;0.05375614017248154
01:00:0A:00:00:00:00;1727223291;25/09/24;00:14:51;0.98;0.049;0.129;0.24068090319633484;-0.014660765416920185;0.030543262138962746
01:00:0A:00:00:00:00;1727223292;25/09/24;00:14:52;0.996;0.046;0.146;0.2321287840604782;-0.04764748737215996;0.018325956538319588
01:00:0A:00:00:00:00;1727223293;25/09/24;00:14:53;1.004;0.049;0.157;0.19914205372333527;-0.030543262138962746;0.04398229718208313
01:00:0A:00:00:00:00;1727223294;25/09/24;00:14:54;1.019;0.043;0.158;0.1771509200334549;-0.0073303827084600925;0.05497787147760391
01:00:0A:00:00:00:00;1727223295;25/09/24;00:14:55;1.024;0.036;0.162;0.1918116807937622;0.012217304669320583;0.03298672288656235
01:00:0A:00:00:00:00;1727223296;25/09/24;00:14:56;1.025;0.035;0.158;0.21380282938480377;0.024434609338641167;0.0
01:00:0A:00:00:00:00;1727223297;25/09/24;00:14:57;1.021;0.041;0.158;0.21013763546943665;0.012217304669320583;0.0036651913542300463
01:00:0A:00:00:00:00;1727223298;25/09/24;00:14:58;1.003;0.034;0.159;0.19058994948863983;0.012217304669320583;0.0354301817715168
01:00:0A:00:00:00:00;1727223299;25/09/24;00:14:59;0.992;0.038;0.157;0.17959438264369965;0.0012217304902151227;0.05742133408784866
01:00:0A:00:00:00:00;1727223300;25/09/24;00:15:00;0.999;0.047;0.16;0.1820378452539444;-0.006108652334660292;0.042760565876960754
01:00:0A:00:00:00:00;1727223301;25/09/24;00:15:01;1.018;0.06;0.161;0.17592918872833252;-0.006108652334660292;0.01710422709584236
01:00:0A:00:00:00:00;1727223302;25/09/24;00:15:02;1.025;0.058;0.163;0.16493360698223114;0.013439035043120384;0.0073303827084600925
01:00:0A:00:00:00:00;1727223303;25/09/24;00:15:03;1.013;0.036;0.152;0.16249015927314758;0.0354301817715168;0.0036651913542300463
01:00:0A:00:00:00:00;1727223304;25/09/24;00:15:04;0.995;0.031;0.14;0.16859880089759827;0.02932153083384037;-0.0036651913542300463
01:00:0A:00:00:00:00;1727223305;25/09/24;00:15:05;0.977;0.028;0.127;0.1673770695924759;-0.021991148591041565;0.012217304669320583
01:00:0A:00:00:00:00;1727223306;25/09/24;00:15:06;0.985;0.027;0.128;0.15271630883216858;-0.045204028487205505;0.036651913076639175
01:00:0A:00:00:00:00;1727223307;25/09/24;00:15:07;1.011;0.033;0.146;0.14538592100143433;-0.05864306166768074;0.05864306166768074
01:00:0A:00:00:00:00;1727223308;25/09/24;00:15:08;1.028;0.041;0.159;0.1466076523065567;-0.014660765416920185;0.040317103266716
01:00:0A:00:00:00:00;1727223309;25/09/24;00:15:09;1.032;0.052;0.162;0.1514945775270462;0.014660765416920185;0.021991148591041565
01:00:0A:00:00:00:00;1727223310;25/09/24;00:15:10;1.021;0.05;0.154;0.15393804013729095;0.04153883829712868;-0.0036651913542300463
01:00:0A:00:00:00:00;1727223311;25/09/24;00:15:11;1.015;0.044;0.15;0.15271630883216858;0.03787364438176155;-0.006108652334660292
01:00:0A:00:00:00:00;1727223312;25/09/24;00:15:12;0.998;0.036;0.146;0.15027284622192383;0.01710422709584236;0.0036651913542300463
01:00:0A:00:00:00:00;1727223313;25/09/24;00:15:13;0.999;0.037;0.152;0.1417207270860672;0.012217304669320583;0.009773843921720982
