Source;Epoch timestamp (UTC);Date;Time (UTC);Accel X (G);Accel Y (G);Accel Z (G);Gyro X (rad/s);Gyro Y (rad/s);Gyro Z (rad/s)
01:00:0A:00:00:00:00;1726272016;14/09/24;00:00:16;1.01;0.016;0.128;0.03176499158143997;-0.012217304669320583;0.0036651913542300463
01:00:0A:00:00:00:00;1726272017;14/09/24;00:00:17;1.01;0.018;0.136;0.02687807008624077;-0.0012217304902151227;0.006108652334660292
01:00:0A:00:00:00:00;1726272018;14/09/24;00:00:18;1.009;0.016;0.135;0.03176499158143997;-0.019547687843441963;0.006108652334660292
01:00:0A:00:00:00:00;1726272019;14/09/24;00:00:19;1.01;0.016;0.129;0.02932153083384037;-0.010995574295520782;0.004886921960860491
01:00:0A:00:00:00:00;1726272020;14/09/24;00:00:20;1.01;0.017;0.136;0.02687807008624077;-0.0036651913542300463;0.004886921960860491
01:00:0A:00:00:00:00;1726272021;14/09/24;00:00:21;1.01;0.015;0.135;0.030543262138962746;-0.00855211354792118;0.00855211354792118
01:00:0A:00:00:00:00;1726272022;14/09/24;00:00:22;1.008;0.013;0.145;0.059864792972803116;-0.0036651913542300463;0.0073303827084600925
01:00:0A:00:00:00:00;1726272023;14/09/24;00:00:23;1.008;0.014;0.139;0.080634206533432;-0.01710422709584236;0.012217304669320583
01:00:0A:00:00:00:00;1726272024;14/09/24;00:00:24;1.01;0.014;0.131;0.08429940044879913;-0.018325956538319588;0.009773843921720982
01:00:0A:00:00:00:00;1726272025;14/09/24;00:00:25;1.011;0.017;0.131;0.0757472887635231;0.0;0.00855211354792118
01:00:0A:00:00:00:00;1726272026;14/09/24;00:00:26;1.009;0.016;0.137;0.07330382615327835;-0.0073303827084600925;0.010995574295520782
01:00:0A:00:00:00:00;1726272027;14/09/24;00:00:27;1.01;0.015;0.131;0.07208210229873657;-0.015882495790719986;0.010995574295520782
01:00:0A:00:00:00:00;1726272028;14/09/24;00:00:28;1.01;0.016;0.13;0.06963863223791122;-0.0036651913542300463;0.0073303827084600925
01:00:0A:00:00:00:00;1726272029;14/09/24;00:00:29;1.009;0.017;0.137;0.0659734457731247;-0.00855211354792118;0.009773843921720982
01:00:0A:00:00:00:00;1726272030;14/09/24;00:00:30;1.011;0.015;0.132;0.0659734457731247;-0.015882495790719986;0.012217304669320583
01:00:0A:00:00:00:00;1726272031;14/09/24;00:00:31;1.011;0.016;0.132;0.06352998316287994;-0.0036651913542300463;0.004886921960860491
01:00:0A:00:00:00:00;1726272032;14/09/24;00:00:32;1.01;0.018;0.136;0.059864792972803116;-0.009773843921720982;0.010995574295520782
01:00:0A:00:00:00:00;1726272033;14/09/24;00:00:33;1.01;0.015;0.132;0.059864792972803116;-0.013439035043120384;0.010995574295520782
01:00:0A:00:00:00:00;1726272034;14/09/24;00:00:34;1.01;0.016;0.132;0.059864792972803116;-0.004886921960860491;0.0036651913542300463
01:00:0A:00:00:00:00;1726272035;14/09/24;00:00:35;1.01;0.017;0.135;0.05497787147760391;-0.009773843921720982;0.009773843921720982
01:00:0A:00:00:00:00;1726272036;14/09/24;00:00:36;1.01;0.014;0.133;0.05375614017248154;-0.012217304669320583;0.00855211354792118
01:00:0A:00:00:00:00;1726272037;14/09/24;00:00:37;1.01;0.016;0.133;0.05253440886735916;-0.0073303827084600925;0.004886921960860491
01:00:0A:00:00:00:00;1726272038;14/09/24;00:00:38;1.01;0.017;0.134;0.05009094998240471;-0.009773843921720982;0.00855211354792118
01:00:0A:00:00:00:00;1726272039;14/09/24;00:00:39;1.01;0.015;0.133;0.04886921867728233;-0.012217304669320583;0.00855211354792118
01:00:0A:00:00:00:00;1726272040;14/09/24;00:00:40;1.009;0.015;0.133;0.04642575979232788;-0.0073303827084600925;0.004886921960860491
01:00:0A:00:00:00:00;1726272041;14/09/24;00:00:41;1.011;0.018;0.134;0.04398229718208313;-0.009773843921720982;0.0073303827084600925
01:00:0A:00:00:00:00;1726272042;14/09/24;00:00:42;1.01;0.015;0.133;0.042760565876960754;-0.012217304669320583;0.009773843921720982
01:00:0A:00:00:00:00;1726272043;14/09/24;00:00:43;1.011;0.016;0.133;0.042760565876960754;-0.00855211354792118;0.0036651913542300463
01:00:0A:00:00:00:00;1726272044;14/09/24;00:00:44;1.01;0.017;0.134;0.039095375686883926;-0.009773843921720982;0.0073303827084600925
01:00:0A:00:00:00:00;1726272045;14/09/24;00:00:45;1.01;0.016;0.132;0.03787364438176155;-0.010995574295520782;0.00855211354792118
01:00:0A:00:00:00:00;1726272046;14/09/24;00:00:46;1.011;0.022;0.134;0.05864306166768074;-0.00855211354792118;0.0
01:00:0A:00:00:00:00;1726272047;14/09/24;00:00:47;1.011;0.019;0.134;0.05375614017248154;-0.009773843921720982;0.019547687843441963
01:00:0A:00:00:00:00;1726272048;14/09/24;00:00:48;1.011;0.01;0.133;0.05864306166768074;-0.010995574295520782;0.00855211354792118
01:00:0A:00:00:00:00;1726272049;14/09/24;00:00:49;1.01;0.019;0.133;0.05864306166768074;-0.0073303827084600925;0.0012217304902151227
01:00:0A:00:00:00:00;1726272050;14/09/24;00:00:50;1.009;0.017;0.133;0.04764748737215996;-0.009773843921720982;0.014660765416920185
01:00:0A:00:00:00:00;1726272051;14/09/24;00:00:51;1.01;0.013;0.133;0.05009094998240471;-0.010995574295520782;0.0073303827084600925
01:00:0A:00:00:00:00;1726272052;14/09/24;00:00:52;1.009;0.018;0.132;0.051312677562236786;-0.00855211354792118;0.0024434609804302454
01:00:0A:00:00:00:00;1726272053;14/09/24;00:00:53;1.009;0.018;0.133;0.042760565876960754;-0.009773843921720982;0.010995574295520782
01:00:0A:00:00:00:00;1726272054;14/09/24;00:00:54;1.011;0.013;0.132;0.04398229718208313;-0.010995574295520782;0.0073303827084600925
01:00:0A:00:00:00:00;1726272055;14/09/24;00:00:55;1.009;0.018;0.132;0.045204028487205505;-0.00855211354792118;0.0012217304902151227
01:00:0A:00:00:00:00;1726272056;14/09/24;00:00:56;1.01;0.017;0.133;0.03787364438176155;-0.009773843921720982;0.010995574295520782
01:00:0A:00:00:00:00;1726272057;14/09/24;00:00:57;1.01;0.013;0.133;0.040317103266716;-0.010995574295520782;0.006108652334660292
01:00:0A:00:00:00:00;1726272058;14/09/24;00:00:58;1.011;0.018;0.132;0.040317103266716;-0.009773843921720982;0.0024434609804302454
01:00:0A:00:00:00:00;1726272059;14/09/24;00:00:59;1.01;0.017;0.134;0.03298672288656235;-0.009773843921720982;0.010995574295520782
01:00:0A:00:00:00:00;1726272060;14/09/24;00:01:00;1.01;0.015;0.133;0.036651913076639175;-0.012217304669320583;0.004886921960860491
01:00:0A:00:00:00:00;1726272061;14/09/24;00:01:01;1.01;0.018;0.131;0.0354301817715168;-0.009773843921720982;0.0036651913542300463
01:00:0A:00:00:00:00;1726272062;14/09/24;00:01:02;1.009;0.016;0.134;0.03176499158143997;-0.009773843921720982;0.00855211354792118
01:00:0A:00:00:00:00;1726272063;14/09/24;00:01:03;1.011;0.016;0.133;0.03420845419168472;-0.010995574295520782;0.004886921960860491
01:00:0A:00:00:00:00;1726272064;14/09/24;00:01:04;1.009;0.015;0.133;0.03176499158143997;-0.009773843921720982;0.004886921960860491
01:00:0A:00:00:00:00;1726272065;14/09/24;00:01:05;1.01;0.015;0.133;0.02932153083384037;-0.010995574295520782;0.0073303827084600925
01:00:0A:00:00:00:00;1726272066;14/09/24;00:01:06;1.01;0.015;0.134;0.030543262138962746;-0.010995574295520782;0.004886921960860491
01:00:0A:00:00:00:00;1726272067;14/09/24;00:01:07;1.011;0.016;0.132;0.02932153083384037;-0.009773843921720982;0.0036651913542300463
01:00:0A:00:00:00:00;1726272068;14/09/24;00:01:08;1.011;0.016;0.133;0.02687807008624077;-0.009773843921720982;0.0073303827084600925
01:00:0A:00:00:00:00;1726272069;14/09/24;00:01:09;1.009;0.016;0.133;0.028099799528717995;-0.010995574295520782;0.004886921960860491
01:00:0A:00:00:00:00;1726272070;14/09/24;00:01:10;1.01;0.017;0.132;0.02687807008624077;-0.010995574295520782;0.0036651913542300463
01:00:0A:00:00:00:00;1726272071;14/09/24;00:01:11;1.01;0.016;0.133;0.024434609338641167;-0.010995574295520782;0.006108652334660292
01:00:0A:00:00:00:00;1726272072;14/09/24;00:01:12;1.01;0.015;0.132;0.02687807008624077;-0.010995574295520782;0.0036651913542300463
01:00:0A:00:00:00:00;1726272073;14/09/24;00:01:13;1.01;0.017;0.132;0.025656338781118393;-0.009773843921720982;0.004886921960860491
01:00:0A:00:00:00:00;1726272074;14/09/24;00:01:14;1.01;0.015;0.134;0.024434609338641167;-0.010995574295520782;0.006108652334660292
01:00:0A:00:00:00:00;1726272075;14/09/24;00:01:15;1.009;0.017;0.133;0.024434609338641167;-0.012217304669320583;0.004886921960860491
01:00:0A:00:00:00:00;1726272076;14/09/24;00:01:16;1.011;0.016;0.133;0.02321287989616394;-0.009773843921720982;0.004886921960860491
01:00:0A:00:00:00:00;1726272077;14/09/24;00:01:17;1.01;0.016;0.133;0.02321287989616394;-0.010995574295520782;0.004886921960860491
01:00:0A:00:00:00:00;1726272078;14/09/24;00:01:18;1.01;0.016;0.133;0.02321287989616394;-0.010995574295520782;0.004886921960860491
01:00:0A:00:00:00:00;1726272079;14/09/24;00:01:19;1.01;0.016;0.133;0.021991148591041565;-0.010995574295520782;0.0036651913542300463
01:00:0A:00:00:00:00;1726272080;14/09/24;00:01:20;1.011;0.016;0.133;0.021991148591041565;-0.010995574295520782;0.004886921960860491
01:00:0A:00:00:00:00;1726272081;14/09/24;00:01:21;1.01;0.015;0.133;0.021991148591041565;-0.010995574295520782;0.0036651913542300463
01:00:0A:00:00:00:00;1726272082;14/09/24;00:01:22;1.01;0.017;0.133;0.021991148591041565;-0.010995574295520782;0.004886921960860491
01:00:0A:00:00:00:00;1726272083;14/09/24;00:01:23;1.01;0.016;0.133;0.02076941914856434;-0.009773843921720982;0.004886921960860491
01:00:0A:00:00:00:00;1726272084;14/09/24;00:01:24;1.009;0.014;0.132;0.02076941914856434;-0.012217304669320583;0.0036651913542300463
01:00:0A:00:00:00:00;1726272085;14/09/24;00:01:25;1.01;0.017;0.133;0.02076941914856434;-0.010995574295520782;0.0036651913542300463
01:00:0A:00:00:00:00;1726272086;14/09/24;00:01:26;1.01;0.016;0.133;0.019547687843441963;-0.010995574295520782;0.004886921960860491
01:00:0A:00:00:00:00;1726272087;14/09/24;00:01:27;1.01;0.016;0.133;0.02076941914856434;-0.010995574295520782;0.0036651913542300463
01:00:0A:00:00:00:00;1726272088;14/09/24;00:01:28;1.01;0.017;0.132;0.019547687843441963;-0.018325956538319588;0.0036651913542300463
01:00:0A:00:00:00:00;1726272089;14/09/24;00:01:29;1.011;0.016;0.124;0.018325956538319588;-0.004886921960860491;0.004886921960860491
01:00:0A:00:00:00:00;1726272090;14/09/24;00:01:30;1.01;0.015;0.134;0.02076941914856434;-0.0024434609804302454;0.004886921960860491
01:00:0A:00:00:00:00;1726272091;14/09/24;00:01:31;1.011;0.016;0.136;0.02321287989616394;-0.013439035043120384;0.0036651913542300463
01:00:0A:00:00:00:00;1726272092;14/09/24;00:01:32;1.011;0.017;0.129;0.02076941914856434;-0.014660765416920185;0.004886921960860491
01:00:0A:00:00:00:00;1726272093;14/09/24;00:01:33;1.01;0.016;0.133;0.01710422709584236;-0.0036651913542300463;0.0036651913542300463
01:00:0A:00:00:00:00;1726272094;14/09/24;00:01:34;1.009;0.016;0.135;0.018325956538319588;-0.013439035043120384;0.0036651913542300463
01:00:0A:00:00:00:00;1726272095;14/09/24;00:01:35;1.01;0.016;0.13;0.015882495790719986;-0.013439035043120384;0.004886921960860491
01:00:0A:00:00:00:00;1726272096;14/09/24;00:01:36;1.011;0.016;0.132;0.014660765416920185;-0.006108652334660292;0.0036651913542300463
01:00:0A:00:00:00:00;1726272097;14/09/24;00:01:37;1.01;0.016;0.135;0.014660765416920185;-0.013439035043120384;0.0036651913542300463
01:00:0A:00:00:00:00;1726272098;14/09/24;00:01:38;1.01;0.016;0.131;0.013439035043120384;-0.013439035043120384;0.004886921960860491
01:00:0A:00:00:00:00;1726272099;14/09/24;00:01:39;1.009;0.016;0.133;0.010995574295520782;-0.0073303827084600925;0.0024434609804302454
01:00:0A:00:00:00:00;1726272100;14/09/24;00:01:40;1.009;0.016;0.135;0.010995574295520782;-0.012217304669320583;0.0036651913542300463
01:00:0A:00:00:00:00;1726272101;14/09/24;00:01:41;1.009;0.015;0.13;0.010995574295520782;-0.013439035043120384;0.0036651913542300463
01:00:0A:00:00:00:00;1726272102;14/09/24;00:01:42;1.01;0.016;0.133;0.00855211354792118;-0.0073303827084600925;0.0024434609804302454
01:00:0A:00:00:00:00;1726272103;14/09/24;00:01:43;1.01;0.017;0.134;0.00855211354792118;-0.012217304669320583;0.0036651913542300463
01:00:0A:00:00:00:00;1726272104;14/09/24;00:01:44;1.011;0.016;0.131;0.00855211354792118;-0.013439035043120384;0.0036651913542300463
01:00:0A:00:00:00:00;1726272105;14/09/24;00:01:45;1.011;0.015;0.134;0.0073303827084600925;-0.0073303827084600925;0.0024434609804302454
01:00:0A:00:00:00:00;1726272106;14/09/24;00:01:46;1.009;0.016;0.134;0.0073303827084600925;-0.012217304669320583;0.0036651913542300463
01:00:0A:00:00:00:00;1726272107;14/09/24;00:01:47;1.011;0.016;0.13;0.006108652334660292;-0.012217304669320583;0.0036651913542300463
01:00:0A:00:00:00:00;1726272108;14/09/24;00:01:48;1.009;0.015;0.132;0.006108652334660292;-0.009773843921720982;0.0024434609804302454
01:00:0A:00:00:00:00;1726272109;14/09/24;00:01:49;1.01;0.017;0.133;0.006108652334660292;-0.012217304669320583;0.0036651913542300463
01:00:0A:00:00:00:00;1726272110;14/09/24;00:01:50;1.01;0.015;0.131;0.004886921960860491;-0.012217304669320583;0.0024434609804302454
01:00:0A:00:00:00:00;1726272111;14/09/24;00:01:51;1.009;0.016;0.133;0.004886921960860491;-0.009773843921720982;0.0024434609804302454
01:00:0A:00:00:00:00;1726272112;14/09/24;00:01:52;1.01;0.015;0.133;0.0036651913542300463;-0.012217304669320583;0.0024434609804302454
01:00:0A:00:00:00:00;1726272113;14/09/24;00:01:53;1.01;0.015;0.132;0.0036651913542300463;-0.012217304669320583;0.0024434609804302454
01:00:0A:00:00:00:00;1726272114;14/09/24;00:01:54;1.01;0.015;0.132;0.0036651913542300463;-0.009773843921720982;0.0024434609804302454
01:00:0A:00:00:00:00;1726272115;14/09/24;00:01:55;1.011;0.016;0.133;0.0036651913542300463;-0.012217304669320583;0.0024434609804302454
01:00:0A:00:00:00:00;1726272116;14/09/24;00:01:56;1.01;0.015;0.131;0.0024434609804302454;-0.012217304669320583;0.0024434609804302454
01:00:0A:00:00:00:00;1726272117;14/09/24;00:01:57;1.01;0.015;0.132;0.0012217304902151227;-0.009773843921720982;0.0024434609804302454
01:00:0A:00:00:00:00;1726272118;14/09/24;00:01:58;1.009;0.015;0.134;0.0012217304902151227;-0.012217304669320583;0.0024434609804302454
01:00:0A:00:00:00:00;1726272119;14/09/24;00:01:59;1.011;0.016;0.133;0.0012217304902151227;-0.010995574295520782;0.0024434609804302454
01:00:0A:00:00:00:00;1726272120;14/09/24;00:02:00;1.01;0.016;0.133;0.0012217304902151227;-0.010995574295520782;0.0024434609804302454
01:00:0A:00:00:00:00;1726272121;14/09/24;00:02:01;1.01;0.017;0.133;0.0012217304902151227;-0.012217304669320583;0.0024434609804302454
01:00:0A:00:00:00:00;1726272122;14/09/24;00:02:02;1.01;0.015;0.132;0.0;-0.012217304669320583;0.0024434609804302454
01:00:0A:00:00:00:00;1726272123;14/09/24;00:02:03;1.01;0.016;0.132;0.0;-0.010995574295520782;0.0012217304902151227
01:00:0A:00:00:00:00;1726272124;14/09/24;00:02:04;1.01;0.016;0.131;0.006108652334660292;-0.015882495790719986;0.0024434609804302454
01:00:0A:00:00:00:00;1726272125;14/09/24;00:02:05;1.009;0.017;0.131;0.0024434609804302454;-0.0073303827084600925;0.0024434609804302454
01:00:0A:00:00:00:00;1726272126;14/09/24;00:02:06;1.01;0.017;0.134;0.004886921960860491;-0.010995574295520782;0.0024434609804302454
01:00:0A:00:00:00:00;1726272127;14/09/24;00:02:07;1.009;0.017;0.132;0.004886921960860491;-0.013439035043120384;0.0024434609804302454
01:00:0A:00:00:00:00;1726272128;14/09/24;00:02:08;1.011;0.017;0.132;0.0036651913542300463;-0.009773843921720982;0.0024434609804302454
01:00:0A:00:00:00:00;1726272129;14/09/24;00:02:09;1.01;0.015;0.134;0.0036651913542300463;-0.009773843921720982;0.0024434609804302454
01:00:0A:00:00:00:00;1726272130;14/09/24;00:02:10;1.01;0.017;0.133;0.0036651913542300463;-0.013439035043120384;0.0024434609804302454
01:00:0A:00:00:00:00;1726272131;14/09/24;00:02:11;1.011;0.016;0.132;0.0012217304902151227;-0.009773843921720982;0.0024434609804302454
01:00:0A:00:00:00:00;1726272132;14/09/24;00:02:12;1.01;0.015;0.134;0.0012217304902151227;-0.010995574295520782;0.0024434609804302454
01:00:0A:00:00:00:00;1726272133;14/09/24;00:02:13;1.011;0.015;0.132;0.0012217304902151227;-0.013439035043120384;0.0024434609804302454
01:00:0A:00:00:00:00;1726272134;14/09/24;00:02:14;1.01;0.016;0.133;0.0;-0.009773843921720982;0.0024434609804302454
01:00:0A:00:00:00:00;1726272135;14/09/24;00:02:15;1.009;0.016;0.133;0.0;-0.010995574295520782;0.0012217304902151227
01:00:0A:00:00:00:00;1726272136;14/09/24;00:02:16;1.01;0.016;0.132;0.0;-0.012217304669320583;0.0024434609804302454
01:00:0A:00:00:00:00;1726272137;14/09/24;00:02:17;1.009;0.017;0.133;0.0;-0.010995574295520782;0.0024434609804302454
01:00:0A:00:00:00:00;1726272138;14/09/24;00:02:18;1.01;0.016;0.133;0.0;-0.010995574295520782;0.0024434609804302454
01:00:0A:00:00:00:00;1726272139;14/09/24;00:02:19;1.009;0.016;0.132;0.0;-0.012217304669320583;0.0024434609804302454
01:00:0A:00:00:00:00;1726272140;14/09/24;00:02:20;1.01;0.017;0.131;-0.0012217304902151227;-0.010995574295520782;0.0024434609804302454
01:00:0A:00:00:00:00;1726272141;14/09/24;00:02:21;1.01;0.016;0.133;-0.0012217304902151227;-0.010995574295520782;0.0024434609804302454
01:00:0A:00:00:00:00;1726272142;14/09/24;00:02:22;1.01;0.016;0.131;-0.0012217304902151227;-0.012217304669320583;0.0024434609804302454
01:00:0A:00:00:00:00;1726272143;14/09/24;00:02:23;1.01;0.015;0.132;-0.0024434609804302454;-0.010995574295520782;0.0012217304902151227
01:00:0A:00:00:00:00;1726272144;14/09/24;00:02:24;1.01;0.016;0.132;0.0;-0.010995574295520782;0.0024434609804302454
01:00:0A:00:00:00:00;1726272145;14/09/24;00:02:25;1.009;0.016;0.133;0.0;-0.009773843921720982;0.0024434609804302454
01:00:0A:00:00:00:00;1726272146;14/09/24;00:02:26;1.01;0.017;0.133;0.0;-0.013439035043120384;0.0012217304902151227
01:00:0A:00:00:00:00;1726272146;14/09/24;00:02:26;1.01;0.015;0.131;-0.0012217304902151227;-0.012217304669320583;0.0012217304902151227
01:00:0A:00:00:00:00;1726272147;14/09/24;00:02:27;1.012;0.017;0.13;-0.006108652334660292;-0.010995574295520782;0.0012217304902151227
01:00:0A:00:00:00:00;1726272148;14/09/24;00:02:28;1.01;0.015;0.134;-0.0073303827084600925;-0.00855211354792118;0.0024434609804302454
01:00:0A:00:00:00:00;1726272149;14/09/24;00:02:29;1.011;0.016;0.133;-0.0036651913542300463;-0.015882495790719986;0.0012217304902151227
01:00:0A:00:00:00:00;1726272150;14/09/24;00:02:30;1.011;0.017;0.131;-0.006108652334660292;-0.010995574295520782;0.0012217304902151227
01:00:0A:00:00:00:00;1726272151;14/09/24;00:02:31;1.011;0.016;0.133;-0.006108652334660292;-0.009773843921720982;0.0012217304902151227
01:00:0A:00:00:00:00;1726272152;14/09/24;00:02:32;1.01;0.015;0.133;-0.0036651913542300463;-0.014660765416920185;0.0012217304902151227
01:00:0A:00:00:00:00;1726272153;14/09/24;00:02:33;1.011;0.016;0.131;-0.004886921960860491;-0.010995574295520782;0.0012217304902151227
01:00:0A:00:00:00:00;1726272154;14/09/24;00:02:34;1.009;0.016;0.133;-0.006108652334660292;-0.00855211354792118;0.0024434609804302454
01:00:0A:00:00:00:00;1726272155;14/09/24;00:02:35;1.008;0.017;0.133;-0.0036651913542300463;-0.014660765416920185;0.0012217304902151227
01:00:0A:00:00:00:00;1726272156;14/09/24;00:02:36;1.01;0.016;0.132;-0.004886921960860491;-0.010995574295520782;0.0012217304902151227
01:00:0A:00:00:00:00;1726272157;14/09/24;00:02:37;1.011;0.017;0.134;-0.006108652334660292;-0.009773843921720982;0.0024434609804302454
01:00:0A:00:00:00:00;1726272158;14/09/24;00:02:38;1.01;0.016;0.133;-0.0036651913542300463;-0.013439035043120384;0.0012217304902151227
01:00:0A:00:00:00:00;1726272159;14/09/24;00:02:39;1.01;0.016;0.131;-0.004886921960860491;-0.010995574295520782;0.0012217304902151227
01:00:0A:00:00:00:00;1726272160;14/09/24;00:02:40;1.009;0.015;0.134;-0.004886921960860491;-0.009773843921720982;0.0012217304902151227
01:00:0A:00:00:00:00;1726272161;14/09/24;00:02:41;1.009;0.016;0.133;-0.0036651913542300463;-0.013439035043120384;0.0012217304902151227
01:00:0A:00:00:00:00;1726272162;14/09/24;00:02:42;1.011;0.016;0.132;-0.004886921960860491;-0.010995574295520782;0.0012217304902151227
01:00:0A:00:00:00:00;1726272163;14/09/24;00:02:43;1.009;0.015;0.131;-0.00855211354792118;-0.013439035043120384;0.0
01:00:0A:00:00:00:00;1726272164;14/09/24;00:02:44;1.01;0.017;0.132;-0.012217304669320583;-0.010995574295520782;0.0012217304902151227
01:00:0A:00:00:00:00;1726272165;14/09/24;00:02:45;1.011;0.016;0.133;-0.013439035043120384;-0.012217304669320583;0.0012217304902151227
01:00:0A:00:00:00:00;1726272166;14/09/24;00:02:46;1.011;0.016;0.133;-0.013439035043120384;-0.010995574295520782;0.0
01:00:0A:00:00:00:00;1726272167;14/09/24;00:02:47;1.011;0.016;0.134;-0.013439035043120384;-0.012217304669320583;0.0012217304902151227
01:00:0A:00:00:00:00;1726272168;14/09/24;00:02:48;1.01;0.017;0.132;-0.012217304669320583;-0.012217304669320583;-0.0073303827084600925
01:00:0A:00:00:00:00;1726272169;14/09/24;00:02:49;1.009;0.022;0.132;-0.018325956538319588;-0.012217304669320583;-0.0024434609804302454
01:00:0A:00:00:00:00;1726272170;14/09/24;00:02:50;1.01;0.021;0.131;-0.028099799528717995;-0.013439035043120384;0.0036651913542300463
01:00:0A:00:00:00:00;1726272171;14/09/24;00:02:51;1.01;0.015;0.132;-0.030543262138962746;-0.010995574295520782;0.006108652334660292
01:00:0A:00:00:00:00;1726272172;14/09/24;00:02:52;1.011;0.014;0.134;-0.021991148591041565;-0.012217304669320583;-0.004886921960860491
01:00:0A:00:00:00:00;1726272173;14/09/24;00:02:53;1.01;0.019;0.131;-0.02321287989616394;-0.013439035043120384;-0.0012217304902151227
01:00:0A:00:00:00:00;1726272174;14/09/24;00:02:54;1.01;0.015;0.132;-0.02687807008624077;-0.010995574295520782;0.0036651913542300463
01:00:0A:00:00:00:00;1726272175;14/09/24;00:02:55;1.01;0.015;0.133;-0.02076941914856434;-0.012217304669320583;-0.0036651913542300463
01:00:0A:00:00:00:00;1726272176;14/09/24;00:02:56;1.01;0.017;0.132;-0.021991148591041565;-0.013439035043120384;-0.0012217304902151227
01:00:0A:00:00:00:00;1726272177;14/09/24;00:02:57;1.009;0.017;0.132;-0.018325956538319588;-0.012217304669320583;0.0012217304902151227
01:00:0A:00:00:00:00;1726272178;14/09/24;00:02:58;1.012;0.017;0.132;-0.015882495790719986;-0.010995574295520782;0.0
01:00:0A:00:00:00:00;1726272179;14/09/24;00:02:59;1.009;0.014;0.133;-0.015882495790719986;-0.012217304669320583;0.0012217304902151227
01:00:0A:00:00:00:00;1726272180;14/09/24;00:03:00;1.009;0.017;0.133;-0.014660765416920185;-0.013439035043120384;0.0
01:00:0A:00:00:00:00;1726272181;14/09/24;00:03:01;1.009;0.017;0.132;-0.013439035043120384;-0.012217304669320583;0.0012217304902151227
01:00:0A:00:00:00:00;1726272182;14/09/24;00:03:02;1.01;0.018;0.132;-0.006108652334660292;-0.012217304669320583;0.0
01:00:0A:00:00:00:00;1726272183;14/09/24;00:03:03;1.01;0.016;0.132;-0.004886921960860491;-0.010995574295520782;0.0036651913542300463
01:00:0A:00:00:00:00;1726272184;14/09/24;00:03:04;1.011;0.015;0.133;-0.004886921960860491;-0.010995574295520782;0.0012217304902151227
01:00:0A:00:00:00:00;1726272185;14/09/24;00:03:05;1.01;0.017;0.132;-0.004886921960860491;-0.012217304669320583;0.0
01:00:0A:00:00:00:00;1726272186;14/09/24;00:03:06;1.01;0.017;0.133;-0.0036651913542300463;-0.012217304669320583;0.0012217304902151227
01:00:0A:00:00:00:00;1726272187;14/09/24;00:03:07;1.01;0.019;0.132;0.004886921960860491;-0.012217304669320583;0.0012217304902151227
01:00:0A:00:00:00:00;1726272188;14/09/24;00:03:08;1.009;0.017;0.132;0.0012217304902151227;-0.00855211354792118;0.0073303827084600925
01:00:0A:00:00:00:00;1726272189;14/09/24;00:03:09;1.01;0.014;0.133;0.004886921960860491;-0.012217304669320583;0.0
01:00:0A:00:00:00:00;1726272190;14/09/24;00:03:10;1.01;0.018;0.132;0.0012217304902151227;-0.012217304669320583;0.0012217304902151227
01:00:0A:00:00:00:00;1726272191;14/09/24;00:03:11;1.01;0.016;0.132;0.004886921960860491;-0.012217304669320583;0.0036651913542300463
01:00:0A:00:00:00:00;1726272192;14/09/24;00:03:12;1.011;0.017;0.133;0.00855211354792118;-0.009773843921720982;0.0036651913542300463
01:00:0A:00:00:00:00;1726272193;14/09/24;00:03:13;1.01;0.014;0.134;0.006108652334660292;-0.010995574295520782;0.0036651913542300463
01:00:0A:00:00:00:00;1726272194;14/09/24;00:03:14;1.01;0.015;0.132;0.0073303827084600925;-0.013439035043120384;0.0012217304902151227
01:00:0A:00:00:00:00;1726272195;14/09/24;00:03:15;1.01;0.017;0.132;0.004886921960860491;-0.010995574295520782;0.0036651913542300463
01:00:0A:00:00:00:00;1726272196;14/09/24;00:03:16;1.01;0.016;0.132;0.00855211354792118;-0.010995574295520782;0.0012217304902151227
01:00:0A:00:00:00:00;1726272197;14/09/24;00:03:17;1.01;0.017;0.132;0.00855211354792118;-0.009773843921720982;0.004886921960860491
01:00:0A:00:00:00:00;1726272198;14/09/24;00:03:18;1.009;0.015;0.133;0.00855211354792118;-0.012217304669320583;0.004886921960860491
01:00:0A:00:00:00:00;1726272199;14/09/24;00:03:19;1.01;0.016;0.132;0.0073303827084600925;-0.012217304669320583;0.0012217304902151227
01:00:0A:00:00:00:00;1726272200;14/09/24;00:03:20;1.011;0.017;0.132;0.0073303827084600925;-0.010995574295520782;0.0024434609804302454
01:00:0A:00:00:00:00;1726272201;14/09/24;00:03:21;1.01;0.017;0.131;0.012217304669320583;-0.010995574295520782;0.0036651913542300463
01:00:0A:00:00:00:00;1726272202;14/09/24;00:03:22;1.009;0.015;0.133;0.009773843921720982;-0.009773843921720982;0.006108652334660292
01:00:0A:00:00:00:00;1726272203;14/09/24;00:03:23;1.01;0.015;0.132;0.012217304669320583;-0.012217304669320583;0.0012217304902151227
01:00:0A:00:00:00:00;1726272204;14/09/24;00:03:24;1.01;0.017;0.132;0.00855211354792118;-0.012217304669320583;0.0024434609804302454
01:00:0A:00:00:00:00;1726272205;14/09/24;00:03:25;1.009;0.017;0.131;0.013439035043120384;-0.010995574295520782;0.0036651913542300463
01:00:0A:00:00:00:00;1726272206;14/09/24;00:03:26;1.011;0.016;0.132;0.013439035043120384;-0.009773843921720982;0.004886921960860491
01:00:0A:00:00:00:00;1726272207;14/09/24;00:03:27;1.01;0.017;0.133;0.013439035043120384;-0.010995574295520782;0.0036651913542300463
01:00:0A:00:00:00:00;1726272208;14/09/24;00:03:28;1.01;0.016;0.133;0.013439035043120384;-0.012217304669320583;0.0024434609804302454
01:00:0A:00:00:00:00;1726272209;14/09/24;00:03:29;1.011;0.015;0.132;0.012217304669320583;-0.010995574295520782;0.0036651913542300463
01:00:0A:00:00:00:00;1726272210;14/09/24;00:03:30;1.009;0.018;0.131;0.014660765416920185;-0.010995574295520782;0.0036651913542300463
01:00:0A:00:00:00:00;1726272211;14/09/24;00:03:31;1.01;0.016;0.133;0.013439035043120384;-0.009773843921720982;0.004886921960860491
01:00:0A:00:00:00:00;1726272212;14/09/24;00:03:32;1.011;0.016;0.133;0.013439035043120384;-0.012217304669320583;0.0036651913542300463
01:00:0A:00:00:00:00;1726272213;14/09/24;00:03:33;1.01;0.017;0.132;0.012217304669320583;-0.010995574295520782;0.0036651913542300463
01:00:0A:00:00:00:00;1726272214;14/09/24;00:03:34;1.011;0.016;0.132;0.014660765416920185;-0.010995574295520782;0.0024434609804302454
01:00:0A:00:00:00:00;1726272215;14/09/24;00:03:35;1.01;0.015;0.133;0.013439035043120384;-0.009773843921720982;0.004886921960860491
01:00:0A:00:00:00:00;1726272216;14/09/24;00:03:36;1.011;0.014;0.133;0.013439035043120384;-0.010995574295520782;0.0036651913542300463
01:00:0A:00:00:00:00;1726272217;14/09/24;00:03:37;1.01;0.015;0.133;0.013439035043120384;-0.012217304669320583;0.0024434609804302454
01:00:0A:00:00:00:00;1726272218;14/09/24;00:03:38;1.01;0.016;0.133;0.012217304669320583;-0.010995574295520782;0.0036651913542300463
01:00:0A:00:00:00:00;1726272219;14/09/24;00:03:39;1.01;0.016;0.132;0.013439035043120384;-0.010995574295520782;0.0036651913542300463
01:00:0A:00:00:00:00;1726272220;14/09/24;00:03:40;1.01;0.016;0.133;0.013439035043120384;-0.010995574295520782;0.0036651913542300463
01:00:0A:00:00:00:00;1726272221;14/09/24;00:03:41;1.01;0.017;0.132;0.012217304669320583;-0.010995574295520782;0.0036651913542300463
01:00:0A:00:00:00:00;1726272222;14/09/24;00:03:42;1.009;0.016;0.133;0.012217304669320583;-0.010995574295520782;0.0036651913542300463
01:00:0A:00:00:00:00;1726272223;14/09/24;00:03:43;1.01;0.016;0.132;0.012217304669320583;-0.010995574295520782;0.0036651913542300463
01:00:0A:00:00:00:00;1726272224;14/09/24;00:03:44;1.01;0.015;0.134;0.010995574295520782;-0.010995574295520782;0.0036651913542300463
01:00:0A:00:00:00:00;1726272225;14/09/24;00:03:45;1.01;0.017;0.133;0.010995574295520782;-0.010995574295520782;0.0024434609804302454
01:00:0A:00:00:00:00;1726272226;14/09/24;00:03:46;1.009;0.017;0.132;0.010995574295520782;-0.010995574295520782;0.0036651913542300463
01:00:0A:00:00:00:00;1726272227;14/09/24;00:03:47;1.011;0.016;0.133;0.010995574295520782;-0.010995574295520782;0.0036651913542300463
01:00:0A:00:00:00:00;1726272228;14/09/24;00:03:48;1.011;0.016;0.133;0.009773843921720982;-0.010995574295520782;0.0024434609804302454
01:00:0A:00:00:00:00;1726272229;14/09/24;00:03:49;1.01;0.017;0.134;0.009773843921720982;-0.010995574295520782;0.0036651913542300463
01:00:0A:00:00:00:00;1726272230;14/09/24;00:03:50;1.01;0.017;0.133;0.009773843921720982;-0.010995574295520782;0.0024434609804302454
01:00:0A:00:00:00:00;1726272231;14/09/24;00:03:51;1.01;0.016;0.133;0.009773843921720982;-0.010995574295520782;0.0024434609804302454
01:00:0A:00:00:00:00;1726272232;14/09/24;00:03:52;1.011;0.015;0.132;0.013439035043120384;-0.010995574295520782;0.0036651913542300463
01:00:0A:00:00:00:00;1726272233;14/09/24;00:03:53;1.01;0.016;0.132;0.00855211354792118;-0.012217304669320583;0.0012217304902151227
01:00:0A:00:00:00:00;1726272234;14/09/24;00:03:54;1.01;0.016;0.132;0.0012217304902151227;-0.009773843921720982;0.0036651913542300463
01:00:0A:00:00:00:00;1726272235;14/09/24;00:03:55;1.01;0.015;0.134;0.0024434609804302454;-0.010995574295520782;0.0036651913542300463
01:00:0A:00:00:00:00;1726272236;14/09/24;00:03:56;1.011;0.016;0.132;0.004886921960860491;-0.012217304669320583;0.0012217304902151227
01:00:0A:00:00:00:00;1726272237;14/09/24;00:03:57;1.009;0.016;0.132;0.0024434609804302454;-0.009773843921720982;0.0036651913542300463
01:00:0A:00:00:00:00;1726272238;14/09/24;00:03:58;1.01;0.016;0.133;0.0024434609804302454;-0.010995574295520782;0.0024434609804302454
01:00:0A:00:00:00:00;1726272239;14/09/24;00:03:59;1.01;0.016;0.132;0.0036651913542300463;-0.012217304669320583;0.0012217304902151227
01:00:0A:00:00:00:00;1726272240;14/09/24;00:04:00;1.01;0.017;0.132;0.0024434609804302454;-0.010995574295520782;0.0024434609804302454
01:00:0A:00:00:00:00;1726272241;14/09/24;00:04:01;1.01;0.016;0.132;0.0024434609804302454;-0.010995574295520782;0.0024434609804302454
01:00:0A:00:00:00:00;1726272242;14/09/24;00:04:02;1.011;0.016;0.131;0.0036651913542300463;-0.012217304669320583;0.0012217304902151227
01:00:0A:00:00:00:00;1726272243;14/09/24;00:04:03;1.011;0.016;0.132;0.0024434609804302454;-0.010995574295520782;0.0024434609804302454
01:00:0A:00:00:00:00;1726272244;14/09/24;00:04:04;1.01;0.016;0.134;0.0024434609804302454;-0.010995574295520782;0.0024434609804302454
01:00:0A:00:00:00:00;1726272245;14/09/24;00:04:05;1.011;0.016;0.132;0.0036651913542300463;-0.012217304669320583;0.0012217304902151227
01:00:0A:00:00:00:00;1726272246;14/09/24;00:04:06;1.009;0.015;0.132;0.0012217304902151227;-0.010995574295520782;0.0024434609804302454
01:00:0A:00:00:00:00;1726272247;14/09/24;00:04:07;1.011;0.016;0.133;0.0024434609804302454;-0.010995574295520782;0.0024434609804302454
01:00:0A:00:00:00:00;1726272248;14/09/24;00:04:08;1.01;0.016;0.133;0.0036651913542300463;-0.012217304669320583;0.0012217304902151227
01:00:0A:00:00:00:00;1726272249;14/09/24;00:04:09;1.01;0.015;0.132;0.0024434609804302454;-0.010995574295520782;0.0024434609804302454
01:00:0A:00:00:00:00;1726272250;14/09/24;00:04:10;1.01;0.016;0.133;0.0024434609804302454;-0.010995574295520782;0.0024434609804302454
01:00:0A:00:00:00:00;1726272251;14/09/24;00:04:11;1.01;0.016;0.133;0.0036651913542300463;-0.012217304669320583;0.0024434609804302454
01:00:0A:00:00:00:00;1726272252;14/09/24;00:04:12;1.009;0.016;0.133;0.0024434609804302454;-0.010995574295520782;0.0024434609804302454
01:00:0A:00:00:00:00;1726272253;14/09/24;00:04:13;1.01;0.016;0.132;0.0024434609804302454;-0.010995574295520782;0.0024434609804302454
01:00:0A:00:00:00:00;1726272254;14/09/24;00:04:14;1.01;0.016;0.132;0.0036651913542300463;-0.012217304669320583;0.0024434609804302454
01:00:0A:00:00:00:00;1726272255;14/09/24;00:04:15;1.01;0.016;0.132;0.0024434609804302454;-0.010995574295520782;0.0024434609804302454
01:00:0A:00:00:00:00;1726272256;14/09/24;00:04:16;1.011;0.015;0.133;0.0024434609804302454;-0.010995574295520782;0.0024434609804302454
01:00:0A:00:00:00:00;1726272257;14/09/24;00:04:17;1.01;0.017;0.133;0.0036651913542300463;-0.010995574295520782;0.0024434609804302454
01:00:0A:00:00:00:00;1726272258;14/09/24;00:04:18;1.01;0.016;0.133;0.0024434609804302454;-0.010995574295520782;0.0024434609804302454
01:00:0A:00:00:00:00;1726272259;14/09/24;00:04:19;1.011;0.015;0.133;0.0024434609804302454;-0.010995574295520782;0.0024434609804302454
01:00:0A:00:00:00:00;1726272260;14/09/24;00:04:20;1.01;0.015;0.132;0.0024434609804302454;-0.010995574295520782;0.0024434609804302454
01:00:0A:00:00:00:00;1726272261;14/09/24;00:04:21;1.01;0.016;0.134;0.0024434609804302454;-0.010995574295520782;0.0024434609804302454
01:00:0A:00:00:00:00;1726272262;14/09/24;00:04:22;1.01;0.016;0.133;0.0024434609804302454;-0.010995574295520782;0.0024434609804302454
01:00:0A:00:00:00:00;1726272263;14/09/24;00:04:23;1.01;0.016;0.133;0.0024434609804302454;-0.012217304669320583;0.0024434609804302454
01:00:0A:00:00:00:00;1726272264;14/09/24;00:04:24;1.01;0.015;0.133;0.0012217304902151227;-0.010995574295520782;0.0024434609804302454
01:00:0A:00:00:00:00;1726272265;14/09/24;00:04:25;1.01;0.017;0.133;0.0024434609804302454;-0.010995574295520782;0.0024434609804302454
01:00:0A:00:00:00:00;1726272266;14/09/24;00:04:26;1.011;0.017;0.133;0.0024434609804302454;-0.010995574295520782;0.0024434609804302454
01:00:0A:00:00:00:00;1726272267;14/09/24;00:04:27;1.01;0.016;0.133;0.0012217304902151227;-0.010995574295520782;0.0024434609804302454
01:00:0A:00:00:00:00;1726272268;14/09/24;00:04:28;1.01;0.015;0.133;0.0012217304902151227;-0.010995574295520782;0.0024434609804302454
01:00:0A:00:00:00:00;1726272269;14/09/24;00:04:29;1.01;0.015;0.133;0.0012217304902151227;-0.010995574295520782;0.0024434609804302454
01:00:0A:00:00:00:00;1726272270;14/09/24;00:04:30;1.011;0.016;0.133;0.0012217304902151227;-0.010995574295520782;0.0024434609804302454
01:00:0A:00:00:00:00;1726272271;14/09/24;00:04:31;1.01;0.015;0.133;0.0012217304902151227;-0.010995574295520782;0.0024434609804302454
01:00:0A:00:00:00:00;1726272272;14/09/24;00:04:32;1.011;0.016;0.132;0.0012217304902151227;-0.012217304669320583;0.0024434609804302454
01:00:0A:00:00:00:00;1726272273;14/09/24;00:04:33;1.009;0.016;0.132;0.0012217304902151227;-0.012217304669320583;0.0024434609804302454
01:00:0A:00:00:00:00;1726272274;14/09/24;00:04:34;1.01;0.016;0.133;0.0012217304902151227;-0.012217304669320583;0.0024434609804302454
01:00:0A:00:00:00:00;1726272275;14/09/24;00:04:35;1.009;0.016;0.133;0.0012217304902151227;-0.010995574295520782;0.0024434609804302454
01:00:0A:00:00:00:00;1726272276;14/09/24;00:04:36;1.009;0.016;0.133;0.0012217304902151227;-0.012217304669320583;0.0024434609804302454
01:00:0A:00:00:00:00;1726272277;14/09/24;00:04:37;1.01;0.016;0.134;0.0012217304902151227;-0.010995574295520782;0.0024434609804302454
01:00:0A:00:00:00:00;1726272278;14/09/24;00:04:38;1.01;0.016;0.132;0.0012217304902151227;-0.012217304669320583;0.0024434609804302454
01:00:0A:00:00:00:00;1726272279;14/09/24;00:04:39;1.011;0.016;0.132;0.0012217304902151227;-0.010995574295520782;0.0024434609804302454
01:00:0A:00:00:00:00;1726272280;14/09/24;00:04:40;1.01;0.016;0.133;0.0012217304902151227;-0.010995574295520782;0.0024434609804302454
01:00:0A:00:00:00:00;1726272281;14/09/24;00:04:41;1.01;0.015;0.132;0.0012217304902151227;-0.012217304669320583;0.0024434609804302454
01:00:0A:00:00:00:00;1726272282;14/09/24;00:04:42;1.011;0.016;0.132;0.0012217304902151227;-0.010995574295520782;0.0024434609804302454
01:00:0A:00:00:00:00;1726272283;14/09/24;00:04:43;1.01;0.016;0.132;0.0012217304902151227;-0.012217304669320583;0.0024434609804302454
01:00:0A:00:00:00:00;1726272284;14/09/24;00:04:44;1.011;0.016;0.133;0.0012217304902151227;-0.010995574295520782;0.0024434609804302454
01:00:0A:00:00:00:00;1726272285;14/09/24;00:04:45;1.01;0.016;0.132;0.0012217304902151227;-0.010995574295520782;0.0024434609804302454
01:00:0A:00:00:00:00;1726272286;14/09/24;00:04:46;1.01;0.016;0.134;0.0012217304902151227;-0.012217304669320583;0.0024434609804302454
01:00:0A:00:00:00:00;1726272287;14/09/24;00:04:47;1.01;0.017;0.133;0.0012217304902151227;-0.010995574295520782;0.0024434609804302454
01:00:0A:00:00:00:00;1726272288;14/09/24;00:04:48;1.011;0.016;0.132;0.0012217304902151227;-0.010995574295520782;0.0024434609804302454
01:00:0A:00:00:00:00;1726272289;14/09/24;00:04:49;1.01;0.016;0.133;0.0012217304902151227;-0.010995574295520782;0.0024434609804302454
01:00:0A:00:00:00:00;1726272290;14/09/24;00:04:50;1.01;0.016;0.133;0.0012217304902151227;-0.010995574295520782;0.0024434609804302454
01:00:0A:00:00:00:00;1726272291;14/09/24;00:04:51;1.011;0.016;0.133;0.0012217304902151227;-0.010995574295520782;0.0024434609804302454
01:00:0A:00:00:00:00;1726272292;14/09/24;00:04:52;1.009;0.015;0.132;0.0012217304902151227;-0.010995574295520782;0.0024434609804302454
01:00:0A:00:00:00:00;1726272293;14/09/24;00:04:53;1.011;0.017;0.132;0.0012217304902151227;-0.010995574295520782;0.0024434609804302454
01:00:0A:00:00:00:00;1726272294;14/09/24;00:04:54;1.01;0.015;0.133;0.0012217304902151227;-0.012217304669320583;0.0024434609804302454
01:00:0A:00:00:00:00;1726272295;14/09/24;00:04:55;1.01;0.017;0.133;0.0012217304902151227;-0.012217304669320583;0.0024434609804302454
01:00:0A:00:00:00:00;1726272296;14/09/24;00:04:56;1.01;0.018;0.132;0.0012217304902151227;-0.012217304669320583;0.0024434609804302454
01:00:0A:00:00:00:00;1726272297;14/09/24;00:04:57;1.011;0.016;0.132;0.0012217304902151227;-0.010995574295520782;0.0024434609804302454
01:00:0A:00:00:00:00;1726272298;14/09/24;00:04:58;1.01;0.017;0.133;0.0012217304902151227;-0.010995574295520782;0.0024434609804302454
01:00:0A:00:00:00:00;1726272299;14/09/24;00:04:59;1.01;0.016;0.133;0.0012217304902151227;-0.010995574295520782;0.0024434609804302454
01:00:0A:00:00:00:00;1726272300;14/09/24;00:05:00;1.011;0.019;0.133;0.0012217304902151227;-0.010995574295520782;0.0012217304902151227
01:00:0A:00:00:00:00;1726272301;14/09/24;00:05:01;1.01;0.018;0.133;0.0;-0.012217304669320583;0.0024434609804302454
01:00:0A:00:00:00:00;1726272302;14/09/24;00:05:02;1.01;0.017;0.133;-0.0012217304902151227;-0.012217304669320583;0.0024434609804302454
01:00:0A:00:00:00:00;1726272303;14/09/24;00:05:03;1.01;0.017;0.132;-0.0012217304902151227;-0.012217304669320583;0.0024434609804302454
01:00:0A:00:00:00:00;1726272304;14/09/24;00:05:04;1.01;0.015;0.133;-0.0012217304902151227;-0.010995574295520782;0.0036651913542300463
01:00:0A:00:00:00:00;1726272305;14/09/24;00:05:05;1.01;0.016;0.134;0.0;-0.012217304669320583;0.0
01:00:0A:00:00:00:00;1726272306;14/09/24;00:05:06;1.01;0.017;0.132;-0.0012217304902151227;-0.012217304669320583;0.0024434609804302454
01:00:0A:00:00:00:00;1726272307;14/09/24;00:05:07;1.011;0.016;0.133;-0.0012217304902151227;-0.010995574295520782;0.0024434609804302454
01:00:0A:00:00:00:00;1726272308;14/09/24;00:05:08;1.011;0.015;0.132;0.0;-0.010995574295520782;0.0
01:00:0A:00:00:00:00;1726272309;14/09/24;00:05:09;1.011;0.017;0.133;-0.0012217304902151227;-0.012217304669320583;0.0024434609804302454
01:00:0A:00:00:00:00;1726272310;14/09/24;00:05:10;1.011;0.016;0.132;0.0;-0.012217304669320583;0.0024434609804302454
01:00:0A:00:00:00:00;1726272311;14/09/24;00:05:11;1.01;0.016;0.131;0.0;-0.012217304669320583;0.0012217304902151227
01:00:0A:00:00:00:00;1726272312;14/09/24;00:05:12;1.01;0.015;0.132;-0.0012217304902151227;-0.012217304669320583;0.0024434609804302454
01:00:0A:00:00:00:00;1726272313;14/09/24;00:05:13;1.011;0.015;0.133;0.0;-0.010995574295520782;0.0024434609804302454
01:00:0A:00:00:00:00;1726272314;14/09/24;00:05:14;1.011;0.017;0.133;0.0;-0.012217304669320583;0.0012217304902151227
01:00:0A:00:00:00:00;1726272315;14/09/24;00:05:15;1.01;0.016;0.133;-0.0012217304902151227;-0.012217304669320583;0.0024434609804302454
01:00:0A:00:00:00:00;1726272316;14/09/24;00:05:16;1.01;0.015;0.132;0.0;-0.010995574295520782;0.0024434609804302454
01:00:0A:00:00:00:00;1726272317;14/09/24;00:05:17;1.01;0.016;0.133;0.0;-0.010995574295520782;0.0012217304902151227
01:00:0A:00:00:00:00;1726272318;14/09/24;00:05:18;1.009;0.017;0.133;-0.0012217304902151227;-0.010995574295520782;0.0024434609804302454
01:00:0A:00:00:00:00;1726272319;14/09/24;00:05:19;1.009;0.015;0.132;0.0;-0.010995574295520782;0.0012217304902151227
01:00:0A:00:00:00:00;1726272320;14/09/24;00:05:20;1.01;0.017;0.132;0.0;-0.010995574295520782;0.0012217304902151227
01:00:0A:00:00:00:00;1726272321;14/09/24;00:05:21;1.01;0.016;0.132;0.0;-0.012217304669320583;0.0024434609804302454
01:00:0A:00:00:00:00;1726272322;14/09/24;00:05:22;1.01;0.015;0.132;0.0;-0.012217304669320583;0.0012217304902151227
01:00:0A:00:00:00:00;1726272323;14/09/24;00:05:23;1.011;0.016;0.133;0.0;-0.010995574295520782;0.0012217304902151227
01:00:0A:00:00:00:00;1726272324;14/09/24;00:05:24;1.01;0.017;0.132;0.0;-0.010995574295520782;0.0024434609804302454
01:00:0A:00:00:00:00;1726272325;14/09/24;00:05:25;1.01;0.016;0.133;0.0;-0.010995574295520782;0.0024434609804302454
01:00:0A:00:00:00:00;1726272326;14/09/24;00:05:26;1.009;0.015;0.133;0.0;-0.010995574295520782;0.0024434609804302454
01:00:0A:00:00:00:00;1726272327;14/09/24;00:05:27;1.01;0.017;0.133;0.0;-0.012217304669320583;0.0024434609804302454
01:00:0A:00:00:00:00;1726272328;14/09/24;00:05:28;1.009;0.016;0.133;0.0;-0.010995574295520782;0.0024434609804302454
01:00:0A:00:00:00:00;1726272329;14/09/24;00:05:29;1.01;0.017;0.132;0.0012217304902151227;-0.010995574295520782;0.0012217304902151227
01:00:0A:00:00:00:00;1726272330;14/09/24;00:05:30;1.01;0.016;0.132;0.0;-0.012217304669320583;0.0024434609804302454
01:00:0A:00:00:00:00;1726272331;14/09/24;00:05:31;1.01;0.016;0.132;0.0012217304902151227;-0.010995574295520782;0.0024434609804302454
01:00:0A:00:00:00:00;1726272332;14/09/24;00:05:32;1.011;0.015;0.133;0.0;-0.010995574295520782;0.0012217304902151227
01:00:0A:00:00:00:00;1726272333;14/09/24;00:05:33;1.01;0.015;0.132;0.0012217304902151227;-0.010995574295520782;0.0024434609804302454
01:00:0A:00:00:00:00;1726272334;14/09/24;00:05:34;1.009;0.017;0.132;0.0024434609804302454;-0.010995574295520782;0.0012217304902151227
01:00:0A:00:00:00:00;1726272335;14/09/24;00:05:35;1.01;0.016;0.132;0.0012217304902151227;-0.012217304669320583;0.0024434609804302454
01:00:0A:00:00:00:00;1726272336;14/09/24;00:05:36;1.011;0.016;0.133;0.0024434609804302454;-0.010995574295520782;0.0024434609804302454
01:00:0A:00:00:00:00;1726272337;14/09/24;00:05:37;1.01;0.017;0.132;0.0024434609804302454;-0.010995574295520782;0.0012217304902151227
01:00:0A:00:00:00:00;1726272338;14/09/24;00:05:38;1.01;0.015;0.132;0.0024434609804302454;-0.010995574295520782;0.0024434609804302454
01:00:0A:00:00:00:00;1726272339;14/09/24;00:05:39;1.011;0.017;0.133;0.0036651913542300463;-0.010995574295520782;0.0024434609804302454
01:00:0A:00:00:00:00;1726272340;14/09/24;00:05:40;1.01;0.017;0.132;0.0036651913542300463;-0.010995574295520782;0.0036651913542300463
01:00:0A:00:00:00:00;1726272341;14/09/24;00:05:41;1.011;0.016;0.132;0.0036651913542300463;-0.010995574295520782;0.0012217304902151227
01:00:0A:00:00:00:00;1726272342;14/09/24;00:05:42;1.01;0.016;0.133;0.0024434609804302454;-0.012217304669320583;0.0024434609804302454
01:00:0A:00:00:00:00;1726272343;14/09/24;00:05:43;1.011;0.015;0.132;0.0024434609804302454;-0.012217304669320583;0.0024434609804302454
01:00:0A:00:00:00:00;1726272344;14/09/24;00:05:44;1.009;0.016;0.133;0.0036651913542300463;-0.010995574295520782;0.0024434609804302454
01:00:0A:00:00:00:00;1726272345;14/09/24;00:05:45;1.009;0.016;0.133;0.0024434609804302454;-0.010995574295520782;0.0024434609804302454
01:00:0A:00:00:00:00;1726272346;14/09/24;00:05:46;1.01;0.015;0.132;0.0024434609804302454;-0.010995574295520782;0.0024434609804302454
01:00:0A:00:00:00:00;1726272347;14/09/24;00:05:47;1.01;0.016;0.133;0.0024434609804302454;-0.010995574295520782;0.0024434609804302454
01:00:0A:00:00:00:00;1726272348;14/09/24;00:05:48;1.01;0.016;0.133;0.0024434609804302454;-0.010995574295520782;0.0024434609804302454
01:00:0A:00:00:00:00;1726272349;14/09/24;00:05:49;1.01;0.016;0.133;0.0024434609804302454;-0.010995574295520782;0.0024434609804302454
01:00:0A:00:00:00:00;1726272350;14/09/24;00:05:50;1.01;0.016;0.133;0.0024434609804302454;-0.010995574295520782;0.0024434609804302454
01:00:0A:00:00:00:00;1726272351;14/09/24;00:05:51;1.009;0.016;0.132;0.0024434609804302454;-0.012217304669320583;0.0024434609804302454
01:00:0A:00:00:00:00;1726272352;14/09/24;00:05:52;1.01;0.016;0.133;0.0024434609804302454;-0.012217304669320583;0.0024434609804302454
01:00:0A:00:00:00:00;1726272353;14/09/24;00:05:53;1.009;0.017;0.133;0.0024434609804302454;-0.010995574295520782;0.0024434609804302454
01:00:0A:00:00:00:00;1726272354;14/09/24;00:05:54;1.009;0.015;0.134;0.0012217304902151227;-0.010995574295520782;0.0024434609804302454
01:00:0A:00:00:00:00;1726272355;14/09/24;00:05:55;1.011;0.016;0.133;0.0012217304902151227;-0.010995574295520782;0.0024434609804302454
01:00:0A:00:00:00:00;1726272356;14/09/24;00:05:56;1.009;0.016;0.132;0.0012217304902151227;-0.010995574295520782;0.0012217304902151227
01:00:0A:00:00:00:00;1726272357;14/09/24;00:05:57;1.01;0.016;0.133;0.0012217304902151227;-0.010995574295520782;0.0024434609804302454
01:00:0A:00:00:00:00;1726272358;14/09/24;00:05:58;1.01;0.016;0.133;0.0012217304902151227;-0.010995574295520782;0.0012217304902151227
01:00:0A:00:00:00:00;1726272359;14/09/24;00:05:59;1.009;0.017;0.133;0.0012217304902151227;-0.012217304669320583;0.0024434609804302454
01:00:0A:00:00:00:00;1726272360;14/09/24;00:06:00;1.01;0.016;0.132;0.0;-0.012217304669320583;0.0036651913542300463
01:00:0A:00:00:00:00;1726272361;14/09/24;00:06:01;1.01;0.016;0.132;0.0012217304902151227;-0.010995574295520782;0.0
01:00:0A:00:00:00:00;1726272362;14/09/24;00:06:02;1.011;0.016;0.133;0.0;-0.010995574295520782;0.0024434609804302454
01:00:0A:00:00:00:00;1726272363;14/09/24;00:06:03;1.01;0.016;0.132;0.0;-0.012217304669320583;0.0036651913542300463
01:00:0A:00:00:00:00;1726272364;14/09/24;00:06:04;1.01;0.016;0.132;0.0012217304902151227;-0.010995574295520782;0.0012217304902151227
01:00:0A:00:00:00:00;1726272365;14/09/24;00:06:05;1.01;0.016;0.134;0.0;-0.010995574295520782;0.0024434609804302454
01:00:0A:00:00:00:00;1726272366;14/09/24;00:06:06;1.009;0.015;0.132;0.0;-0.012217304669320583;0.0036651913542300463
01:00:0A:00:00:00:00;1726272367;14/09/24;00:06:07;1.01;0.016;0.132;0.0012217304902151227;-0.010995574295520782;0.0012217304902151227
01:00:0A:00:00:00:00;1726272368;14/09/24;00:06:08;1.01;0.016;0.134;0.0;-0.010995574295520782;0.0024434609804302454
01:00:0A:00:00:00:00;1726272369;14/09/24;00:06:09;1.01;0.017;0.132;0.0;-0.012217304669320583;0.0024434609804302454
01:00:0A:00:00:00:00;1726272370;14/09/24;00:06:10;1.01;0.016;0.132;0.0012217304902151227;-0.010995574295520782;0.0012217304902151227
01:00:0A:00:00:00:00;1726272371;14/09/24;00:06:11;1.009;0.017;0.133;0.0012217304902151227;-0.010995574295520782;0.0012217304902151227
01:00:0A:00:00:00:00;1726272372;14/09/24;00:06:12;1.009;0.018;0.134;0.0012217304902151227;-0.010995574295520782;0.0024434609804302454
01:00:0A:00:00:00:00;1726272373;14/09/24;00:06:13;1.01;0.016;0.133;0.0;-0.013439035043120384;0.0036651913542300463
01:00:0A:00:00:00:00;1726272374;14/09/24;00:06:14;1.009;0.015;0.133;0.0012217304902151227;-0.010995574295520782;0.0012217304902151227
01:00:0A:00:00:00:00;1726272375;14/09/24;00:06:15;1.01;0.016;0.133;0.0012217304902151227;-0.009773843921720982;0.0012217304902151227
01:00:0A:00:00:00:00;1726272376;14/09/24;00:06:16;1.009;0.016;0.133;0.0;-0.012217304669320583;0.0036651913542300463
01:00:0A:00:00:00:00;1726272377;14/09/24;00:06:17;1.01;0.015;0.131;0.0;-0.010995574295520782;0.0012217304902151227
01:00:0A:00:00:00:00;1726272378;14/09/24;00:06:18;1.009;0.017;0.133;0.0;-0.010995574295520782;0.0012217304902151227
01:00:0A:00:00:00:00;1726272379;14/09/24;00:06:19;1.009;0.016;0.133;0.0;-0.012217304669320583;0.0024434609804302454
01:00:0A:00:00:00:00;1726272380;14/09/24;00:06:20;1.011;0.016;0.133;0.0;-0.010995574295520782;0.0024434609804302454
01:00:0A:00:00:00:00;1726272381;14/09/24;00:06:21;1.011;0.017;0.133;0.0;-0.009773843921720982;0.0012217304902151227
01:00:0A:00:00:00:00;1726272382;14/09/24;00:06:22;1.01;0.016;0.132;0.0;-0.012217304669320583;0.0036651913542300463
01:00:0A:00:00:00:00;1726272383;14/09/24;00:06:23;1.01;0.016;0.133;0.0;-0.010995574295520782;0.0024434609804302454
01:00:0A:00:00:00:00;1726272384;14/09/24;00:06:24;1.01;0.017;0.133;0.0;-0.010995574295520782;0.0012217304902151227
01:00:0A:00:00:00:00;1726272385;14/09/24;00:06:25;1.009;0.016;0.131;0.0;-0.012217304669320583;0.0024434609804302454
01:00:0A:00:00:00:00;1726272386;14/09/24;00:06:26;1.009;0.015;0.133;0.0;-0.010995574295520782;0.0024434609804302454
01:00:0A:00:00:00:00;1726272387;14/09/24;00:06:27;1.01;0.016;0.133;0.0;-0.010995574295520782;0.0012217304902151227
01:00:0A:00:00:00:00;1726272388;14/09/24;00:06:28;1.009;0.017;0.133;0.0;-0.010995574295520782;0.0024434609804302454
01:00:0A:00:00:00:00;1726272389;14/09/24;00:06:29;1.009;0.017;0.133;0.0;-0.010995574295520782;0.0012217304902151227
01:00:0A:00:00:00:00;1726272390;14/09/24;00:06:30;1.009;0.017;0.134;0.0;-0.010995574295520782;0.0012217304902151227
01:00:0A:00:00:00:00;1726272391;14/09/24;00:06:31;1.01;0.016;0.133;0.0;-0.013439035043120384;0.0036651913542300463
01:00:0A:00:00:00:00;1726272392;14/09/24;00:06:32;1.009;0.015;0.133;0.0;-0.010995574295520782;0.0024434609804302454
01:00:0A:00:00:00:00;1726272393;14/09/24;00:06:33;1.01;0.017;0.133;0.0;-0.009773843921720982;0.0012217304902151227
01:00:0A:00:00:00:00;1726272394;14/09/24;00:06:34;1.01;0.016;0.133;0.0;-0.012217304669320583;0.0036651913542300463
01:00:0A:00:00:00:00;1726272395;14/09/24;00:06:35;1.01;0.015;0.131;0.0;-0.010995574295520782;0.0024434609804302454
01:00:0A:00:00:00:00;1726272396;14/09/24;00:06:36;1.01;0.016;0.133;0.0;-0.010995574295520782;0.0012217304902151227
01:00:0A:00:00:00:00;1726272397;14/09/24;00:06:37;1.01;0.017;0.134;-0.0012217304902151227;-0.012217304669320583;0.0024434609804302454
01:00:0A:00:00:00:00;1726272398;14/09/24;00:06:38;1.011;0.016;0.133;0.0;-0.010995574295520782;0.0024434609804302454
01:00:0A:00:00:00:00;1726272399;14/09/24;00:06:39;1.01;0.016;0.132;0.0;-0.010995574295520782;0.0012217304902151227
01:00:0A:00:00:00:00;1726272400;14/09/24;00:06:40;0.981;0.04;0.148;-0.009773843921720982;-0.00855211354792118;-0.15271630883216858
01:00:0A:00:00:00:00;1726272401;14/09/24;00:06:41;0.954;-0.172;-0.097;-0.12095131725072861;0.15515977144241333;0.3701843321323395
01:00:0A:00:00:00:00;1726272402;14/09/24;00:06:42;0.859;-0.665;0.125;0.7440338730812073;0.2431243658065796;-0.5619960427284241
01:00:0A:00:00:00:00;1726272403;14/09/24;00:06:43;0.854;0.238;0.019;0.1514945775270462;1.655444860458374;0.2638937830924988
01:00:0A:00:00:00:00;1726272404;14/09/24;00:06:44;0.954;-0.136;-0.009;-0.27488934993743896;-1.29381263256073;0.5803219676017761
01:00:0A:00:00:00:00;1726272405;14/09/24;00:06:45;1.031;-0.095;0.053;-0.25534167885780334;1.3720033168792725;-0.7965682148933411
01:00:0A:00:00:00:00;1726272406;14/09/24;00:06:46;0.913;0.21;0.055;-1.242499828338623;-0.3445279896259308;0.4605923891067505
01:00:0A:00:00:00:00;1726272407;14/09/24;00:06:47;0.896;0.423;0.207;-0.6243042349815369;-0.49724429845809937;-1.1472049951553345
01:00:0A:00:00:00:00;1726272408;14/09/24;00:06:48;1.019;-0.139;-0.216;-1.301142930984497;-0.6609562039375305;0.6230825185775757
01:00:0A:00:00:00:00;1726272409;14/09/24;00:06:49;0.946;0.389;-0.348;-1.547932505607605;0.6059783101081848;0.5827654600143433
01:00:0A:00:00:00:00;1726272410;14/09/24;00:06:50;0.712;-0.656;-0.104;-0.6646214127540588;-0.11728612333536148;0.27977627515792847
01:00:0A:00:00:00:00;1726272411;14/09/24;00:06:51;0.946;0.406;0.249;-0.039095375686883926;0.16004669666290283;-1.2571606636047363
01:00:0A:00:00:00:00;1726272412;14/09/24;00:06:52;1.003;0.175;0.18;-1.0030406713485718;-0.7806857824325562;1.0189231634140015
01:00:0A:00:00:00:00;1726272413;14/09/24;00:06:53;0.828;-0.493;0.004;-0.5925393104553223;1.3781119585037231;-0.4752531349658966
01:00:0A:00:00:00:00;1726272414;14/09/24;00:06:54;0.927;0.125;0.41;-0.45326200127601624;-0.19425514340400696;-0.8161159753799438
01:00:0A:00:00:00:00;1726272415;14/09/24;00:06:55;0.806;0.422;0.459;-0.911410927772522;-1.6456708908081055;0.15393804013729095
01:00:0A:00:00:00:00;1726272416;14/09/24;00:06:56;0.95;0.033;-0.218;-1.6835445165634155;0.48380526900291443;0.7281513810157776
01:00:0A:00:00:00:00;1726272417;14/09/24;00:06:57;0.997;-0.196;0.055;-1.4172073602676392;-0.0659734457731247;0.012217304669320583
01:00:0A:00:00:00:00;1726272418;14/09/24;00:06:58;0.921;0.298;-0.043;-1.4819591045379639;-0.29565879702568054;-0.21991148591041565
01:00:0A:00:00:00:00;1726272419;14/09/24;00:06:59;0.984;0.036;-0.131;-1.3341296911239624;-0.4141666293144226;0.09285151958465576
01:00:0A:00:00:00:00;1726272420;14/09/24;00:07:00;0.873;0.145;-0.624;-1.1838568449020386;-0.4715879559516907;0.1722639948129654
01:00:0A:00:00:00:00;1726272421;14/09/24;00:07:01;1.008;-0.013;0.138;-1.186300277709961;-0.5558874011039734;0.3836233615875244
01:00:0A:00:00:00:00;1726272422;14/09/24;00:07:02;1.009;0.154;-0.181;-1.1472049951553345;0.013439035043120384;0.006108652334660292
01:00:0A:00:00:00:00;1726272423;14/09/24;00:07:03;0.996;-0.172;-0.144;-0.7147123217582703;1.4587461948394775;-0.7574728727340698
01:00:0A:00:00:00:00;1726272424;14/09/24;00:07:04;0.862;-0.063;0.56;-0.4337143301963806;0.3286454975605011;0.3640756905078888
01:00:0A:00:00:00:00;1726272425;14/09/24;00:07:05;1.015;0.076;0.134;0.06841690838336945;-0.7733554244041443;-0.607200026512146
01:00:0A:00:00:00:00;1726272426;14/09/24;00:07:06;0.978;0.143;-0.084;-0.3640756905078888;0.4300491213798523;0.03787364438176155
01:00:0A:00:00:00:00;1726272427;14/09/24;00:07:07;0.839;0.099;0.52;-1.0445796251296997;-1.9792033433914185;-0.1869247555732727
01:00:0A:00:00:00:00;1726272428;14/09/24;00:07:08;0.903;0.274;-0.029;-1.4184291362762451;0.8210028409957886;0.24556782841682434
01:00:0A:00:00:00:00;1726272429;14/09/24;00:07:09;0.913;0.021;0.443;0.10506881773471832;-0.13439035415649414;0.13561207056045532
01:00:0A:00:00:00:00;1726272430;14/09/24;00:07:10;1.013;-0.205;0.034;0.2382374405860901;-0.27000245451927185;0.6047565937042236
01:00:0A:00:00:00:00;1726272431;14/09/24;00:07:11;0.984;-0.186;0.253;0.7709119319915771;0.080634206533432;-0.46792274713516235
01:00:0A:00:00:00:00;1726272432;14/09/24;00:07:12;0.967;0.19;0.123;0.37629297375679016;-0.42149701714515686;0.6866125464439392
01:00:0A:00:00:00:00;1726272433;14/09/24;00:07:13;0.963;-0.226;-0.032;0.3078760802745819;0.2541199326515198;0.1820378452539444
01:00:0A:00:00:00:00;1726272434;14/09/24;00:07:14;0.946;0.03;0.271;0.6120869517326355;0.6096435189247131;-0.5900958180427551
01:00:0A:00:00:00:00;1726272435;14/09/24;00:07:15;0.932;0.291;-0.011;0.06108652427792549;-1.2107348442077637;0.29565879702568054
01:00:0A:00:00:00:00;1726272436;14/09/24;00:07:16;0.899;0.311;-0.206;-0.9089674949645996;-0.2321287840604782;0.1576032191514969
01:00:0A:00:00:00:00;1726272437;14/09/24;00:07:17;1.002;0.123;0.007;-1.507615327835083;0.29077184200286865;-0.4043927788734436
01:00:0A:00:00:00:00;1726272438;14/09/24;00:07:18;0.972;0.058;0.24;-1.8289304971694946;-0.49724429845809937;0.5424482822418213
01:00:0A:00:00:00:00;1726272439;14/09/24;00:07:19;0.971;0.016;-0.048;-1.5149457454681396;0.313984751701355;-0.02076941914856434
01:00:0A:00:00:00:00;1726272440;14/09/24;00:07:20;0.835;0.187;-0.052;-1.588249683380127;0.6487389206886292;0.45204028487205505
01:00:0A:00:00:00:00;1726272441;14/09/24;00:07:21;0.895;0.224;0.151;-0.6145303845405579;0.28099802136421204;-1.888795256614685
01:00:0A:00:00:00:00;1726272442;14/09/24;00:07:22;0.864;-0.124;0.476;-0.9553932547569275;0.04398229718208313;0.3335324227809906
01:00:0A:00:00:00:00;1726272443;14/09/24;00:07:23;0.903;0.119;-0.406;-0.5216788649559021;-0.4960225820541382;-0.19303341209888458
01:00:0A:00:00:00:00;1726272444;14/09/24;00:07:24;0.835;0.415;-0.255;-1.1899654865264893;0.13072516024112701;-0.2174680233001709
01:00:0A:00:00:00:00;1726272445;14/09/24;00:07:25;0.798;0.458;0.291;-1.569923758506775;0.07696902006864548;-0.7660250067710876
01:00:0A:00:00:00:00;1726272446;14/09/24;00:07:26;0.953;0.396;-0.177;-1.3060299158096313;-0.720820963382721;-0.9175195693969727
01:00:0A:00:00:00:00;1726272447;14/09/24;00:07:27;0.955;-0.287;0.163;-1.4184291362762451;-0.3579670488834381;0.949284553527832
01:00:0A:00:00:00:00;1726272448;14/09/24;00:07:28;1.007;-0.118;0.208;-0.5253441333770752;0.5925393104553223;-0.3323107063770294
01:00:0A:00:00:00:00;1726272449;14/09/24;00:07:29;0.943;-0.069;0.227;-0.3017674386501312;-0.05619959905743599;0.08307767659425735
01:00:0A:00:00:00:00;1726272450;14/09/24;00:07:30;0.919;0.0;-0.051;-0.15882496535778046;-0.1514945775270462;-0.024434609338641167
01:00:0A:00:00:00:00;1726272451;14/09/24;00:07:31;0.94;0.255;0.124;-0.5534439086914062;0.5900958180427551;0.16004669666290283
01:00:0A:00:00:00:00;1726272452;14/09/24;00:07:32;1.082;0.11;0.149;-0.1722639948129654;-0.8637634515762329;-0.44104471802711487
01:00:0A:00:00:00:00;1726272453;14/09/24;00:07:33;0.863;0.596;0.162;-0.7024949789047241;0.6230825185775757;0.3543018400669098
01:00:0A:00:00:00:00;1726272454;14/09/24;00:07:34;0.748;0.379;0.585;-3.6896259784698486;-0.76846843957901;0.16493360698223114
01:00:0A:00:00:00:00;1726272455;14/09/24;00:07:35;0.968;0.036;-0.107;-2.2687535285949707;-0.08185594528913498;-0.739146888256073
01:00:0A:00:00:00:00;1726272456;14/09/24;00:07:36;0.887;0.047;0.52;-1.996307611465454;-0.8552113175392151;0.13439035415649414
01:00:0A:00:00:00:00;1726272457;14/09/24;00:07:37;1.018;0.063;0.282;-1.5173892974853516;-0.05253440886735916;-0.20647244155406952
01:00:0A:00:00:00:00;1726272458;14/09/24;00:07:38;1.071;0.055;0.029;-1.2596040964126587;-0.10018189996480942;-0.16493360698223114
01:00:0A:00:00:00:00;1726272459;14/09/24;00:07:39;1.042;0.169;0.245;-1.1887438297271729;-0.03176499158143997;-0.16982054710388184
01:00:0A:00:00:00:00;1726272460;14/09/24;00:07:40;1.023;-0.003;-0.152;-1.0091493129730225;-0.37629297375679016;-0.20525071024894714
01:00:0A:00:00:00:00;1726272461;14/09/24;00:07:41;0.94;-0.136;0.477;-0.9517280459403992;0.685390830039978;0.27000245451927185
01:00:0A:00:00:00:00;1726272462;14/09/24;00:07:42;1.171;-0.326;0.01;-0.4043927788734436;-0.44226640462875366;1.843591332435608
01:00:0A:00:00:00:00;1726272463;14/09/24;00:07:43;0.959;-0.145;0.238;0.47280970215797424;0.36651912331581116;-0.9663888216018677
01:00:0A:00:00:00:00;1726272464;14/09/24;00:07:44;1.022;-0.144;0.124;-0.5241223573684692;0.1820378452539444;-0.7892378568649292
01:00:0A:00:00:00:00;1726272465;14/09/24;00:07:45;0.884;-0.181;0.609;-1.8472564220428467;-0.18081611394882202;-1.0910052061080933
01:00:0A:00:00:00:00;1726272466;14/09/24;00:07:46;0.929;-0.483;0.198;-1.4086552858352661;0.19303341209888458;0.7635815143585205
01:00:0A:00:00:00:00;1726272467;14/09/24;00:07:47;0.761;0.374;0.601;-0.7916813492774963;0.9969320893287659;-1.224173903465271
01:00:0A:00:00:00:00;1726272468;14/09/24;00:07:48;0.82;0.283;0.621;-1.0421360731124878;-1.0433577299118042;-0.5045746564865112
01:00:0A:00:00:00:00;1726272469;14/09/24;00:07:49;0.882;0.109;0.557;-1.8020524978637695;0.9382889866828918;-0.44104471802711487
01:00:0A:00:00:00:00;1726272470;14/09/24;00:07:50;1.024;0.047;-0.169;-1.57481050491333;0.11850785464048386;-0.01710422709584236
01:00:0A:00:00:00:00;1726272471;14/09/24;00:07:51;0.66;-0.091;0.989;0.10018189996480942;0.959058403968811;0.17348572611808777
01:00:0A:00:00:00:00;1726272472;14/09/24;00:07:52;0.741;-0.81;0.128;-0.2919935882091522;0.4337143301963806;0.2919935882091522
01:00:0A:00:00:00:00;1726272473;14/09/24;00:07:53;0.846;-0.099;0.647;0.02321287989616394;0.3738495111465454;-0.7855727076530457
01:00:0A:00:00:00:00;1726272474;14/09/24;00:07:54;1.0;0.041;-0.206;-1.0543533563613892;-0.872315526008606;0.39095374941825867
01:00:0A:00:00:00:00;1726272475;14/09/24;00:07:55;0.987;-0.284;0.106;-1.1630873680114746;0.5082398653030396;0.375071257352829
01:00:0A:00:00:00:00;1726272476;14/09/24;00:07:56;0.828;0.71;0.021;-0.5546656250953674;-1.4330898523330688;-0.7147123217582703
01:00:0A:00:00:00:00;1726272477;14/09/24;00:07:57;0.833;0.602;0.003;-1.891238808631897;-1.1496483087539673;0.20036379992961884
01:00:0A:00:00:00:00;1726272478;14/09/24;00:07:58;0.928;0.46;-0.175;-2.1319196224212646;-0.8710938096046448;0.4092797040939331
01:00:0A:00:00:00:00;1726272479;14/09/24;00:07:59;0.814;0.205;0.608;-2.3640482425689697;-0.8833111524581909;-0.021991148591041565
01:00:0A:00:00:00:00;1726272480;14/09/24;00:08:00;0.961;-0.066;0.326;0.010995574295520782;0.9162978529930115;0.5216788649559021
01:00:0A:00:00:00:00;1726272481;14/09/24;00:08:01;0.736;0.069;0.675;-0.6682865619659424;-0.00855211354792118;-0.7513642311096191
01:00:0A:00:00:00:00;1726272482;14/09/24;00:08:02;0.813;0.299;0.488;-0.7086036801338196;-0.9822713136672974;-0.46670106053352356
01:00:0A:00:00:00:00;1726272483;14/09/24;00:08:03;0.844;0.547;0.205;-1.5711454153060913;-0.8295549750328064;-0.10506881773471832
01:00:0A:00:00:00:00;1726272484;14/09/24;00:08:04;1.006;0.224;0.036;-2.302961826324463;-0.5998696088790894;0.32498031854629517
01:00:0A:00:00:00:00;1726272485;14/09/24;00:08:05;0.927;0.162;0.366;-3.319441556930542;0.14905111491680145;0.051312677562236786
01:00:0A:00:00:00:00;1726272486;14/09/24;00:08:06;0.849;-0.528;0.103;-1.4001030921936035;0.8881980776786804;-0.9175195693969727
01:00:0A:00:00:00:00;1726272487;14/09/24;00:08:07;0.78;0.352;0.452;-1.5515977144241333;0.37262779474258423;-0.7513642311096191
01:00:0A:00:00:00:00;1726272488;14/09/24;00:08:08;0.827;-0.181;0.421;-0.9615018963813782;-0.7562511563301086;-0.8515461683273315
01:00:0A:00:00:00:00;1726272489;14/09/24;00:08:09;0.867;0.11;-0.086;-0.9395107626914978;0.021991148591041565;-0.12217304855585098
01:00:0A:00:00:00:00;1726272490;14/09/24;00:08:10;1.027;0.0;0.071;-1.3976596593856812;-0.2773328125476837;0.9578366875648499
01:00:0A:00:00:00:00;1726272491;14/09/24;00:08:11;0.956;-0.137;0.147;-0.9541715383529663;0.5595525503158569;-0.1417207270860672
01:00:0A:00:00:00:00;1726272492;14/09/24;00:08:12;0.957;-0.183;-0.012;-0.03787364438176155;0.1576032191514969;-1.6456708908081055
01:00:0A:00:00:00:00;1726272493;14/09/24;00:08:13;1.014;0.069;0.023;-0.5742133259773254;-0.15515977144241333;0.6878342032432556
01:00:0A:00:00:00:00;1726272494;14/09/24;00:08:14;0.576;-0.572;0.492;0.3787364363670349;0.6805038452148438;-0.39217546582221985
01:00:0A:00:00:00:00;1726272495;14/09/24;00:08:15;0.914;0.189;-0.425;0.33597588539123535;-1.0873401165008545;0.3701843321323395
01:00:0A:00:00:00:00;1726272496;14/09/24;00:08:16;0.986;-0.172;0.113;0.11484266817569733;0.901637077331543;-0.2785545289516449
01:00:0A:00:00:00:00;1726272497;14/09/24;00:08:17;0.928;0.231;0.276;-0.042760565876960754;-0.2577851116657257;-0.21380282938480377
01:00:0A:00:00:00:00;1726272498;14/09/24;00:08:18;0.99;-0.097;0.121;-0.375071257352829;-0.03176499158143997;0.45692718029022217
01:00:0A:00:00:00:00;1726272499;14/09/24;00:08:19;0.965;-0.232;0.224;0.14782939851284027;0.07330382615327835;-0.5167919993400574
01:00:0A:00:00:00:00;1726272500;14/09/24;00:08:20;1.033;0.038;0.131;0.042760565876960754;-0.3579670488834381;0.15882496535778046
01:00:0A:00:00:00:00;1726272501;14/09/24;00:08:21;1.051;-0.164;-0.031;0.1563815027475357;0.05375614017248154;-0.08674286305904388
01:00:0A:00:00:00:00;1726272502;14/09/24;00:08:22;1.069;0.081;0.215;0.18570303916931152;-0.30543261766433716;-0.19058994948863983
01:00:0A:00:00:00:00;1726272503;14/09/24;00:08:23;0.926;0.319;-0.215;-0.2528982162475586;-0.35063666105270386;-0.07819075137376785
01:00:0A:00:00:00:00;1726272504;14/09/24;00:08:24;0.821;-0.774;-0.247;0.7733554244041443;0.22968533635139465;0.45204028487205505
01:00:0A:00:00:00:00;1726272505;14/09/24;00:08:25;0.993;0.274;0.207;1.0030406713485718;0.1160643920302391;-0.25534167885780334
01:00:0A:00:00:00:00;1726272506;14/09/24;00:08:26;0.647;0.697;0.124;0.07941248267889023;0.4483751058578491;0.3530800938606262
01:00:0A:00:00:00:00;1726272507;14/09/24;00:08:27;0.974;-0.322;0.008;-0.16982054710388184;-0.685390830039978;0.6939429044723511
01:00:0A:00:00:00:00;1726272508;14/09/24;00:08:28;1.001;0.015;0.02;0.2541199326515198;0.2565633952617645;-0.5925393104553223
01:00:0A:00:00:00:00;1726272509;14/09/24;00:08:29;0.988;-0.089;0.164;-0.015882495790719986;-0.07452555745840073;0.4764748811721802
01:00:0A:00:00:00:00;1726272510;14/09/24;00:08:30;0.881;-0.528;0.299;0.42271876335144043;0.051312677562236786;0.6096435189247131
01:00:0A:00:00:00:00;1726272511;14/09/24;00:08:31;0.67;-0.235;0.737;-1.177748203277588;0.6365215182304382;-1.4318681955337524
01:00:0A:00:00:00:00;1726272512;14/09/24;00:08:32;0.872;0.449;0.284;-1.5039502382278442;-1.852143406867981;-1.078787922859192
01:00:0A:00:00:00:00;1726272513;14/09/24;00:08:33;0.79;0.619;0.348;-2.704911231994629;-0.836885392665863;-0.6328563690185547
01:00:0A:00:00:00:00;1726272514;14/09/24;00:08:34;0.931;0.388;0.138;-3.4318408966064453;-0.9566149115562439;-0.14905111491680145
01:00:0A:00:00:00:00;1726272515;14/09/24;00:08:35;1.028;0.072;0.209;-3.645643711090088;-0.7660250067710876;-0.6499606370925903
01:00:0A:00:00:00:00;1726272516;14/09/24;00:08:36;0.975;-0.032;0.26;-3.137403726577759;0.42149701714515686;-0.6108652353286743
01:00:0A:00:00:00:00;1726272517;14/09/24;00:08:37;0.906;-0.257;0.249;-2.3860394954681396;0.8772024512290955;-0.48869219422340393
01:00:0A:00:00:00:00;1726272518;14/09/24;00:08:38;0.922;-0.24;0.325;-1.0531316995620728;0.39584067463874817;-0.3897320330142975
01:00:0A:00:00:00:00;1726272519;14/09/24;00:08:39;1.067;-0.137;0.187;-0.15515977144241333;-0.019547687843441963;-0.5839871764183044
01:00:0A:00:00:00:00;1726272520;14/09/24;00:08:40;1.018;0.144;0.348;-0.35185837745666504;0.06719517707824707;0.1160643920302391
01:00:0A:00:00:00:00;1726272521;14/09/24;00:08:41;0.967;-0.18;-0.27;-0.2015855312347412;-0.5913175940513611;0.1258382350206375
01:00:0A:00:00:00:00;1726272522;14/09/24;00:08:42;0.976;0.202;0.173;-0.1869247555732727;0.7648032903671265;-0.1368338167667389
01:00:0A:00:00:00:00;1726272523;14/09/24;00:08:43;0.949;-0.109;0.124;-0.04398229718208313;-0.4715879559516907;0.27611109614372253
01:00:0A:00:00:00:00;1726272524;14/09/24;00:08:44;0.939;0.029;-0.009;0.23335053026676178;0.13439035415649414;-0.38728854060173035
01:00:0A:00:00:00:00;1726272525;14/09/24;00:08:45;0.929;0.091;0.284;-0.19914205372333527;0.3579670488834381;0.1673770695924759
01:00:0A:00:00:00:00;1726272526;14/09/24;00:08:46;0.975;-0.052;0.236;-0.1576032191514969;-0.93095862865448;0.3078760802745819
01:00:0A:00:00:00:00;1726272527;14/09/24;00:08:47;0.966;-0.01;-0.176;-0.024434609338641167;0.7073819637298584;-0.2883284091949463
01:00:0A:00:00:00:00;1726272528;14/09/24;00:08:48;0.966;0.082;0.314;-0.18936821818351746;-0.31642818450927734;0.3298672139644623
01:00:0A:00:00:00:00;1726272529;14/09/24;00:08:49;0.97;-0.003;0.235;0.045204028487205505;0.24923302233219147;-0.3701843321323395
01:00:0A:00:00:00:00;1726272530;14/09/24;00:08:50;0.947;0.18;0.322;-0.08918632566928864;-0.62796950340271;0.1417207270860672
01:00:0A:00:00:00:00;1726272531;14/09/24;00:08:51;0.988;0.068;0.287;-0.41783180832862854;0.3274237811565399;-0.11239919811487198
01:00:0A:00:00:00:00;1726272532;14/09/24;00:08:52;1.014;-0.04;0.159;-0.2883284091949463;-0.2321287840604782;-0.14049901068210602
01:00:0A:00:00:00:00;1726272533;14/09/24;00:08:53;1.009;0.01;0.035;-0.34086278080940247;-0.00855211354792118;-0.05742133408784866
01:00:0A:00:00:00:00;1726272534;14/09/24;00:08:54;0.985;-0.069;0.236;-0.3481931686401367;0.04398229718208313;-0.04398229718208313
01:00:0A:00:00:00:00;1726272535;14/09/24;00:08:55;1.009;-0.022;0.207;-0.2223549485206604;-0.10018189996480942;-0.13927726447582245
01:00:0A:00:00:00:00;1726272536;14/09/24;00:08:56;1.007;0.07;0.091;-0.39584067463874817;0.04886921867728233;0.13927726447582245
01:00:0A:00:00:00:00;1726272537;14/09/24;00:08:57;0.992;-0.036;0.161;-0.40072759985923767;0.02076941914856434;0.12461651116609573
01:00:0A:00:00:00:00;1726272538;14/09/24;00:08:58;0.994;0.009;0.177;-0.16004669666290283;-0.06841690838336945;-0.20891590416431427
01:00:0A:00:00:00:00;1726272539;14/09/24;00:08:59;1.015;0.093;0.139;-0.3090977966785431;-0.05864306166768074;-0.02687807008624077
01:00:0A:00:00:00:00;1726272540;14/09/24;00:09:00;1.035;-0.068;0.168;-0.2834414541721344;0.02076941914856434;-0.028099799528717995
01:00:0A:00:00:00:00;1726272541;14/09/24;00:09:01;1.044;0.019;0.142;-0.18325956165790558;0.01710422709584236;-0.12461651116609573
01:00:0A:00:00:00:00;1726272542;14/09/24;00:09:02;1.016;0.025;0.143;-0.2382374405860901;0.045204028487205505;-0.01710422709584236
01:00:0A:00:00:00:00;1726272543;14/09/24;00:09:03;1.006;-0.007;0.079;-0.2272418737411499;-0.01710422709584236;0.0024434609804302454
01:00:0A:00:00:00:00;1726272544;14/09/24;00:09:04;0.962;0.0;0.134;-0.20891590416431427;0.09896016865968704;-0.06108652427792549
01:00:0A:00:00:00:00;1726272545;14/09/24;00:09:05;0.954;-0.005;0.103;-0.19547687470912933;-0.17470745742321014;-0.015882495790719986
01:00:0A:00:00:00:00;1726272546;14/09/24;00:09:06;0.997;-0.026;0.089;-0.22113320231437683;0.00855211354792118;0.014660765416920185
01:00:0A:00:00:00:00;1726272547;14/09/24;00:09:07;1.024;-0.025;0.158;-0.16982054710388184;-0.1062905490398407;-0.04764748737215996
01:00:0A:00:00:00:00;1726272548;14/09/24;00:09:08;1.054;0.022;0.114;-0.21380282938480377;-0.030543262138962746;0.015882495790719986
01:00:0A:00:00:00:00;1726272549;14/09/24;00:09:09;1.041;-0.055;0.14;-0.19303341209888458;-0.019547687843441963;0.012217304669320583
01:00:0A:00:00:00:00;1726272550;14/09/24;00:09:10;1.014;0.017;0.145;-0.1368338167667389;-0.0036651913542300463;-0.1014036238193512
01:00:0A:00:00:00:00;1726272551;14/09/24;00:09:11;1.003;-0.015;0.146;0.07330382615327835;0.06719517707824707;0.1661553531885147
01:00:0A:00:00:00:00;1726272552;14/09/24;00:09:12;0.994;-0.068;0.181;0.3017674386501312;0.06352998316287994;0.042760565876960754
01:00:0A:00:00:00:00;1726272553;14/09/24;00:09:13;0.992;0.0;0.135;0.4105014204978943;-0.11728612333536148;-0.08185594528913498
01:00:0A:00:00:00:00;1726272554;14/09/24;00:09:14;0.997;-0.005;0.084;0.313984751701355;0.0354301817715168;0.05864306166768074
01:00:0A:00:00:00:00;1726272555;14/09/24;00:09:15;1.002;-0.004;0.178;0.3274237811565399;0.010995574295520782;-0.021991148591041565
01:00:0A:00:00:00:00;1726272556;14/09/24;00:09:16;1.015;0.014;0.136;0.2577851116657257;-0.045204028487205505;0.07696902006864548
01:00:0A:00:00:00:00;1726272557;14/09/24;00:09:17;1.015;-0.048;0.124;0.25534167885780334;0.03420845419168472;0.04886921867728233
01:00:0A:00:00:00:00;1726272558;14/09/24;00:09:18;0.985;0.09;0.218;0.2675589621067047;0.05375614017248154;-0.051312677562236786
01:00:0A:00:00:00:00;1726272559;14/09/24;00:09:19;1.0;0.034;0.154;0.0012217304902151227;-0.04153883829712868;0.080634206533432
01:00:0A:00:00:00:00;1726272560;14/09/24;00:09:20;1.009;-0.025;0.129;0.04398229718208313;-0.03420845419168472;0.012217304669320583
01:00:0A:00:00:00:00;1726272561;14/09/24;00:09:21;1.015;0.023;0.121;0.08185594528913498;0.024434609338641167;-0.05009094998240471
01:00:0A:00:00:00:00;1726272562;14/09/24;00:09:22;0.996;0.089;0.164;0.19303341209888458;0.042760565876960754;-0.10751228034496307
01:00:0A:00:00:00:00;1726272563;14/09/24;00:09:23;0.998;0.014;0.142;0.16493360698223114;-0.06719517707824707;0.02932153083384037
01:00:0A:00:00:00:00;1726272564;14/09/24;00:09:24;1.008;-0.001;0.148;0.17104226350784302;-0.05253440886735916;0.07208210229873657
01:00:0A:00:00:00:00;1726272565;14/09/24;00:09:25;1.026;-0.02;0.15;0.18081611394882202;0.02076941914856434;-0.039095375686883926
01:00:0A:00:00:00:00;1726272566;14/09/24;00:09:26;1.022;0.037;0.165;0.11972958594560623;0.042760565876960754;0.025656338781118393
01:00:0A:00:00:00:00;1726272567;14/09/24;00:09:27;0.994;0.066;0.121;0.17348572611808777;0.006108652334660292;-0.02076941914856434
01:00:0A:00:00:00:00;1726272568;14/09/24;00:09:28;0.989;-0.007;0.128;0.06352998316287994;0.06963863223791122;0.13316862285137177
01:00:0A:00:00:00:00;1726272569;14/09/24;00:09:29;1.008;-0.032;0.147;0.1869247555732727;-0.09773843735456467;-0.06963863223791122
01:00:0A:00:00:00:00;1726272570;14/09/24;00:09:30;1.032;0.037;0.088;0.10995574295520782;-0.012217304669320583;0.028099799528717995
01:00:0A:00:00:00:00;1726272571;14/09/24;00:09:31;1.02;-0.02;0.179;0.0708603635430336;0.07819075137376785;0.06108652427792549
01:00:0A:00:00:00:00;1726272572;14/09/24;00:09:32;1.01;0.008;0.111;0.12950342893600464;-0.05619959905743599;-0.04398229718208313
01:00:0A:00:00:00:00;1726272573;14/09/24;00:09:33;0.998;0.006;0.117;0.07208210229873657;0.05742133408784866;0.00855211354792118
01:00:0A:00:00:00:00;1726272574;14/09/24;00:09:34;1.003;0.01;0.164;0.07330382615327835;-0.05375614017248154;0.00855211354792118
01:00:0A:00:00:00:00;1726272575;14/09/24;00:09:35;1.016;0.008;0.138;0.08429940044879913;-0.025656338781118393;-0.036651913076639175
01:00:0A:00:00:00:00;1726272576;14/09/24;00:09:36;1.009;0.016;0.128;0.051312677562236786;0.03298672288656235;-0.01710422709584236
01:00:0A:00:00:00:00;1726272577;14/09/24;00:09:37;0.992;-0.015;0.153;0.040317103266716;-0.024434609338641167;0.02076941914856434
01:00:0A:00:00:00:00;1726272578;14/09/24;00:09:38;1.011;0.003;0.137;0.06108652427792549;-0.05864306166768074;-0.00855211354792118
01:00:0A:00:00:00:00;1726272579;14/09/24;00:09:39;1.03;0.015;0.129;0.02321287989616394;0.0036651913542300463;0.018325956538319588
01:00:0A:00:00:00:00;1726272580;14/09/24;00:09:40;1.023;-0.003;0.153;0.025656338781118393;0.006108652334660292;0.00855211354792118
01:00:0A:00:00:00:00;1726272581;14/09/24;00:09:41;1.008;0.01;0.135;0.03298672288656235;-0.051312677562236786;-0.0012217304902151227
01:00:0A:00:00:00:00;1726272582;14/09/24;00:09:42;1.0;0.005;0.128;0.0024434609804302454;-0.00855211354792118;0.024434609338641167
01:00:0A:00:00:00:00;1726272583;14/09/24;00:09:43;1.008;-0.002;0.153;0.0;-0.0036651913542300463;0.01710422709584236
01:00:0A:00:00:00:00;1726272584;14/09/24;00:09:44;1.021;0.016;0.137;0.00855211354792118;-0.015882495790719986;-0.015882495790719986
01:00:0A:00:00:00:00;1726272585;14/09/24;00:09:45;1.013;0.005;0.133;-0.0024434609804302454;0.024434609338641167;-0.010995574295520782
01:00:0A:00:00:00:00;1726272586;14/09/24;00:09:46;0.999;-0.003;0.134;-0.0036651913542300463;0.0012217304902151227;-0.012217304669320583
01:00:0A:00:00:00:00;1726272587;14/09/24;00:09:47;1.007;-0.006;0.124;-0.0012217304902151227;-0.0073303827084600925;0.0036651913542300463
01:00:0A:00:00:00:00;1726272588;14/09/24;00:09:48;1.016;0.009;0.123;-0.013439035043120384;0.0012217304902151227;0.01710422709584236
01:00:0A:00:00:00:00;1726272589;14/09/24;00:09:49;1.012;0.0;0.131;-0.0073303827084600925;-0.018325956538319588;-0.006108652334660292
01:00:0A:00:00:00:00;1726272590;14/09/24;00:09:50;1.003;0.006;0.132;0.006108652334660292;-0.05375614017248154;-0.03176499158143997
01:00:0A:00:00:00:00;1726272591;14/09/24;00:09:51;0.998;0.003;0.145;-0.019547687843441963;-0.042760565876960754;0.00855211354792118
01:00:0A:00:00:00:00;1726272592;14/09/24;00:09:52;1.005;-0.015;0.144;-0.021991148591041565;-0.00855211354792118;0.010995574295520782
01:00:0A:00:00:00:00;1726272593;14/09/24;00:09:53;1.021;0.005;0.153;-0.013439035043120384;-0.05497787147760391;0.015882495790719986
01:00:0A:00:00:00:00;1726272594;14/09/24;00:09:54;1.029;0.0;0.134;-0.012217304669320583;-0.028099799528717995;0.012217304669320583
01:00:0A:00:00:00:00;1726272595;14/09/24;00:09:55;1.019;0.011;0.15;-0.015882495790719986;0.03298672288656235;0.0073303827084600925
01:00:0A:00:00:00:00;1726272596;14/09/24;00:09:56;1.01;0.003;0.131;-0.014660765416920185;-0.01710422709584236;0.025656338781118393
01:00:0A:00:00:00:00;1726272597;14/09/24;00:09:57;1.009;0.01;0.128;-0.009773843921720982;0.0012217304902151227;-0.006108652334660292
01:00:0A:00:00:00:00;1726272598;14/09/24;00:09:58;0.996;0.012;0.132;-0.014660765416920185;0.006108652334660292;-0.013439035043120384
01:00:0A:00:00:00:00;1726272599;14/09/24;00:09:59;0.99;0.001;0.131;0.0012217304902151227;-0.03298672288656235;-0.025656338781118393
01:00:0A:00:00:00:00;1726272600;14/09/24;00:10:00;0.987;0.005;0.129;-0.012217304669320583;-0.004886921960860491;-0.0012217304902151227
01:00:0A:00:00:00:00;1726272601;14/09/24;00:10:01;0.996;0.001;0.143;-0.015882495790719986;-0.039095375686883926;0.018325956538319588
01:00:0A:00:00:00:00;1726272602;14/09/24;00:10:02;1.017;0.002;0.144;-0.010995574295520782;-0.04153883829712868;0.012217304669320583
01:00:0A:00:00:00:00;1726272603;14/09/24;00:10:03;1.025;0.003;0.139;-0.00855211354792118;-0.019547687843441963;0.0036651913542300463
01:00:0A:00:00:00:00;1726272604;14/09/24;00:10:04;1.026;0.009;0.151;-0.01710422709584236;0.0036651913542300463;0.00855211354792118
01:00:0A:00:00:00:00;1726272605;14/09/24;00:10:05;1.019;0.003;0.148;-0.010995574295520782;-0.010995574295520782;0.004886921960860491
01:00:0A:00:00:00:00;1726272606;14/09/24;00:10:06;1.018;0.006;0.147;-0.00855211354792118;0.015882495790719986;-0.004886921960860491
01:00:0A:00:00:00:00;1726272607;14/09/24;00:10:07;0.999;0.007;0.139;-0.009773843921720982;0.02076941914856434;-0.004886921960860491
01:00:0A:00:00:00:00;1726272608;14/09/24;00:10:08;0.988;0.005;0.135;-0.0012217304902151227;-0.006108652334660292;-0.006108652334660292
01:00:0A:00:00:00:00;1726272609;14/09/24;00:10:09;0.99;0.0;0.133;-0.0012217304902151227;-0.01710422709584236;0.004886921960860491
01:00:0A:00:00:00:00;1726272610;14/09/24;00:10:10;1.003;0.002;0.139;0.00855211354792118;-0.036651913076639175;-0.0024434609804302454
01:00:0A:00:00:00:00;1726272611;14/09/24;00:10:11;1.019;0.0;0.139;0.0024434609804302454;-0.02321287989616394;0.02932153083384037
01:00:0A:00:00:00:00;1726272612;14/09/24;00:10:12;1.016;0.0;0.14;0.012217304669320583;-0.012217304669320583;0.012217304669320583
01:00:0A:00:00:00:00;1726272613;14/09/24;00:10:13;1.017;0.002;0.145;0.019547687843441963;-0.014660765416920185;0.0073303827084600925
01:00:0A:00:00:00:00;1726272614;14/09/24;00:10:14;1.018;0.006;0.139;0.025656338781118393;-0.014660765416920185;-0.010995574295520782
01:00:0A:00:00:00:00;1726272615;14/09/24;00:10:15;1.015;-0.005;0.154;0.025656338781118393;0.00855211354792118;0.0073303827084600925
01:00:0A:00:00:00:00;1726272616;14/09/24;00:10:16;1.006;0.004;0.145;0.030543262138962746;0.00855211354792118;-0.0024434609804302454
01:00:0A:00:00:00:00;1726272617;14/09/24;00:10:17;1.0;0.0;0.135;0.025656338781118393;0.0024434609804302454;0.012217304669320583
01:00:0A:00:00:00:00;1726272618;14/09/24;00:10:18;0.996;0.0;0.14;0.03420845419168472;-0.018325956538319588;0.0024434609804302454
01:00:0A:00:00:00:00;1726272619;14/09/24;00:10:19;1.002;0.003;0.136;0.03420845419168472;-0.03176499158143997;0.0036651913542300463
01:00:0A:00:00:00:00;1726272620;14/09/24;00:10:20;1.016;-0.001;0.143;0.028099799528717995;-0.010995574295520782;0.014660765416920185
01:00:0A:00:00:00:00;1726272621;14/09/24;00:10:21;1.02;0.005;0.14;0.030543262138962746;-0.0024434609804302454;0.014660765416920185
01:00:0A:00:00:00:00;1726272622;14/09/24;00:10:22;1.014;0.004;0.14;0.04153883829712868;-0.018325956538319588;-0.004886921960860491
01:00:0A:00:00:00:00;1726272623;14/09/24;00:10:23;1.013;0.003;0.136;0.039095375686883926;-0.0073303827084600925;-0.0036651913542300463
01:00:0A:00:00:00:00;1726272624;14/09/24;00:10:24;1.009;-0.003;0.143;0.039095375686883926;0.0012217304902151227;-0.0036651913542300463
01:00:0A:00:00:00:00;1726272625;14/09/24;00:10:25;1.001;0.0;0.14;0.03787364438176155;-0.009773843921720982;0.013439035043120384
01:00:0A:00:00:00:00;1726272626;14/09/24;00:10:26;0.998;0.0;0.135;0.03420845419168472;-0.018325956538319588;0.012217304669320583
01:00:0A:00:00:00:00;1726272627;14/09/24;00:10:27;1.004;0.0;0.142;0.03420845419168472;-0.025656338781118393;0.014660765416920185
01:00:0A:00:00:00:00;1726272628;14/09/24;00:10:28;1.013;0.002;0.143;0.03787364438176155;-0.02076941914856434;0.0036651913542300463
01:00:0A:00:00:00:00;1726272629;14/09/24;00:10:29;1.015;0.005;0.141;0.03176499158143997;-0.009773843921720982;0.014660765416920185
01:00:0A:00:00:00:00;1726272630;14/09/24;00:10:30;1.012;0.011;0.136;0.02932153083384037;0.0;0.006108652334660292
01:00:0A:00:00:00:00;1726272631;14/09/24;00:10:31;1.009;-0.027;0.152;-0.1417207270860672;-0.004886921960860491;0.04398229718208313
01:00:0A:00:00:00:00;1726272632;14/09/24;00:10:32;1.004;-0.107;0.15;-0.32009339332580566;-0.03420845419168472;-0.04886921867728233
01:00:0A:00:00:00:00;1726272633;14/09/24;00:10:33;1.004;-0.054;0.146;-0.38240164518356323;0.018325956538319588;-0.1258382350206375
01:00:0A:00:00:00:00;1726272634;14/09/24;00:10:34;1.005;0.005;0.173;-0.3188716471195221;-0.021991148591041565;-0.07330382615327835
01:00:0A:00:00:00:00;1726272635;14/09/24;00:10:35;1.013;0.018;0.121;-0.3445279896259308;-0.05497787147760391;0.006108652334660292
01:00:0A:00:00:00:00;1726272636;14/09/24;00:10:36;1.009;-0.019;0.121;-0.32009339332580566;0.021991148591041565;-0.014660765416920185
01:00:0A:00:00:00:00;1726272637;14/09/24;00:10:37;1.003;-0.009;0.156;-0.24923302233219147;0.006108652334660292;-0.06963863223791122
01:00:0A:00:00:00:00;1726272638;14/09/24;00:10:38;1.006;0.011;0.135;-0.24678954482078552;-0.08796459436416626;-0.02321287989616394
01:00:0A:00:00:00:00;1726272639;14/09/24;00:10:39;1.014;0.0;0.121;-0.2565633952617645;-0.03298672288656235;-0.0012217304902151227
01:00:0A:00:00:00:00;1726272640;14/09/24;00:10:40;1.016;-0.012;0.162;-0.21991148591041565;0.009773843921720982;-0.036651913076639175
01:00:0A:00:00:00:00;1726272641;14/09/24;00:10:41;1.017;0.012;0.155;-0.20036379992961884;-0.014660765416920185;-0.0354301817715168
01:00:0A:00:00:00:00;1726272642;14/09/24;00:10:42;1.019;0.009;0.131;-0.21502456068992615;-0.006108652334660292;-0.004886921960860491
01:00:0A:00:00:00:00;1726272643;14/09/24;00:10:43;1.005;-0.007;0.132;-0.19303341209888458;0.028099799528717995;-0.024434609338641167
01:00:0A:00:00:00:00;1726272644;14/09/24;00:10:44;0.998;0.001;0.146;-0.1514945775270462;-0.0073303827084600925;-0.05375614017248154
01:00:0A:00:00:00:00;1726272645;14/09/24;00:10:45;0.998;0.009;0.134;-0.16859880089759827;-0.05619959905743599;0.009773843921720982
01:00:0A:00:00:00:00;1726272646;14/09/24;00:10:46;1.004;-0.005;0.127;-0.1563815027475357;-0.009773843921720982;-0.0036651913542300463
01:00:0A:00:00:00:00;1726272647;14/09/24;00:10:47;1.009;0.004;0.154;-0.12339477241039276;-0.015882495790719986;-0.04398229718208313
01:00:0A:00:00:00:00;1726272648;14/09/24;00:10:48;1.014;0.001;0.135;-0.1258382350206375;-0.042760565876960754;-0.01710422709584236
01:00:0A:00:00:00:00;1726272649;14/09/24;00:10:49;1.014;-0.01;0.131;-0.1319468915462494;0.0;-0.0012217304902151227
01:00:0A:00:00:00:00;1726272650;14/09/24;00:10:50;1.016;-0.001;0.146;-0.11484266817569733;-0.01710422709584236;-0.004886921960860491
01:00:0A:00:00:00:00;1726272651;14/09/24;00:10:51;1.019;0.012;0.14;-0.10995574295520782;-0.028099799528717995;-0.010995574295520782
01:00:0A:00:00:00:00;1726272652;14/09/24;00:10:52;1.011;0.0;0.135;-0.11239919811487198;0.0036651913542300463;-0.006108652334660292
01:00:0A:00:00:00:00;1726272653;14/09/24;00:10:53;1.001;0.004;0.136;-0.09285151958465576;0.0024434609804302454;-0.03176499158143997
01:00:0A:00:00:00:00;1726272654;14/09/24;00:10:54;1.001;0.0;0.139;-0.10262535512447357;-0.028099799528717995;0.0036651913542300463
01:00:0A:00:00:00:00;1726272655;14/09/24;00:10:55;1.009;0.001;0.133;-0.09529497474431992;-0.024434609338641167;-0.0036651913542300463
01:00:0A:00:00:00:00;1726272656;14/09/24;00:10:56;1.009;0.005;0.142;-0.09285151958465576;0.0;-0.00855211354792118
01:00:0A:00:00:00:00;1726272657;14/09/24;00:10:57;1.008;0.003;0.138;-0.08796459436416626;-0.013439035043120384;-0.010995574295520782
01:00:0A:00:00:00:00;1726272658;14/09/24;00:10:58;1.01;0.001;0.126;-0.08796459436416626;-0.02321287989616394;-0.004886921960860491
01:00:0A:00:00:00:00;1726272659;14/09/24;00:10:59;1.014;-0.002;0.139;-0.08796459436416626;-0.014660765416920185;-0.0012217304902151227
01:00:0A:00:00:00:00;1726272660;14/09/24;00:11:00;1.016;0.008;0.142;-0.07941248267889023;-0.025656338781118393;-0.01710422709584236
01:00:0A:00:00:00:00;1726272661;14/09/24;00:11:01;1.014;-0.014;0.108;0.10751228034496307;-0.13927726447582245;0.10262535512447357
01:00:0A:00:00:00:00;1726272662;14/09/24;00:11:02;1.013;-0.066;0.056;0.2028072476387024;0.02076941914856434;-0.02321287989616394
01:00:0A:00:00:00:00;1726272663;14/09/24;00:11:03;1.01;0.009;0.122;0.21013763546943665;0.042760565876960754;-0.03176499158143997
01:00:0A:00:00:00:00;1726272664;14/09/24;00:11:04;1.01;0.026;0.159;0.12828169763088226;-0.006108652334660292;0.06719517707824707
01:00:0A:00:00:00:00;1726272665;14/09/24;00:11:05;1.016;-0.03;0.13;0.14782939851284027;-0.04153883829712868;0.036651913076639175
01:00:0A:00:00:00:00;1726272666;14/09/24;00:11:06;1.012;0.005;0.127;0.18081611394882202;0.028099799528717995;-0.04398229718208313
01:00:0A:00:00:00:00;1726272667;14/09/24;00:11:07;1.006;0.009;0.142;0.12461651116609573;-0.0012217304902151227;0.09285151958465576
01:00:0A:00:00:00:00;1726272668;14/09/24;00:11:08;1.008;-0.042;0.135;0.17837265133857727;-0.03298672288656235;-0.0012217304902151227
01:00:0A:00:00:00:00;1726272669;14/09/24;00:11:09;1.01;-0.005;0.132;0.34086278080940247;-0.014660765416920185;0.0012217304902151227
01:00:0A:00:00:00:00;1726272670;14/09/24;00:11:10;1.009;0.009;0.13;0.24068090319633484;0.006108652334660292;0.02076941914856434
01:00:0A:00:00:00:00;1726272671;14/09/24;00:11:11;1.006;-0.002;0.147;0.22357667982578278;-0.0024434609804302454;0.045204028487205505
01:00:0A:00:00:00:00;1726272672;14/09/24;00:11:12;1.008;-0.005;0.136;0.23945917189121246;-0.03787364438176155;0.02321287989616394
01:00:0A:00:00:00:00;1726272673;14/09/24;00:11:13;1.013;0.009;0.13;0.22846359014511108;0.004886921960860491;0.018325956538319588
01:00:0A:00:00:00:00;1726272674;14/09/24;00:11:14;1.013;0.001;0.153;0.21135938167572021;0.0036651913542300463;0.03420845419168472
01:00:0A:00:00:00:00;1726272675;14/09/24;00:11:15;1.014;-0.002;0.138;0.21624629199504852;-0.025656338781118393;0.02321287989616394
01:00:0A:00:00:00:00;1726272676;14/09/24;00:11:16;1.012;0.004;0.135;0.2076941877603531;0.0073303827084600925;0.01710422709584236
01:00:0A:00:00:00:00;1726272677;14/09/24;00:11:17;1.009;0.0;0.142;0.19303341209888458;0.009773843921720982;0.02932153083384037
01:00:0A:00:00:00:00;1726272678;14/09/24;00:11:18;1.007;-0.001;0.141;0.19058994948863983;-0.01710422709584236;0.028099799528717995
01:00:0A:00:00:00:00;1726272679;14/09/24;00:11:19;1.005;-0.002;0.128;0.18448130786418915;-0.0012217304902151227;0.02687807008624077
01:00:0A:00:00:00:00;1726272680;14/09/24;00:11:20;1.002;0.005;0.139;0.1771509200334549;-0.0036651913542300463;0.021991148591041565
01:00:0A:00:00:00:00;1726272681;14/09/24;00:11:21;1.007;0.0;0.136;0.16859880089759827;-0.028099799528717995;0.03176499158143997
01:00:0A:00:00:00:00;1726272682;14/09/24;00:11:22;1.014;-0.002;0.138;0.1673770695924759;-0.012217304669320583;0.019547687843441963
01:00:0A:00:00:00:00;1726272683;14/09/24;00:11:23;1.015;0.003;0.14;0.161268413066864;-0.00855211354792118;0.014660765416920185
01:00:0A:00:00:00:00;1726272684;14/09/24;00:11:24;1.014;0.001;0.144;0.15027284622192383;-0.0073303827084600925;0.021991148591041565
01:00:0A:00:00:00:00;1726272685;14/09/24;00:11:25;1.014;-0.001;0.14;0.1514945775270462;-0.012217304669320583;0.015882495790719986
01:00:0A:00:00:00:00;1726272681;14/09/24;00:11:21;1.012;0.004;0.14;0.14905111491680145;0.0073303827084600925;0.0073303827084600925
01:00:0A:00:00:00:00;1726272682;14/09/24;00:11:22;1.008;0.0;0.142;0.13561207056045532;0.0;0.02321287989616394
01:00:0A:00:00:00:00;1726272683;14/09/24;00:11:23;1.004;0.0;0.134;0.1417207270860672;-0.019547687843441963;0.010995574295520782
01:00:0A:00:00:00:00;1726272684;14/09/24;00:11:24;1.005;0.004;0.139;0.13439035415649414;-0.0024434609804302454;0.015882495790719986
01:00:0A:00:00:00:00;1726272685;14/09/24;00:11:25;1.007;0.001;0.137;0.1270599663257599;-0.019547687843441963;0.02321287989616394
01:00:0A:00:00:00:00;1726272686;14/09/24;00:11:26;1.012;-0.001;0.137;0.12828169763088226;-0.014660765416920185;0.014660765416920185
01:00:0A:00:00:00:00;1726272687;14/09/24;00:11:27;1.012;0.003;0.139;0.12461651116609573;-0.014660765416920185;0.013439035043120384
01:00:0A:00:00:00:00;1726272688;14/09/24;00:11:28;1.013;0.0;0.142;0.11484266817569733;-0.009773843921720982;0.021991148591041565
01:00:0A:00:00:00:00;1726272689;14/09/24;00:11:29;1.014;0.0;0.14;0.1160643920302391;-0.006108652334660292;0.01710422709584236
01:00:0A:00:00:00:00;1726272690;14/09/24;00:11:30;1.013;0.004;0.137;0.11239919811487198;-0.004886921960860491;0.01710422709584236
01:00:0A:00:00:00:00;1726272691;14/09/24;00:11:31;1.01;0.003;0.139;0.10995574295520782;0.0024434609804302454;0.00855211354792118
01:00:0A:00:00:00:00;1726272692;14/09/24;00:11:32;1.004;-0.001;0.137;0.10873401165008545;-0.015882495790719986;0.010995574295520782
01:00:0A:00:00:00:00;1726272693;14/09/24;00:11:33;1.004;0.0;0.138;0.10873401165008545;-0.006108652334660292;0.00855211354792118
01:00:0A:00:00:00:00;1726272694;14/09/24;00:11:34;1.007;0.003;0.14;0.1014036238193512;-0.012217304669320583;0.018325956538319588
01:00:0A:00:00:00:00;1726272695;14/09/24;00:11:35;1.012;-0.001;0.138;0.1014036238193512;-0.014660765416920185;0.015882495790719986
01:00:0A:00:00:00:00;1726272696;14/09/24;00:11:36;1.013;0.003;0.138;0.10506881773471832;-0.014660765416920185;0.004886921960860491
01:00:0A:00:00:00:00;1726272697;14/09/24;00:11:37;1.012;0.001;0.14;0.09407324343919754;-0.004886921960860491;0.02076941914856434
01:00:0A:00:00:00:00;1726272698;14/09/24;00:11:38;1.01;0.0;0.14;0.09896016865968704;-0.0073303827084600925;0.010995574295520782
01:00:0A:00:00:00:00;1726272699;14/09/24;00:11:39;1.011;0.0;0.135;0.09651670604944229;-0.0073303827084600925;0.010995574295520782
01:00:0A:00:00:00:00;1726272700;14/09/24;00:11:40;1.011;0.0;0.14;0.09285151958465576;-0.00855211354792118;0.014660765416920185
01:00:0A:00:00:00:00;1726272701;14/09/24;00:11:41;1.008;0.0;0.138;0.09407324343919754;-0.0073303827084600925;0.012217304669320583
01:00:0A:00:00:00:00;1726272702;14/09/24;00:11:42;1.005;0.005;0.139;0.08918632566928864;-0.0073303827084600925;0.014660765416920185
01:00:0A:00:00:00:00;1726272703;14/09/24;00:11:43;1.008;0.0;0.137;0.09162978082895279;-0.014660765416920185;0.004886921960860491
01:00:0A:00:00:00:00;1726272704;14/09/24;00:11:44;1.012;0.0;0.138;0.08552113175392151;-0.009773843921720982;0.01710422709584236
01:00:0A:00:00:00:00;1726272705;14/09/24;00:11:45;1.009;-0.001;0.137;0.08674286305904388;-0.013439035043120384;0.014660765416920185
01:00:0A:00:00:00:00;1726272706;14/09/24;00:11:46;1.01;0.006;0.138;0.08429940044879913;-0.013439035043120384;0.015882495790719986
01:00:0A:00:00:00:00;1726272707;14/09/24;00:11:47;1.011;-0.005;0.131;0.08674286305904388;-0.018325956538319588;0.021991148591041565
01:00:0A:00:00:00:00;1726272708;14/09/24;00:11:48;1.009;-0.005;0.123;0.1062905490398407;-0.015882495790719986;0.0073303827084600925
01:00:0A:00:00:00:00;1726272709;14/09/24;00:11:49;1.01;-0.002;0.139;0.1062905490398407;0.013439035043120384;0.006108652334660292
01:00:0A:00:00:00:00;1726272710;14/09/24;00:11:50;1.009;0.009;0.149;0.09773843735456467;-0.02321287989616394;0.019547687843441963
01:00:0A:00:00:00:00;1726272711;14/09/24;00:11:51;1.011;-0.002;0.127;0.09040805697441101;-0.01710422709584236;0.02076941914856434
01:00:0A:00:00:00:00;1726272712;14/09/24;00:11:52;1.011;0.003;0.142;0.10018189996480942;0.006108652334660292;-0.009773843921720982
01:00:0A:00:00:00:00;1726272713;14/09/24;00:11:53;1.009;0.003;0.144;0.08552113175392151;-0.014660765416920185;0.01710422709584236
01:00:0A:00:00:00:00;1726272714;14/09/24;00:11:54;1.011;-0.006;0.134;0.07941248267889023;-0.00855211354792118;0.02321287989616394
01:00:0A:00:00:00:00;1726272715;14/09/24;00:11:55;1.008;0.003;0.138;0.08674286305904388;0.0;0.0036651913542300463
01:00:0A:00:00:00:00;1726272716;14/09/24;00:11:56;1.006;0.007;0.137;0.0757472887635231;-0.014660765416920185;0.013439035043120384
01:00:0A:00:00:00:00;1726272717;14/09/24;00:11:57;1.009;-0.002;0.137;0.0708603635430336;-0.01710422709584236;0.01710422709584236
01:00:0A:00:00:00:00;1726272718;14/09/24;00:11:58;1.01;0.0;0.137;0.07819075137376785;-0.0073303827084600925;0.0
01:00:0A:00:00:00:00;1726272719;14/09/24;00:11:59;1.011;0.008;0.142;0.06352998316287994;-0.009773843921720982;0.018325956538319588
01:00:0A:00:00:00:00;1726272720;14/09/24;00:12:00;1.01;0.0;0.135;0.06230825558304787;-0.014660765416920185;0.013439035043120384
01:00:0A:00:00:00:00;1726272721;14/09/24;00:12:01;1.013;0.002;0.136;0.06963863223791122;-0.0036651913542300463;-0.0073303827084600925
01:00:0A:00:00:00:00;1726272722;14/09/24;00:12:02;1.01;0.005;0.143;0.05619959905743599;-0.012217304669320583;0.013439035043120384
01:00:0A:00:00:00:00;1726272723;14/09/24;00:12:03;1.01;-0.004;0.137;0.05253440886735916;-0.0073303827084600925;0.015882495790719986
01:00:0A:00:00:00:00;1726272724;14/09/24;00:12:04;1.008;0.005;0.137;0.05864306166768074;0.0;0.0
01:00:0A:00:00:00:00;1726272725;14/09/24;00:12:05;1.007;0.005;0.136;0.04764748737215996;-0.014660765416920185;0.013439035043120384
01:00:0A:00:00:00:00;1726272726;14/09/24;00:12:06;1.008;0.0;0.137;0.04886921867728233;-0.013439035043120384;0.009773843921720982
01:00:0A:00:00:00:00;1726272727;14/09/24;00:12:07;1.009;0.005;0.139;0.051312677562236786;-0.013439035043120384;0.0024434609804302454
01:00:0A:00:00:00:00;1726272728;14/09/24;00:12:08;1.009;0.002;0.138;0.042760565876960754;-0.009773843921720982;0.013439035043120384
01:00:0A:00:00:00:00;1726272729;14/09/24;00:12:09;1.012;0.0;0.137;0.045204028487205505;-0.014660765416920185;0.00855211354792118
01:00:0A:00:00:00:00;1726272730;14/09/24;00:12:10;1.012;0.001;0.137;0.04764748737215996;-0.012217304669320583;0.0024434609804302454
01:00:0A:00:00:00:00;1726272731;14/09/24;00:12:11;1.012;0.005;0.141;0.042760565876960754;-0.0073303827084600925;0.004886921960860491
01:00:0A:00:00:00:00;1726272732;14/09/24;00:12:12;1.012;-0.001;0.138;0.04153883829712868;-0.006108652334660292;0.00855211354792118
01:00:0A:00:00:00:00;1726272733;14/09/24;00:12:13;1.008;0.003;0.136;0.045204028487205505;-0.006108652334660292;0.0024434609804302454
01:00:0A:00:00:00:00;1726272734;14/09/24;00:12:14;1.007;0.004;0.137;0.039095375686883926;-0.010995574295520782;0.012217304669320583
01:00:0A:00:00:00:00;1726272735;14/09/24;00:12:15;1.007;0.0;0.137;0.04153883829712868;-0.012217304669320583;0.0073303827084600925
01:00:0A:00:00:00:00;1726272736;14/09/24;00:12:16;1.009;0.004;0.137;0.042760565876960754;-0.009773843921720982;0.0036651913542300463
01:00:0A:00:00:00:00;1726272737;14/09/24;00:12:17;1.01;0.002;0.139;0.036651913076639175;-0.013439035043120384;0.014660765416920185
01:00:0A:00:00:00:00;1726272738;14/09/24;00:12:18;1.011;0.0;0.135;0.04153883829712868;-0.012217304669320583;0.006108652334660292
01:00:0A:00:00:00:00;1726272739;14/09/24;00:12:19;1.013;0.003;0.14;0.04153883829712868;-0.014660765416920185;0.0036651913542300463
01:00:0A:00:00:00:00;1726272740;14/09/24;00:12:20;1.013;0.002;0.14;0.036651913076639175;-0.006108652334660292;0.0073303827084600925
01:00:0A:00:00:00:00;1726272741;14/09/24;00:12:21;1.01;0.002;0.14;0.03787364438176155;-0.006108652334660292;0.004886921960860491
01:00:0A:00:00:00:00;1726272742;14/09/24;00:12:22;1.008;0.001;0.135;0.036651913076639175;-0.0073303827084600925;0.004886921960860491
01:00:0A:00:00:00:00;1726272743;14/09/24;00:12:23;1.009;0.002;0.138;0.03420845419168472;-0.009773843921720982;0.0073303827084600925
01:00:0A:00:00:00:00;1726272744;14/09/24;00:12:24;1.008;0.0;0.138;0.03420845419168472;-0.013439035043120384;0.0073303827084600925
01:00:0A:00:00:00:00;1726272745;14/09/24;00:12:25;1.008;0.002;0.138;0.03420845419168472;-0.009773843921720982;0.004886921960860491
01:00:0A:00:00:00:00;1726272746;14/09/24;00:12:26;1.009;0.003;0.137;0.030543262138962746;-0.012217304669320583;0.0073303827084600925
01:00:0A:00:00:00:00;1726272747;14/09/24;00:12:27;1.009;0.0;0.137;0.030543262138962746;-0.010995574295520782;0.004886921960860491
01:00:0A:00:00:00:00;1726272748;14/09/24;00:12:28;1.011;0.002;0.137;0.03176499158143997;-0.015882495790719986;0.0036651913542300463
01:00:0A:00:00:00:00;1726272749;14/09/24;00:12:29;1.012;0.002;0.139;0.028099799528717995;-0.0073303827084600925;0.004886921960860491
01:00:0A:00:00:00:00;1726272750;14/09/24;00:12:30;1.01;0.0;0.137;0.02932153083384037;-0.00855211354792118;0.0024434609804302454
01:00:0A:00:00:00:00;1726272751;14/09/24;00:12:31;1.01;0.002;0.137;0.02687807008624077;-0.0073303827084600925;0.004886921960860491
01:00:0A:00:00:00:00;1726272752;14/09/24;00:12:32;1.01;0.0;0.137;0.02687807008624077;-0.010995574295520782;0.006108652334660292
01:00:0A:00:00:00:00;1726272753;14/09/24;00:12:33;1.009;0.001;0.137;0.028099799528717995;-0.009773843921720982;0.0036651913542300463
01:00:0A:00:00:00:00;1726272754;14/09/24;00:12:34;1.008;0.002;0.137;0.02687807008624077;-0.009773843921720982;0.004886921960860491
01:00:0A:00:00:00:00;1726272755;14/09/24;00:12:35;1.008;0.001;0.137;0.025656338781118393;-0.010995574295520782;0.0073303827084600925
01:00:0A:00:00:00:00;1726272756;14/09/24;00:12:36;1.008;0.001;0.137;0.02687807008624077;-0.013439035043120384;0.006108652334660292
01:00:0A:00:00:00:00;1726272757;14/09/24;00:12:37;1.01;0.001;0.137;0.028099799528717995;-0.014660765416920185;0.004886921960860491
01:00:0A:00:00:00:00;1726272758;14/09/24;00:12:38;1.011;0.003;0.14;0.02687807008624077;-0.00855211354792118;0.006108652334660292
01:00:0A:00:00:00:00;1726272759;14/09/24;00:12:39;1.011;0.001;0.136;0.028099799528717995;-0.00855211354792118;0.004886921960860491
01:00:0A:00:00:00:00;1726272760;14/09/24;00:12:40;1.009;0.002;0.138;0.028099799528717995;-0.009773843921720982;0.004886921960860491
01:00:0A:00:00:00:00;1726272761;14/09/24;00:12:41;1.009;0.0;0.137;0.02687807008624077;-0.012217304669320583;0.006108652334660292
01:00:0A:00:00:00:00;1726272762;14/09/24;00:12:42;1.01;0.0;0.138;0.02932153083384037;-0.009773843921720982;0.004886921960860491
01:00:0A:00:00:00:00;1726272763;14/09/24;00:12:43;1.01;0.003;0.137;0.028099799528717995;-0.009773843921720982;0.004886921960860491
01:00:0A:00:00:00:00;1726272764;14/09/24;00:12:44;1.008;0.0;0.137;0.028099799528717995;-0.010995574295520782;0.004886921960860491
01:00:0A:00:00:00:00;1726272765;14/09/24;00:12:45;1.008;0.001;0.138;0.02932153083384037;-0.012217304669320583;0.006108652334660292
01:00:0A:00:00:00:00;1726272766;14/09/24;00:12:46;1.009;0.0;0.138;0.030543262138962746;-0.012217304669320583;0.006108652334660292
01:00:0A:00:00:00:00;1726272767;14/09/24;00:12:47;1.011;0.002;0.138;0.030543262138962746;-0.010995574295520782;0.0036651913542300463
01:00:0A:00:00:00:00;1726272768;14/09/24;00:12:48;1.011;0.0;0.137;0.030543262138962746;-0.00855211354792118;0.0036651913542300463
01:00:0A:00:00:00:00;1726272769;14/09/24;00:12:49;1.01;0.001;0.137;0.030543262138962746;-0.010995574295520782;0.006108652334660292
01:00:0A:00:00:00:00;1726272770;14/09/24;00:12:50;1.011;0.0;0.138;0.030543262138962746;-0.00855211354792118;0.004886921960860491
01:00:0A:00:00:00:00;1726272771;14/09/24;00:12:51;1.01;0.0;0.137;0.03176499158143997;-0.012217304669320583;0.004886921960860491
01:00:0A:00:00:00:00;1726272772;14/09/24;00:12:52;1.01;0.001;0.137;0.03176499158143997;-0.00855211354792118;0.004886921960860491
01:00:0A:00:00:00:00;1726272773;14/09/24;00:12:53;1.009;0.001;0.137;0.030543262138962746;-0.010995574295520782;0.00855211354792118
01:00:0A:00:00:00:00;1726272774;14/09/24;00:12:54;1.009;0.0;0.137;0.03298672288656235;-0.010995574295520782;0.004886921960860491
01:00:0A:00:00:00:00;1726272775;14/09/24;00:12:55;1.01;0.001;0.138;0.03420845419168472;-0.010995574295520782;0.004886921960860491
01:00:0A:00:00:00:00;1726272776;14/09/24;00:12:56;1.011;0.0;0.138;0.03420845419168472;-0.012217304669320583;0.0073303827084600925
01:00:0A:00:00:00:00;1726272777;14/09/24;00:12:57;1.01;0.001;0.138;0.0354301817715168;-0.009773843921720982;0.004886921960860491
01:00:0A:00:00:00:00;1726272778;14/09/24;00:12:58;1.009;0.0;0.137;0.0354301817715168;-0.012217304669320583;0.0073303827084600925
01:00:0A:00:00:00:00;1726272779;14/09/24;00:12:59;1.01;0.001;0.139;0.036651913076639175;-0.00855211354792118;0.004886921960860491
01:00:0A:00:00:00:00;1726272780;14/09/24;00:13:00;1.01;0.0;0.137;0.036651913076639175;-0.010995574295520782;0.0073303827084600925
01:00:0A:00:00:00:00;1726272781;14/09/24;00:13:01;1.01;0.0;0.139;0.039095375686883926;-0.009773843921720982;0.006108652334660292
01:00:0A:00:00:00:00;1726272782;14/09/24;00:13:02;1.009;0.0;0.136;0.03787364438176155;-0.010995574295520782;0.0073303827084600925
01:00:0A:00:00:00:00;1726272783;14/09/24;00:13:03;1.008;0.0;0.138;0.039095375686883926;-0.010995574295520782;0.0073303827084600925
01:00:0A:00:00:00:00;1726272784;14/09/24;00:13:04;1.01;0.001;0.138;0.040317103266716;-0.010995574295520782;0.004886921960860491
01:00:0A:00:00:00:00;1726272785;14/09/24;00:13:05;1.01;0.0;0.138;0.040317103266716;-0.010995574295520782;0.0073303827084600925
01:00:0A:00:00:00:00;1726272786;14/09/24;00:13:06;1.011;0.001;0.139;0.04153883829712868;-0.010995574295520782;0.006108652334660292
01:00:0A:00:00:00:00;1726272787;14/09/24;00:13:07;1.01;0.002;0.138;0.040317103266716;-0.00855211354792118;0.0073303827084600925
01:00:0A:00:00:00:00;1726272788;14/09/24;00:13:08;1.01;0.001;0.139;0.04153883829712868;-0.009773843921720982;0.006108652334660292
01:00:0A:00:00:00:00;1726272789;14/09/24;00:13:09;1.01;0.0;0.137;0.042760565876960754;-0.009773843921720982;0.0036651913542300463
01:00:0A:00:00:00:00;1726272790;14/09/24;00:13:10;1.01;0.0;0.139;0.040317103266716;-0.009773843921720982;0.009773843921720982
01:00:0A:00:00:00:00;1726272791;14/09/24;00:13:11;1.009;0.001;0.137;0.042760565876960754;-0.010995574295520782;0.006108652334660292
01:00:0A:00:00:00:00;1726272792;14/09/24;00:13:12;1.009;0.0;0.137;0.04153883829712868;-0.010995574295520782;0.00855211354792118
01:00:0A:00:00:00:00;1726272793;14/09/24;00:13:13;1.008;0.001;0.139;0.042760565876960754;-0.010995574295520782;0.004886921960860491
01:00:0A:00:00:00:00;1726272794;14/09/24;00:13:14;1.01;0.001;0.138;0.042760565876960754;-0.009773843921720982;0.006108652334660292
01:00:0A:00:00:00:00;1726272795;14/09/24;00:13:15;1.011;0.001;0.139;0.04153883829712868;-0.010995574295520782;0.009773843921720982
01:00:0A:00:00:00:00;1726272796;14/09/24;00:13:16;1.01;0.002;0.138;0.04398229718208313;-0.012217304669320583;0.004886921960860491
01:00:0A:00:00:00:00;1726272797;14/09/24;00:13:17;1.01;0.0;0.138;0.042760565876960754;-0.00855211354792118;0.0073303827084600925
01:00:0A:00:00:00:00;1726272798;14/09/24;00:13:18;1.009;0.0;0.138;0.045204028487205505;-0.010995574295520782;0.004886921960860491
01:00:0A:00:00:00:00;1726272799;14/09/24;00:13:19;1.01;0.002;0.138;0.042760565876960754;-0.010995574295520782;0.00855211354792118
01:00:0A:00:00:00:00;1726272800;14/09/24;00:13:20;1.009;0.001;0.14;0.04398229718208313;-0.010995574295520782;0.006108652334660292
01:00:0A:00:00:00:00;1726272801;14/09/24;00:13:21;1.01;0.002;0.137;0.04398229718208313;-0.010995574295520782;0.0073303827084600925
01:00:0A:00:00:00:00;1726272802;14/09/24;00:13:22;1.009;0.002;0.138;0.04398229718208313;-0.00855211354792118;0.006108652334660292
01:00:0A:00:00:00:00;1726272803;14/09/24;00:13:23;1.01;0.001;0.14;0.04398229718208313;-0.013439035043120384;0.0073303827084600925
01:00:0A:00:00:00:00;1726272804;14/09/24;00:13:24;1.01;0.001;0.137;0.042760565876960754;-0.00855211354792118;0.0073303827084600925
01:00:0A:00:00:00:00;1726272805;14/09/24;00:13:25;1.01;0.003;0.139;0.042760565876960754;-0.009773843921720982;0.006108652334660292
01:00:0A:00:00:00:00;1726272806;14/09/24;00:13:26;1.01;0.001;0.137;0.042760565876960754;-0.010995574295520782;0.004886921960860491
01:00:0A:00:00:00:00;1726272807;14/09/24;00:13:27;1.01;0.001;0.139;0.04153883829712868;-0.009773843921720982;0.0073303827084600925
01:00:0A:00:00:00:00;1726272808;14/09/24;00:13:28;1.01;0.0;0.138;0.042760565876960754;-0.012217304669320583;0.0073303827084600925
01:00:0A:00:00:00:00;1726272809;14/09/24;00:13:29;1.011;0.003;0.137;0.040317103266716;-0.00855211354792118;0.0073303827084600925
01:00:0A:00:00:00:00;1726272810;14/09/24;00:13:30;1.011;0.001;0.14;0.040317103266716;-0.012217304669320583;0.006108652334660292
01:00:0A:00:00:00:00;1726272811;14/09/24;00:13:31;1.009;0.003;0.137;0.040317103266716;-0.009773843921720982;0.006108652334660292
01:00:0A:00:00:00:00;1726272812;14/09/24;00:13:32;1.009;0.0;0.14;0.039095375686883926;-0.009773843921720982;0.0073303827084600925
01:00:0A:00:00:00:00;1726272813;14/09/24;00:13:33;1.011;0.002;0.137;0.039095375686883926;-0.012217304669320583;0.0073303827084600925
01:00:0A:00:00:00:00;1726272814;14/09/24;00:13:34;1.009;0.001;0.138;0.039095375686883926;-0.00855211354792118;0.006108652334660292
01:00:0A:00:00:00:00;1726272815;14/09/24;00:13:35;1.01;0.003;0.139;0.039095375686883926;-0.012217304669320583;0.004886921960860491
01:00:0A:00:00:00:00;1726272816;14/09/24;00:13:36;1.01;0.001;0.138;0.03787364438176155;-0.00855211354792118;0.0073303827084600925
01:00:0A:00:00:00:00;1726272817;14/09/24;00:13:37;1.009;0.003;0.14;0.03787364438176155;-0.010995574295520782;0.006108652334660292
01:00:0A:00:00:00:00;1726272818;14/09/24;00:13:38;1.009;0.002;0.138;0.036651913076639175;-0.010995574295520782;0.0073303827084600925
01:00:0A:00:00:00:00;1726272819;14/09/24;00:13:39;1.01;0.002;0.138;0.03787364438176155;-0.009773843921720982;0.0036651913542300463
01:00:0A:00:00:00:00;1726272820;14/09/24;00:13:40;1.009;0.002;0.139;0.0354301817715168;-0.012217304669320583;0.006108652334660292
01:00:0A:00:00:00:00;1726272821;14/09/24;00:13:41;1.01;0.001;0.138;0.036651913076639175;-0.00855211354792118;0.006108652334660292
01:00:0A:00:00:00:00;1726272822;14/09/24;00:13:42;1.011;0.002;0.138;0.0354301817715168;-0.010995574295520782;0.0073303827084600925
01:00:0A:00:00:00:00;1726272823;14/09/24;00:13:43;1.009;0.002;0.137;0.0354301817715168;-0.012217304669320583;0.004886921960860491
01:00:0A:00:00:00:00;1726272824;14/09/24;00:13:44;1.01;0.002;0.139;0.0354301817715168;-0.009773843921720982;0.004886921960860491
01:00:0A:00:00:00:00;1726272825;14/09/24;00:13:45;1.011;0.001;0.138;0.03420845419168472;-0.010995574295520782;0.006108652334660292
01:00:0A:00:00:00:00;1726272826;14/09/24;00:13:46;1.01;0.002;0.137;0.03420845419168472;-0.00855211354792118;0.006108652334660292
01:00:0A:00:00:00:00;1726272827;14/09/24;00:13:47;1.009;0.002;0.138;0.03420845419168472;-0.012217304669320583;0.0073303827084600925
01:00:0A:00:00:00:00;1726272828;14/09/24;00:13:48;1.009;0.002;0.137;0.03420845419168472;-0.010995574295520782;0.004886921960860491
01:00:0A:00:00:00:00;1726272829;14/09/24;00:13:49;1.01;0.002;0.138;0.03420845419168472;-0.010995574295520782;0.006108652334660292
01:00:0A:00:00:00:00;1726272830;14/09/24;00:13:50;1.009;0.002;0.138;0.03298672288656235;-0.010995574295520782;0.0073303827084600925
01:00:0A:00:00:00:00;1726272831;14/09/24;00:13:51;1.01;0.002;0.138;0.03298672288656235;-0.00855211354792118;0.006108652334660292
01:00:0A:00:00:00:00;1726272832;14/09/24;00:13:52;1.009;0.002;0.138;0.03298672288656235;-0.013439035043120384;0.006108652334660292
01:00:0A:00:00:00:00;1726272833;14/09/24;00:13:53;1.009;0.0;0.137;0.03176499158143997;-0.009773843921720982;0.004886921960860491
01:00:0A:00:00:00:00;1726272834;14/09/24;00:13:54;1.01;0.002;0.139;0.03176499158143997;-0.010995574295520782;0.004886921960860491
01:00:0A:00:00:00:00;1726272835;14/09/24;00:13:55;1.01;0.002;0.138;0.030543262138962746;-0.00855211354792118;0.0073303827084600925
01:00:0A:00:00:00:00;1726272836;14/09/24;00:13:56;1.009;0.002;0.138;0.030543262138962746;-0.010995574295520782;0.0036651913542300463
01:00:0A:00:00:00:00;1726272837;14/09/24;00:13:57;1.01;0.003;0.137;0.02932153083384037;-0.012217304669320583;0.0073303827084600925
01:00:0A:00:00:00:00;1726272838;14/09/24;00:13:58;1.012;0.002;0.138;0.030543262138962746;-0.010995574295520782;0.0036651913542300463
01:00:0A:00:00:00:00;1726272839;14/09/24;00:13:59;1.011;0.002;0.139;0.028099799528717995;-0.009773843921720982;0.006108652334660292
01:00:0A:00:00:00:00;1726272840;14/09/24;00:14:00;1.01;0.001;0.137;0.028099799528717995;-0.009773843921720982;0.004886921960860491
01:00:0A:00:00:00:00;1726272841;14/09/24;00:14:01;1.01;0.003;0.136;0.02687807008624077;-0.010995574295520782;0.004886921960860491
01:00:0A:00:00:00:00;1726272842;14/09/24;00:14:02;1.01;0.001;0.138;0.02687807008624077;-0.012217304669320583;0.006108652334660292
01:00:0A:00:00:00:00;1726272843;14/09/24;00:14:03;1.01;0.002;0.138;0.02687807008624077;-0.009773843921720982;0.0036651913542300463
01:00:0A:00:00:00:00;1726272844;14/09/24;00:14:04;1.009;0.002;0.139;0.025656338781118393;-0.010995574295520782;0.006108652334660292
01:00:0A:00:00:00:00;1726272845;14/09/24;00:14:05;1.009;0.002;0.137;0.025656338781118393;-0.010995574295520782;0.004886921960860491
01:00:0A:00:00:00:00;1726272846;14/09/24;00:14:06;1.01;0.001;0.138;0.024434609338641167;-0.012217304669320583;0.004886921960860491
01:00:0A:00:00:00:00;1726272847;14/09/24;00:14:07;1.011;0.001;0.138;0.024434609338641167;-0.012217304669320583;0.004886921960860491
01:00:0A:00:00:00:00;1726272848;14/09/24;00:14:08;1.01;0.002;0.139;0.024434609338641167;-0.009773843921720982;0.004886921960860491
01:00:0A:00:00:00:00;1726272849;14/09/24;00:14:09;1.011;0.002;0.137;0.021991148591041565;-0.010995574295520782;0.006108652334660292
01:00:0A:00:00:00:00;1726272850;14/09/24;00:14:10;1.01;0.001;0.138;0.02321287989616394;-0.010995574295520782;0.0036651913542300463
01:00:0A:00:00:00:00;1726272851;14/09/24;00:14:11;1.01;0.001;0.138;0.021991148591041565;-0.013439035043120384;0.004886921960860491
01:00:0A:00:00:00:00;1726272852;14/09/24;00:14:12;1.01;0.0;0.138;0.021991148591041565;-0.009773843921720982;0.004886921960860491
01:00:0A:00:00:00:00;1726272853;14/09/24;00:14:13;1.01;0.002;0.138;0.021991148591041565;-0.010995574295520782;0.0036651913542300463
01:00:0A:00:00:00:00;1726272854;14/09/24;00:14:14;1.009;0.001;0.138;0.02076941914856434;-0.010995574295520782;0.004886921960860491
01:00:0A:00:00:00:00;1726272855;14/09/24;00:14:15;1.01;0.002;0.137;0.021991148591041565;-0.012217304669320583;0.0036651913542300463
01:00:0A:00:00:00:00;1726272856;14/09/24;00:14:16;1.01;0.001;0.138;0.019547687843441963;-0.010995574295520782;0.004886921960860491
01:00:0A:00:00:00:00;1726272857;14/09/24;00:14:17;1.01;0.001;0.138;0.02076941914856434;-0.010995574295520782;0.0036651913542300463
01:00:0A:00:00:00:00;1726272858;14/09/24;00:14:18;1.009;0.002;0.138;0.019547687843441963;-0.009773843921720982;0.004886921960860491
01:00:0A:00:00:00:00;1726272859;14/09/24;00:14:19;1.01;0.002;0.137;0.019547687843441963;-0.012217304669320583;0.004886921960860491
01:00:0A:00:00:00:00;1726272860;14/09/24;00:14:20;1.01;0.003;0.139;0.019547687843441963;-0.010995574295520782;0.0036651913542300463
01:00:0A:00:00:00:00;1726272861;14/09/24;00:14:21;1.011;0.001;0.138;0.018325956538319588;-0.010995574295520782;0.004886921960860491
01:00:0A:00:00:00:00;1726272862;14/09/24;00:14:22;1.01;0.002;0.137;0.018325956538319588;-0.010995574295520782;0.0036651913542300463
01:00:0A:00:00:00:00;1726272863;14/09/24;00:14:23;1.009;0.001;0.137;0.01710422709584236;-0.010995574295520782;0.004886921960860491
01:00:0A:00:00:00:00;1726272864;14/09/24;00:14:24;1.01;0.0;0.137;0.018325956538319588;-0.012217304669320583;0.0036651913542300463
01:00:0A:00:00:00:00;1726272865;14/09/24;00:14:25;1.009;0.002;0.138;0.018325956538319588;-0.010995574295520782;0.0036651913542300463
01:00:0A:00:00:00:00;1726272866;14/09/24;00:14:26;1.01;0.001;0.137;0.01710422709584236;-0.012217304669320583;0.004886921960860491
01:00:0A:00:00:00:00;1726272867;14/09/24;00:14:27;1.01;0.002;0.138;0.018325956538319588;-0.009773843921720982;0.0036651913542300463
01:00:0A:00:00:00:00;1726272868;14/09/24;00:14:28;1.009;0.002;0.138;0.01710422709584236;-0.012217304669320583;0.004886921960860491
01:00:0A:00:00:00:00;1726272869;14/09/24;00:14:29;1.01;0.001;0.137;0.018325956538319588;-0.010995574295520782;0.0036651913542300463
01:00:0A:00:00:00:00;1726272870;14/09/24;00:14:30;1.01;0.002;0.139;0.018325956538319588;-0.010995574295520782;0.0036651913542300463
01:00:0A:00:00:00:00;1726272871;14/09/24;00:14:31;1.009;0.0;0.137;0.018325956538319588;-0.009773843921720982;0.004886921960860491
01:00:0A:00:00:00:00;1726272872;14/09/24;00:14:32;1.01;0.001;0.138;0.018325956538319588;-0.010995574295520782;0.0036651913542300463
01:00:0A:00:00:00:00;1726272873;14/09/24;00:14:33;1.01;0.002;0.137;0.01710422709584236;-0.010995574295520782;0.006108652334660292
01:00:0A:00:00:00:00;1726272874;14/09/24;00:14:34;1.01;0.001;0.138;0.018325956538319588;-0.012217304669320583;0.0036651913542300463
01:00:0A:00:00:00:00;1726272875;14/09/24;00:14:35;1.01;0.002;0.137;0.018325956538319588;-0.009773843921720982;0.0036651913542300463
01:00:0A:00:00:00:00;1726272876;14/09/24;00:14:36;1.01;0.001;0.139;0.018325956538319588;-0.012217304669320583;0.004886921960860491
01:00:0A:00:00:00:00;1726272877;14/09/24;00:14:37;1.01;0.001;0.137;0.018325956538319588;-0.010995574295520782;0.0036651913542300463
01:00:0A:00:00:00:00;1726272878;14/09/24;00:14:38;1.009;0.001;0.137;0.01710422709584236;-0.010995574295520782;0.004886921960860491
01:00:0A:00:00:00:00;1726272879;14/09/24;00:14:39;1.01;0.002;0.137;0.018325956538319588;-0.010995574295520782;0.0024434609804302454
01:00:0A:00:00:00:00;1726272880;14/09/24;00:14:40;1.01;0.002;0.138;0.01710422709584236;-0.010995574295520782;0.004886921960860491
01:00:0A:00:00:00:00;1726272881;14/09/24;00:14:41;1.01;0.001;0.137;0.018325956538319588;-0.010995574295520782;0.0036651913542300463
01:00:0A:00:00:00:00;1726272882;14/09/24;00:14:42;1.011;0.0;0.138;0.01710422709584236;-0.010995574295520782;0.0036651913542300463
01:00:0A:00:00:00:00;1726272883;14/09/24;00:14:43;1.01;0.001;0.137;0.01710422709584236;-0.012217304669320583;0.004886921960860491
01:00:0A:00:00:00:00;1726272884;14/09/24;00:14:44;1.01;0.002;0.138;0.018325956538319588;-0.009773843921720982;0.0024434609804302454
01:00:0A:00:00:00:00;1726272885;14/09/24;00:14:45;1.01;0.001;0.138;0.01710422709584236;-0.012217304669320583;0.004886921960860491
01:00:0A:00:00:00:00;1726272886;14/09/24;00:14:46;1.009;0.002;0.137;0.01710422709584236;-0.009773843921720982;0.0036651913542300463
01:00:0A:00:00:00:00;1726272887;14/09/24;00:14:47;1.01;0.002;0.138;0.01710422709584236;-0.010995574295520782;0.004886921960860491
01:00:0A:00:00:00:00;1726272888;14/09/24;00:14:48;1.011;0.001;0.137;0.01710422709584236;-0.010995574295520782;0.0036651913542300463
01:00:0A:00:00:00:00;1726272889;14/09/24;00:14:49;1.01;0.001;0.138;0.018325956538319588;-0.010995574295520782;0.0036651913542300463
01:00:0A:00:00:00:00;1726272890;14/09/24;00:14:50;1.01;0.002;0.138;0.01710422709584236;-0.010995574295520782;0.004886921960860491
01:00:0A:00:00:00:00;1726272891;14/09/24;00:14:51;1.01;0.002;0.137;0.018325956538319588;-0.010995574295520782;0.0036651913542300463
01:00:0A:00:00:00:00;1726272892;14/09/24;00:14:52;1.01;0.001;0.138;0.01710422709584236;-0.010995574295520782;0.004886921960860491
01:00:0A:00:00:00:00;1726272893;14/09/24;00:14:53;1.01;0.001;0.137;0.018325956538319588;-0.010995574295520782;0.0036651913542300463
01:00:0A:00:00:00:00;1726272894;14/09/24;00:14:54;1.01;0.002;0.139;0.018325956538319588;-0.010995574295520782;0.0036651913542300463
01:00:0A:00:00:00:00;1726272895;14/09/24;00:14:55;1.011;0.001;0.138;0.01710422709584236;-0.010995574295520782;0.004886921960860491
01:00:0A:00:00:00:00;1726272896;14/09/24;00:14:56;1.01;0.002;0.137;0.018325956538319588;-0.010995574295520782;0.0024434609804302454
01:00:0A:00:00:00:00;1726272897;14/09/24;00:14:57;1.01;0.002;0.138;0.01710422709584236;-0.010995574295520782;0.004886921960860491
01:00:0A:00:00:00:00;1726272898;14/09/24;00:14:58;1.01;0.001;0.137;0.018325956538319588;-0.010995574295520782;0.0036651913542300463
01:00:0A:00:00:00:00;1726272899;14/09/24;00:14:59;1.01;0.002;0.137;0.018325956538319588;-0.010995574295520782;0.004886921960860491
01:00:0A:00:00:00:00;1726272900;14/09/24;00:15:00;1.009;0.0;0.138;0.01710422709584236;-0.010995574295520782;0.004886921960860491
01:00:0A:00:00:00:00;1726272901;14/09/24;00:15:01;1.01;0.001;0.137;0.018325956538319588;-0.010995574295520782;0.0036651913542300463
01:00:0A:00:00:00:00;1726272902;14/09/24;00:15:02;1.01;0.002;0.138;0.018325956538319588;-0.010995574295520782;0.004886921960860491
01:00:0A:00:00:00:00;1726272903;14/09/24;00:15:03;1.009;0.001;0.137;0.019547687843441963;-0.010995574295520782;0.0024434609804302454
01:00:0A:00:00:00:00;1726272904;14/09/24;00:15:04;1.01;0.001;0.138;0.018325956538319588;-0.010995574295520782;0.004886921960860491
01:00:0A:00:00:00:00;1726272905;14/09/24;00:15:05;1.009;0.0;0.137;0.019547687843441963;-0.009773843921720982;0.0036651913542300463
01:00:0A:00:00:00:00;1726272906;14/09/24;00:15:06;1.009;0.002;0.137;0.019547687843441963;-0.012217304669320583;0.004886921960860491
01:00:0A:00:00:00:00;1726272907;14/09/24;00:15:07;1.009;0.001;0.138;0.018325956538319588;-0.010995574295520782;0.004886921960860491
01:00:0A:00:00:00:00;1726272908;14/09/24;00:15:08;1.009;0.001;0.137;0.02076941914856434;-0.010995574295520782;0.0036651913542300463
01:00:0A:00:00:00:00;1726272909;14/09/24;00:15:09;1.01;0.0;0.138;0.019547687843441963;-0.009773843921720982;0.004886921960860491
01:00:0A:00:00:00:00;1726272910;14/09/24;00:15:10;1.01;0.0;0.137;0.02076941914856434;-0.010995574295520782;0.0036651913542300463
01:00:0A:00:00:00:00;1726272911;14/09/24;00:15:11;1.01;0.002;0.138;0.02076941914856434;-0.010995574295520782;0.0036651913542300463
01:00:0A:00:00:00:00;1726272912;14/09/24;00:15:12;1.011;0.001;0.138;0.02076941914856434;-0.010995574295520782;0.004886921960860491
01:00:0A:00:00:00:00;1726272913;14/09/24;00:15:13;1.009;0.0;0.137;0.02076941914856434;-0.010995574295520782;0.0036651913542300463
01:00:0A:00:00:00:00;1726272914;14/09/24;00:15:14;1.01;0.001;0.139;0.02076941914856434;-0.010995574295520782;0.004886921960860491
01:00:0A:00:00:00:00;1726272915;14/09/24;00:15:15;1.011;0.0;0.137;0.021991148591041565;-0.010995574295520782;0.0036651913542300463
01:00:0A:00:00:00:00;1726272916;14/09/24;00:15:16;1.01;0.001;0.139;0.02076941914856434;-0.010995574295520782;0.004886921960860491
01:00:0A:00:00:00:00;1726272917;14/09/24;00:15:17;1.009;0.001;0.137;0.021991148591041565;-0.010995574295520782;0.004886921960860491
01:00:0A:00:00:00:00;1726272918;14/09/24;00:15:18;1.01;0.002;0.138;0.021991148591041565;-0.010995574295520782;0.0036651913542300463
01:00:0A:00:00:00:00;1726272919;14/09/24;00:15:19;1.01;0.002;0.137;0.02076941914856434;-0.010995574295520782;0.004886921960860491
01:00:0A:00:00:00:00;1726272920;14/09/24;00:15:20;1.01;0.001;0.138;0.021991148591041565;-0.010995574295520782;0.0036651913542300463
01:00:0A:00:00:00:00;1726272921;14/09/24;00:15:21;1.01;0.002;0.138;0.021991148591041565;-0.010995574295520782;0.004886921960860491
01:00:0A:00:00:00:00;1726272922;14/09/24;00:15:22;1.01;0.001;0.138;0.021991148591041565;-0.010995574295520782;0.0036651913542300463
01:00:0A:00:00:00:00;1726272923;14/09/24;00:15:23;1.01;0.001;0.138;0.021991148591041565;-0.010995574295520782;0.004886921960860491
01:00:0A:00:00:00:00;1726272924;14/09/24;00:15:24;1.009;0.001;0.138;0.021991148591041565;-0.010995574295520782;0.004886921960860491
01:00:0A:00:00:00:00;1726272925;14/09/24;00:15:25;1.01;0.001;0.136;0.02321287989616394;-0.012217304669320583;0.0036651913542300463
01:00:0A:00:00:00:00;1726272926;14/09/24;00:15:26;1.01;0.001;0.138;0.02321287989616394;-0.010995574295520782;0.004886921960860491
01:00:0A:00:00:00:00;1726272927;14/09/24;00:15:27;1.01;0.0;0.139;0.02321287989616394;-0.010995574295520782;0.004886921960860491
01:00:0A:00:00:00:00;1726272928;14/09/24;00:15:28;1.009;0.001;0.137;0.02321287989616394;-0.010995574295520782;0.004886921960860491
01:00:0A:00:00:00:00;1726272929;14/09/24;00:15:29;1.011;0.0;0.137;0.02321287989616394;-0.010995574295520782;0.004886921960860491
01:00:0A:00:00:00:00;1726272930;14/09/24;00:15:30;1.009;0.002;0.137;0.024434609338641167;-0.010995574295520782;0.0036651913542300463
01:00:0A:00:00:00:00;1726272931;14/09/24;00:15:31;1.01;0.001;0.138;0.02321287989616394;-0.009773843921720982;0.004886921960860491
01:00:0A:00:00:00:00;1726272932;14/09/24;00:15:32;1.01;0.001;0.137;0.024434609338641167;-0.010995574295520782;0.0036651913542300463
01:00:0A:00:00:00:00;1726272933;14/09/24;00:15:33;1.011;0.002;0.136;0.024434609338641167;-0.010995574295520782;0.004886921960860491
01:00:0A:00:00:00:00;1726272934;14/09/24;00:15:34;1.011;0.0;0.138;0.024434609338641167;-0.010995574295520782;0.004886921960860491
