Source;Epoch timestamp (UTC);Date;Time (UTC);Accel X (G);Accel Y (G);Accel Z (G);Gyro X (rad/s);Gyro Y (rad/s);Gyro Z (rad/s)
01:00:0A:00:00:00:00;1726617591;17/09/24;23:59:51;1.014;0.0;0.099;-0.0073303827084600925;-0.010995574295520782;0.0024434609804302454
01:00:0A:00:00:00:00;1726617592;17/09/24;23:59:52;1.013;-0.001;0.097;-0.0073303827084600925;-0.010995574295520782;0.0012217304902151227
01:00:0A:00:00:00:00;1726617593;17/09/24;23:59:53;1.014;0.0;0.099;-0.0073303827084600925;-0.012217304669320583;0.0012217304902151227
01:00:0A:00:00:00:00;1726617594;17/09/24;23:59:54;1.014;-0.001;0.097;-0.00855211354792118;-0.012217304669320583;0.0024434609804302454
01:00:0A:00:00:00:00;1726617595;17/09/24;23:59:55;1.014;0.0;0.099;-0.00855211354792118;-0.010995574295520782;0.0
01:00:0A:00:00:00:00;1726617596;17/09/24;23:59:56;1.014;0.0;0.098;-0.009773843921720982;-0.010995574295520782;0.0024434609804302454
01:00:0A:00:00:00:00;1726617597;17/09/24;23:59:57;1.013;0.0;0.1;-0.00855211354792118;-0.010995574295520782;0.0
01:00:0A:00:00:00:00;1726617598;17/09/24;23:59:58;1.013;0.0;0.097;-0.009773843921720982;-0.013439035043120384;0.0024434609804302454
01:00:0A:00:00:00:00;1726617599;17/09/24;23:59:59;1.014;0.0;0.099;-0.00855211354792118;-0.009773843921720982;0.0012217304902151227
01:00:0A:00:00:00:00;1726617600;18/09/24;00:00:00;1.013;-0.002;0.1;-0.009773843921720982;-0.012217304669320583;0.0024434609804302454
01:00:0A:00:00:00:00;1726617601;18/09/24;00:00:01;1.014;-0.001;0.098;-0.00855211354792118;-0.009773843921720982;0.0012217304902151227
01:00:0A:00:00:00:00;1726617602;18/09/24;00:00:02;1.013;0.0;0.099;-0.00855211354792118;-0.013439035043120384;0.0024434609804302454
01:00:0A:00:00:00:00;1726617603;18/09/24;00:00:03;1.014;-0.001;0.097;-0.00855211354792118;-0.010995574295520782;0.0012217304902151227
01:00:0A:00:00:00:00;1726617604;18/09/24;00:00:04;1.015;0.0;0.1;-0.00855211354792118;-0.010995574295520782;0.0024434609804302454
01:00:0A:00:00:00:00;1726617605;18/09/24;00:00:05;1.013;-0.001;0.098;-0.0073303827084600925;-0.010995574295520782;0.0012217304902151227
01:00:0A:00:00:00:00;1726617606;18/09/24;00:00:06;1.013;0.0;0.099;-0.0073303827084600925;-0.010995574295520782;0.0024434609804302454
01:00:0A:00:00:00:00;1726617607;18/09/24;00:00:07;1.013;-0.001;0.098;-0.006108652334660292;-0.012217304669320583;0.0012217304902151227
01:00:0A:00:00:00:00;1726617608;18/09/24;00:00:08;1.014;0.0;0.098;-0.006108652334660292;-0.010995574295520782;0.0012217304902151227
01:00:0A:00:00:00:00;1726617609;18/09/24;00:00:09;1.014;-0.001;0.098;-0.006108652334660292;-0.012217304669320583;0.0024434609804302454
01:00:0A:00:00:00:00;1726617610;18/09/24;00:00:10;1.013;0.0;0.099;-0.006108652334660292;-0.009773843921720982;0.0012217304902151227
01:00:0A:00:00:00:00;1726617611;18/09/24;00:00:11;1.014;0.0;0.097;-0.004886921960860491;-0.012217304669320583;0.0036651913542300463
01:00:0A:00:00:00:00;1726617612;18/09/24;00:00:12;1.014;0.0;0.099;-0.004886921960860491;-0.009773843921720982;0.0
01:00:0A:00:00:00:00;1726617613;18/09/24;00:00:13;1.014;0.0;0.097;-0.004886921960860491;-0.013439035043120384;0.0036651913542300463
01:00:0A:00:00:00:00;1726617614;18/09/24;00:00:14;1.014;0.0;0.099;-0.0036651913542300463;-0.00855211354792118;0.0012217304902151227
01:00:0A:00:00:00:00;1726617615;18/09/24;00:00:15;1.013;0.0;0.099;-0.0036651913542300463;-0.013439035043120384;0.0024434609804302454
01:00:0A:00:00:00:00;1726617616;18/09/24;00:00:16;1.013;0.0;0.098;-0.0036651913542300463;-0.00855211354792118;0.0012217304902151227
01:00:0A:00:00:00:00;1726617617;18/09/24;00:00:17;1.013;0.0;0.098;-0.0036651913542300463;-0.014660765416920185;0.0036651913542300463
01:00:0A:00:00:00:00;1726617618;18/09/24;00:00:18;1.015;0.0;0.097;-0.0036651913542300463;-0.00855211354792118;0.0012217304902151227
01:00:0A:00:00:00:00;1726617619;18/09/24;00:00:19;1.014;-0.001;0.099;-0.0036651913542300463;-0.013439035043120384;0.0036651913542300463
01:00:0A:00:00:00:00;1726617620;18/09/24;00:00:20;1.014;0.0;0.098;-0.0024434609804302454;-0.009773843921720982;0.0012217304902151227
01:00:0A:00:00:00:00;1726617621;18/09/24;00:00:21;1.014;0.0;0.099;-0.0036651913542300463;-0.012217304669320583;0.0024434609804302454
01:00:0A:00:00:00:00;1726617622;18/09/24;00:00:22;1.014;0.0;0.097;-0.0024434609804302454;-0.009773843921720982;0.0012217304902151227
01:00:0A:00:00:00:00;1726617623;18/09/24;00:00:23;1.013;0.0;0.098;-0.0036651913542300463;-0.010995574295520782;0.0024434609804302454
01:00:0A:00:00:00:00;1726617624;18/09/24;00:00:24;1.014;0.0;0.098;-0.0036651913542300463;-0.010995574295520782;0.0012217304902151227
01:00:0A:00:00:00:00;1726617625;18/09/24;00:00:25;1.013;0.0;0.099;-0.0036651913542300463;-0.012217304669320583;0.0024434609804302454
01:00:0A:00:00:00:00;1726617626;18/09/24;00:00:26;1.013;-0.001;0.097;-0.0036651913542300463;-0.010995574295520782;0.0012217304902151227
01:00:0A:00:00:00:00;1726617627;18/09/24;00:00:27;1.013;0.0;0.099;-0.0036651913542300463;-0.010995574295520782;0.0012217304902151227
01:00:0A:00:00:00:00;1726617628;18/09/24;00:00:28;1.013;0.0;0.097;-0.0036651913542300463;-0.010995574295520782;0.0024434609804302454
01:00:0A:00:00:00:00;1726617629;18/09/24;00:00:29;1.013;0.0;0.099;-0.0036651913542300463;-0.010995574295520782;0.0024434609804302454
01:00:0A:00:00:00:00;1726617630;18/09/24;00:00:30;1.014;0.0;0.097;-0.0036651913542300463;-0.012217304669320583;0.0024434609804302454
01:00:0A:00:00:00:00;1726617631;18/09/24;00:00:31;1.014;0.0;0.099;-0.0036651913542300463;-0.009773843921720982;0.0024434609804302454
01:00:0A:00:00:00:00;1726617632;18/09/24;00:00:32;1.014;0.0;0.098;-0.0036651913542300463;-0.012217304669320583;0.0024434609804302454
01:00:0A:00:00:00:00;1726617633;18/09/24;00:00:33;1.013;-0.005;0.107;-0.013439035043120384;0.010995574295520782;0.010995574295520782
01:00:0A:00:00:00:00;1726617634;18/09/24;00:00:34;1.012;-0.009;0.114;-0.02076941914856434;-0.015882495790719986;0.0
01:00:0A:00:00:00:00;1726617635;18/09/24;00:00:35;1.014;0.0;0.101;-0.01710422709584236;-0.02687807008624077;-0.012217304669320583
01:00:0A:00:00:00:00;1726617636;18/09/24;00:00:36;1.015;0.009;0.086;-0.02076941914856434;-0.018325956538319588;0.0
01:00:0A:00:00:00:00;1726617637;18/09/24;00:00:37;1.013;-0.006;0.104;-0.02932153083384037;0.010995574295520782;0.01710422709584236
01:00:0A:00:00:00:00;1726617638;18/09/24;00:00:38;1.014;-0.006;0.106;-0.00855211354792118;-0.02687807008624077;-0.014660765416920185
01:00:0A:00:00:00:00;1726617639;18/09/24;00:00:39;1.015;0.008;0.088;-0.014660765416920185;-0.01710422709584236;-0.0024434609804302454
01:00:0A:00:00:00:00;1726617640;18/09/24;00:00:40;1.014;-0.004;0.102;-0.02321287989616394;0.006108652334660292;0.01710422709584236
01:00:0A:00:00:00:00;1726617641;18/09/24;00:00:41;1.013;-0.005;0.104;-0.004886921960860491;-0.021991148591041565;-0.010995574295520782
01:00:0A:00:00:00:00;1726617642;18/09/24;00:00:42;1.014;0.007;0.093;-0.010995574295520782;-0.015882495790719986;0.0012217304902151227
01:00:0A:00:00:00:00;1726617643;18/09/24;00:00:43;1.014;-0.003;0.099;-0.01710422709584236;0.0012217304902151227;0.014660765416920185
01:00:0A:00:00:00:00;1726617644;18/09/24;00:00:44;1.014;-0.004;0.104;-0.0012217304902151227;-0.019547687843441963;-0.010995574295520782
01:00:0A:00:00:00:00;1726617645;18/09/24;00:00:45;1.014;0.004;0.092;-0.006108652334660292;-0.01710422709584236;0.0
01:00:0A:00:00:00:00;1726617646;18/09/24;00:00:46;1.012;-0.003;0.101;-0.012217304669320583;0.0012217304902151227;0.012217304669320583
01:00:0A:00:00:00:00;1726617647;18/09/24;00:00:47;1.014;-0.003;0.102;0.0;-0.019547687843441963;-0.0073303827084600925
01:00:0A:00:00:00:00;1726617648;18/09/24;00:00:48;1.014;0.004;0.094;-0.0036651913542300463;-0.013439035043120384;0.0
01:00:0A:00:00:00:00;1726617649;18/09/24;00:00:49;1.015;-0.002;0.099;-0.009773843921720982;-0.0036651913542300463;0.010995574295520782
01:00:0A:00:00:00:00;1726617650;18/09/24;00:00:50;1.014;-0.003;0.102;0.0;-0.014660765416920185;-0.006108652334660292
01:00:0A:00:00:00:00;1726617651;18/09/24;00:00:51;1.014;0.003;0.095;-0.0024434609804302454;-0.015882495790719986;0.0012217304902151227
01:00:0A:00:00:00:00;1726617652;18/09/24;00:00:52;1.015;-0.001;0.099;-0.0073303827084600925;-0.0024434609804302454;0.009773843921720982
01:00:0A:00:00:00:00;1726617653;18/09/24;00:00:53;1.014;-0.002;0.102;0.0012217304902151227;-0.01710422709584236;-0.004886921960860491
01:00:0A:00:00:00:00;1726617654;18/09/24;00:00:54;1.013;0.002;0.095;-0.0024434609804302454;-0.012217304669320583;0.0
01:00:0A:00:00:00:00;1726617655;18/09/24;00:00:55;1.014;-0.001;0.099;-0.004886921960860491;-0.0073303827084600925;0.00855211354792118
01:00:0A:00:00:00:00;1726617656;18/09/24;00:00:56;1.013;-0.002;0.1;0.0012217304902151227;-0.013439035043120384;-0.0036651913542300463
01:00:0A:00:00:00:00;1726617657;18/09/24;00:00:57;1.014;0.002;0.096;0.0;-0.014660765416920185;0.0012217304902151227
01:00:0A:00:00:00:00;1726617658;18/09/24;00:00:58;1.013;-0.001;0.098;-0.004886921960860491;-0.004886921960860491;0.00855211354792118
01:00:0A:00:00:00:00;1726617659;18/09/24;00:00:59;1.014;-0.003;0.106;0.0073303827084600925;-0.0073303827084600925;0.0
01:00:0A:00:00:00:00;1726617660;18/09/24;00:01:00;1.013;0.002;0.101;0.02321287989616394;-0.018325956538319588;0.0
01:00:0A:00:00:00:00;1726617661;18/09/24;00:01:01;1.014;0.0;0.095;0.02321287989616394;-0.014660765416920185;0.009773843921720982
01:00:0A:00:00:00:00;1726617662;18/09/24;00:01:02;1.014;-0.003;0.099;0.02321287989616394;-0.0036651913542300463;0.0024434609804302454
01:00:0A:00:00:00:00;1726617663;18/09/24;00:01:03;1.013;0.0;0.101;0.019547687843441963;-0.012217304669320583;0.0
01:00:0A:00:00:00:00;1726617664;18/09/24;00:01:04;1.015;0.002;0.097;0.024434609338641167;-0.014660765416920185;0.006108652334660292
01:00:0A:00:00:00:00;1726617665;18/09/24;00:01:05;1.014;-0.003;0.098;0.02321287989616394;-0.006108652334660292;0.0073303827084600925
01:00:0A:00:00:00:00;1726617666;18/09/24;00:01:06;1.014;0.0;0.101;0.025656338781118393;-0.012217304669320583;0.0
01:00:0A:00:00:00:00;1726617667;18/09/24;00:01:07;1.016;0.0;0.097;0.021991148591041565;-0.012217304669320583;0.006108652334660292
01:00:0A:00:00:00:00;1726617668;18/09/24;00:01:08;1.014;-0.001;0.099;0.024434609338641167;-0.009773843921720982;0.0036651913542300463
01:00:0A:00:00:00:00;1726617669;18/09/24;00:01:09;1.013;0.0;0.101;0.030543262138962746;-0.0073303827084600925;0.0036651913542300463
01:00:0A:00:00:00:00;1726617670;18/09/24;00:01:10;1.014;0.0;0.099;0.03420845419168472;-0.015882495790719986;0.0073303827084600925
01:00:0A:00:00:00:00;1726617671;18/09/24;00:01:11;1.014;-0.001;0.096;0.03298672288656235;-0.00855211354792118;0.0036651913542300463
01:00:0A:00:00:00:00;1726617672;18/09/24;00:01:12;1.014;-0.001;0.101;0.025656338781118393;-0.00855211354792118;0.004886921960860491
01:00:0A:00:00:00:00;1726617673;18/09/24;00:01:13;1.013;0.002;0.099;0.04153883829712868;-0.010995574295520782;-0.0012217304902151227
01:00:0A:00:00:00:00;1726617674;18/09/24;00:01:14;1.013;0.002;0.097;0.05009094998240471;-0.013439035043120384;0.010995574295520782
01:00:0A:00:00:00:00;1726617675;18/09/24;00:01:15;1.015;-0.003;0.097;0.04642575979232788;-0.0073303827084600925;0.010995574295520782
01:00:0A:00:00:00:00;1726617676;18/09/24;00:01:16;1.014;0.0;0.1;0.05009094998240471;-0.010995574295520782;-0.0024434609804302454
01:00:0A:00:00:00:00;1726617677;18/09/24;00:01:17;1.014;0.0;0.096;0.03787364438176155;-0.013439035043120384;0.006108652334660292
01:00:0A:00:00:00:00;1726617678;18/09/24;00:01:18;1.014;0.0;0.098;0.05009094998240471;-0.010995574295520782;0.0036651913542300463
01:00:0A:00:00:00:00;1726617679;18/09/24;00:01:19;1.014;0.0;0.097;0.04642575979232788;-0.010995574295520782;0.009773843921720982
01:00:0A:00:00:00:00;1726617680;18/09/24;00:01:20;1.013;0.0;0.099;0.04764748737215996;-0.00855211354792118;0.0036651913542300463
01:00:0A:00:00:00:00;1726617681;18/09/24;00:01:21;1.015;0.0;0.099;0.040317103266716;-0.012217304669320583;0.006108652334660292
01:00:0A:00:00:00:00;1726617682;18/09/24;00:01:22;1.013;0.0;0.101;0.04764748737215996;-0.0073303827084600925;0.0024434609804302454
01:00:0A:00:00:00:00;1726617683;18/09/24;00:01:23;1.014;0.001;0.095;0.05009094998240471;-0.01710422709584236;0.006108652334660292
01:00:0A:00:00:00:00;1726617684;18/09/24;00:01:24;1.013;0.0;0.097;0.045204028487205505;-0.0024434609804302454;0.009773843921720982
01:00:0A:00:00:00:00;1726617685;18/09/24;00:01:25;1.014;0.0;0.101;0.04642575979232788;-0.013439035043120384;0.0036651913542300463
01:00:0A:00:00:00:00;1726617686;18/09/24;00:01:26;1.015;0.0;0.097;0.04398229718208313;-0.012217304669320583;0.004886921960860491
01:00:0A:00:00:00:00;1726617687;18/09/24;00:01:27;1.014;0.0;0.096;0.04764748737215996;-0.013439035043120384;0.0073303827084600925
01:00:0A:00:00:00:00;1726617688;18/09/24;00:01:28;1.015;0.0;0.095;0.04886921867728233;-0.004886921960860491;0.006108652334660292
01:00:0A:00:00:00:00;1726617689;18/09/24;00:01:29;1.013;-0.001;0.1;0.04764748737215996;-0.010995574295520782;0.0073303827084600925
01:00:0A:00:00:00:00;1726617690;18/09/24;00:01:30;1.014;0.0;0.097;0.04764748737215996;-0.013439035043120384;0.0024434609804302454
01:00:0A:00:00:00:00;1726617691;18/09/24;00:01:31;1.015;0.0;0.098;0.04886921867728233;-0.012217304669320583;0.0073303827084600925
01:00:0A:00:00:00:00;1726617692;18/09/24;00:01:32;1.013;0.0;0.095;0.05864306166768074;-0.010995574295520782;0.004886921960860491
01:00:0A:00:00:00:00;1726617693;18/09/24;00:01:33;1.015;0.0;0.097;0.06108652427792549;-0.006108652334660292;0.009773843921720982
01:00:0A:00:00:00:00;1726617694;18/09/24;00:01:34;1.014;-0.002;0.101;0.059864792972803116;-0.009773843921720982;0.006108652334660292
01:00:0A:00:00:00:00;1726617695;18/09/24;00:01:35;1.014;0.0;0.099;0.05253440886735916;-0.013439035043120384;0.006108652334660292
01:00:0A:00:00:00:00;1726617696;18/09/24;00:01:36;1.014;0.0;0.095;0.05009094998240471;-0.010995574295520782;0.0036651913542300463
01:00:0A:00:00:00:00;1726617697;18/09/24;00:01:37;1.014;0.001;0.098;0.05009094998240471;-0.0073303827084600925;0.006108652334660292
01:00:0A:00:00:00:00;1726617698;18/09/24;00:01:38;1.013;-0.001;0.099;0.04886921867728233;-0.010995574295520782;0.0073303827084600925
01:00:0A:00:00:00:00;1726617699;18/09/24;00:01:39;1.013;0.0;0.098;0.05009094998240471;-0.012217304669320583;0.004886921960860491
01:00:0A:00:00:00:00;1726617700;18/09/24;00:01:40;1.014;0.0;0.097;0.04642575979232788;-0.009773843921720982;0.006108652334660292
01:00:0A:00:00:00:00;1726617701;18/09/24;00:01:41;1.015;0.0;0.098;0.04886921867728233;-0.010995574295520782;0.004886921960860491
01:00:0A:00:00:00:00;1726617702;18/09/24;00:01:42;1.014;0.0;0.097;0.04764748737215996;-0.009773843921720982;0.0073303827084600925
01:00:0A:00:00:00:00;1726617703;18/09/24;00:01:43;1.013;-0.001;0.098;0.045204028487205505;-0.00855211354792118;0.004886921960860491
01:00:0A:00:00:00:00;1726617704;18/09/24;00:01:44;1.014;0.0;0.1;0.04398229718208313;-0.013439035043120384;0.006108652334660292
01:00:0A:00:00:00:00;1726617705;18/09/24;00:01:45;1.014;0.0;0.097;0.0354301817715168;-0.009773843921720982;0.014660765416920185
01:00:0A:00:00:00:00;1726617706;18/09/24;00:01:46;1.015;-0.006;0.099;0.040317103266716;-0.009773843921720982;-0.0012217304902151227
01:00:0A:00:00:00:00;1726617707;18/09/24;00:01:47;1.013;0.0;0.098;0.03420845419168472;-0.012217304669320583;0.0012217304902151227
01:00:0A:00:00:00:00;1726617708;18/09/24;00:01:48;1.014;0.0;0.097;0.02932153083384037;-0.00855211354792118;0.00855211354792118
01:00:0A:00:00:00:00;1726617709;18/09/24;00:01:49;1.014;-0.002;0.099;0.030543262138962746;-0.010995574295520782;0.0024434609804302454
01:00:0A:00:00:00:00;1726617710;18/09/24;00:01:50;1.015;0.0;0.098;0.02932153083384037;-0.012217304669320583;0.0036651913542300463
01:00:0A:00:00:00:00;1726617711;18/09/24;00:01:51;1.014;0.0;0.097;0.02687807008624077;-0.009773843921720982;0.0073303827084600925
01:00:0A:00:00:00:00;1726617712;18/09/24;00:01:52;1.014;0.0;0.1;0.028099799528717995;-0.009773843921720982;0.0036651913542300463
01:00:0A:00:00:00:00;1726617713;18/09/24;00:01:53;1.014;0.0;0.098;0.02687807008624077;-0.012217304669320583;0.0024434609804302454
01:00:0A:00:00:00:00;1726617714;18/09/24;00:01:54;1.013;0.0;0.097;0.024434609338641167;-0.009773843921720982;0.006108652334660292
01:00:0A:00:00:00:00;1726617715;18/09/24;00:01:55;1.014;-0.001;0.099;0.024434609338641167;-0.009773843921720982;0.0036651913542300463
01:00:0A:00:00:00:00;1726617716;18/09/24;00:01:56;1.013;-0.002;0.099;0.018325956538319588;-0.012217304669320583;0.0036651913542300463
01:00:0A:00:00:00:00;1726617717;18/09/24;00:01:57;1.013;0.0;0.098;0.02076941914856434;-0.010995574295520782;-0.0012217304902151227
01:00:0A:00:00:00:00;1726617718;18/09/24;00:01:58;1.014;0.0;0.098;0.010995574295520782;-0.009773843921720982;0.006108652334660292
01:00:0A:00:00:00:00;1726617719;18/09/24;00:01:59;1.014;0.0;0.099;0.013439035043120384;-0.012217304669320583;0.0012217304902151227
01:00:0A:00:00:00:00;1726617720;18/09/24;00:02:00;1.014;0.001;0.098;0.013439035043120384;-0.010995574295520782;0.0012217304902151227
01:00:0A:00:00:00:00;1726617721;18/09/24;00:02:01;1.014;0.0;0.098;0.010995574295520782;-0.009773843921720982;0.0073303827084600925
01:00:0A:00:00:00:00;1726617722;18/09/24;00:02:02;1.013;-0.001;0.098;0.014660765416920185;-0.012217304669320583;0.0
01:00:0A:00:00:00:00;1726617723;18/09/24;00:02:03;1.014;-0.002;0.098;0.012217304669320583;-0.010995574295520782;0.0024434609804302454
01:00:0A:00:00:00:00;1726617724;18/09/24;00:02:04;1.014;0.0;0.098;0.009773843921720982;-0.010995574295520782;0.004886921960860491
01:00:0A:00:00:00:00;1726617725;18/09/24;00:02:05;1.013;-0.002;0.099;0.010995574295520782;-0.010995574295520782;0.0024434609804302454
01:00:0A:00:00:00:00;1726617726;18/09/24;00:02:06;1.014;0.0;0.098;0.012217304669320583;-0.012217304669320583;-0.0012217304902151227
01:00:0A:00:00:00:00;1726617727;18/09/24;00:02:07;1.014;0.0;0.097;0.006108652334660292;-0.009773843921720982;0.00855211354792118
01:00:0A:00:00:00:00;1726617728;18/09/24;00:02:08;1.013;-0.001;0.099;0.009773843921720982;-0.012217304669320583;0.0
01:00:0A:00:00:00:00;1726617729;18/09/24;00:02:09;1.015;-0.001;0.099;0.01710422709584236;-0.010995574295520782;0.004886921960860491
01:00:0A:00:00:00:00;1726617730;18/09/24;00:02:10;1.014;-0.001;0.098;0.018325956538319588;-0.012217304669320583;0.0
01:00:0A:00:00:00:00;1726617731;18/09/24;00:02:11;1.015;0.001;0.098;0.014660765416920185;-0.010995574295520782;0.006108652334660292
01:00:0A:00:00:00:00;1726617732;18/09/24;00:02:12;1.014;-0.002;0.097;0.014660765416920185;-0.010995574295520782;0.0036651913542300463
01:00:0A:00:00:00:00;1726617733;18/09/24;00:02:13;1.014;0.0;0.098;0.015882495790719986;-0.012217304669320583;0.0012217304902151227
01:00:0A:00:00:00:00;1726617734;18/09/24;00:02:14;1.014;0.0;0.098;0.013439035043120384;-0.009773843921720982;0.004886921960860491
01:00:0A:00:00:00:00;1726617735;18/09/24;00:02:15;1.013;0.0;0.098;0.013439035043120384;-0.009773843921720982;0.0036651913542300463
01:00:0A:00:00:00:00;1726617736;18/09/24;00:02:16;1.014;0.0;0.097;0.014660765416920185;-0.012217304669320583;0.0036651913542300463
01:00:0A:00:00:00:00;1726617737;18/09/24;00:02:17;1.014;-0.001;0.098;0.014660765416920185;-0.010995574295520782;0.0036651913542300463
01:00:0A:00:00:00:00;1726617738;18/09/24;00:02:18;1.013;0.0;0.098;0.01710422709584236;-0.010995574295520782;0.0
01:00:0A:00:00:00:00;1726617739;18/09/24;00:02:19;1.014;0.0;0.098;0.013439035043120384;-0.010995574295520782;0.006108652334660292
01:00:0A:00:00:00:00;1726617740;18/09/24;00:02:20;1.015;-0.002;0.099;0.013439035043120384;-0.009773843921720982;0.004886921960860491
01:00:0A:00:00:00:00;1726617741;18/09/24;00:02:21;1.013;0.0;0.097;0.015882495790719986;-0.012217304669320583;-0.0012217304902151227
01:00:0A:00:00:00:00;1726617742;18/09/24;00:02:22;1.014;0.0;0.098;0.013439035043120384;-0.010995574295520782;0.006108652334660292
01:00:0A:00:00:00:00;1726617743;18/09/24;00:02:23;1.014;0.0;0.098;0.014660765416920185;-0.010995574295520782;0.0012217304902151227
01:00:0A:00:00:00:00;1726617744;18/09/24;00:02:24;1.013;0.0;0.098;0.013439035043120384;-0.010995574295520782;0.0036651913542300463
01:00:0A:00:00:00:00;1726617745;18/09/24;00:02:25;1.013;-0.001;0.099;0.012217304669320583;-0.010995574295520782;0.004886921960860491
01:00:0A:00:00:00:00;1726617746;18/09/24;00:02:26;1.013;0.0;0.097;0.013439035043120384;-0.012217304669320583;0.0024434609804302454
01:00:0A:00:00:00:00;1726617747;18/09/24;00:02:27;1.013;0.0;0.098;0.012217304669320583;-0.010995574295520782;0.0024434609804302454
01:00:0A:00:00:00:00;1726617748;18/09/24;00:02:28;1.014;0.0;0.098;0.010995574295520782;-0.010995574295520782;0.004886921960860491
01:00:0A:00:00:00:00;1726617749;18/09/24;00:02:29;1.014;0.0;0.098;0.012217304669320583;-0.010995574295520782;0.0024434609804302454
01:00:0A:00:00:00:00;1726617750;18/09/24;00:02:30;1.014;-0.001;0.098;0.009773843921720982;-0.010995574295520782;0.0073303827084600925
01:00:0A:00:00:00:00;1726617751;18/09/24;00:02:31;1.013;-0.002;0.098;0.013439035043120384;-0.010995574295520782;-0.0012217304902151227
01:00:0A:00:00:00:00;1726617752;18/09/24;00:02:32;1.014;0.001;0.098;0.009773843921720982;-0.010995574295520782;0.0036651913542300463
01:00:0A:00:00:00:00;1726617753;18/09/24;00:02:33;1.013;0.0;0.098;0.00855211354792118;-0.009773843921720982;0.0073303827084600925
01:00:0A:00:00:00:00;1726617754;18/09/24;00:02:34;1.014;0.0;0.098;0.012217304669320583;-0.012217304669320583;-0.0012217304902151227
01:00:0A:00:00:00:00;1726617755;18/09/24;00:02:35;1.014;0.001;0.098;0.009773843921720982;-0.010995574295520782;0.0036651913542300463
01:00:0A:00:00:00:00;1726617756;18/09/24;00:02:36;1.014;0.0;0.097;0.00855211354792118;-0.010995574295520782;0.004886921960860491
01:00:0A:00:00:00:00;1726617757;18/09/24;00:02:37;1.013;0.0;0.097;0.009773843921720982;-0.010995574295520782;0.0012217304902151227
01:00:0A:00:00:00:00;1726617758;18/09/24;00:02:38;1.014;0.0;0.098;0.0036651913542300463;-0.010995574295520782;0.006108652334660292
01:00:0A:00:00:00:00;1726617759;18/09/24;00:02:39;1.013;-0.001;0.099;0.004886921960860491;-0.009773843921720982;0.0036651913542300463
01:00:0A:00:00:00:00;1726617760;18/09/24;00:02:40;1.014;-0.001;0.098;-0.0024434609804302454;-0.012217304669320583;0.0036651913542300463
01:00:0A:00:00:00:00;1726617761;18/09/24;00:02:41;1.014;0.0;0.096;-0.0012217304902151227;-0.010995574295520782;0.0
01:00:0A:00:00:00:00;1726617762;18/09/24;00:02:42;1.014;0.0;0.099;-0.0012217304902151227;-0.010995574295520782;0.0012217304902151227
01:00:0A:00:00:00:00;1726617763;18/09/24;00:02:43;1.014;0.0;0.098;-0.0024434609804302454;-0.010995574295520782;0.004886921960860491
01:00:0A:00:00:00:00;1726617764;18/09/24;00:02:44;1.014;0.0;0.098;0.0;-0.010995574295520782;-0.0012217304902151227
01:00:0A:00:00:00:00;1726617765;18/09/24;00:02:45;1.014;-0.001;0.098;0.0012217304902151227;-0.010995574295520782;0.0024434609804302454
01:00:0A:00:00:00:00;1726617766;18/09/24;00:02:46;1.014;0.0;0.099;0.0024434609804302454;-0.012217304669320583;0.0
01:00:0A:00:00:00:00;1726617767;18/09/24;00:02:47;1.015;0.0;0.097;0.0;-0.009773843921720982;0.004886921960860491
01:00:0A:00:00:00:00;1726617768;18/09/24;00:02:48;1.014;-0.001;0.099;0.0012217304902151227;-0.010995574295520782;0.0012217304902151227
01:00:0A:00:00:00:00;1726617769;18/09/24;00:02:49;1.014;0.0;0.098;0.0024434609804302454;-0.012217304669320583;0.0
01:00:0A:00:00:00:00;1726617770;18/09/24;00:02:50;1.013;0.0;0.097;0.0;-0.010995574295520782;0.004886921960860491
01:00:0A:00:00:00:00;1726617771;18/09/24;00:02:51;1.013;0.0;0.098;0.0012217304902151227;-0.010995574295520782;0.0012217304902151227
01:00:0A:00:00:00:00;1726617772;18/09/24;00:02:52;1.014;0.0;0.097;0.0012217304902151227;-0.012217304669320583;0.0012217304902151227
01:00:0A:00:00:00:00;1726617773;18/09/24;00:02:53;1.013;0.0;0.098;0.0036651913542300463;-0.009773843921720982;0.006108652334660292
01:00:0A:00:00:00:00;1726617774;18/09/24;00:02:54;1.014;-0.001;0.097;0.006108652334660292;-0.010995574295520782;0.0
01:00:0A:00:00:00:00;1726617775;18/09/24;00:02:55;1.014;0.0;0.098;0.006108652334660292;-0.010995574295520782;0.0024434609804302454
01:00:0A:00:00:00:00;1726617776;18/09/24;00:02:56;1.013;0.0;0.098;0.004886921960860491;-0.009773843921720982;0.0036651913542300463
01:00:0A:00:00:00:00;1726617777;18/09/24;00:02:57;1.014;0.0;0.098;0.006108652334660292;-0.012217304669320583;0.0012217304902151227
01:00:0A:00:00:00:00;1726617778;18/09/24;00:02:58;1.014;0.0;0.098;0.004886921960860491;-0.010995574295520782;0.0036651913542300463
01:00:0A:00:00:00:00;1726617779;18/09/24;00:02:59;1.013;0.0;0.097;0.004886921960860491;-0.010995574295520782;0.0024434609804302454
01:00:0A:00:00:00:00;1726617780;18/09/24;00:03:00;1.015;0.0;0.097;0.004886921960860491;-0.010995574295520782;0.0036651913542300463
01:00:0A:00:00:00:00;1726617781;18/09/24;00:03:01;1.013;0.0;0.097;0.006108652334660292;-0.010995574295520782;0.0012217304902151227
01:00:0A:00:00:00:00;1726617782;18/09/24;00:03:02;1.014;0.0;0.099;0.004886921960860491;-0.009773843921720982;0.004886921960860491
01:00:0A:00:00:00:00;1726617783;18/09/24;00:03:03;1.013;-0.001;0.098;0.006108652334660292;-0.010995574295520782;0.0012217304902151227
01:00:0A:00:00:00:00;1726617784;18/09/24;00:03:04;1.014;0.0;0.098;0.0036651913542300463;-0.010995574295520782;0.0036651913542300463
01:00:0A:00:00:00:00;1726617785;18/09/24;00:03:05;1.013;-0.001;0.098;0.0036651913542300463;-0.010995574295520782;0.0036651913542300463
01:00:0A:00:00:00:00;1726617786;18/09/24;00:03:06;1.014;0.0;0.098;0.004886921960860491;-0.010995574295520782;0.0012217304902151227
01:00:0A:00:00:00:00;1726617787;18/09/24;00:03:07;1.014;0.0;0.098;0.0036651913542300463;-0.010995574295520782;0.0036651913542300463
01:00:0A:00:00:00:00;1726617788;18/09/24;00:03:08;1.013;0.0;0.097;0.0036651913542300463;-0.010995574295520782;0.0024434609804302454
01:00:0A:00:00:00:00;1726617789;18/09/24;00:03:09;1.014;-0.001;0.098;0.0036651913542300463;-0.010995574295520782;0.0012217304902151227
01:00:0A:00:00:00:00;1726617790;18/09/24;00:03:10;1.013;0.0;0.098;0.004886921960860491;-0.010995574295520782;0.004886921960860491
01:00:0A:00:00:00:00;1726617791;18/09/24;00:03:11;1.014;-0.002;0.098;0.004886921960860491;-0.010995574295520782;0.0012217304902151227
01:00:0A:00:00:00:00;1726617792;18/09/24;00:03:12;1.014;0.0;0.097;0.006108652334660292;-0.012217304669320583;0.0012217304902151227
01:00:0A:00:00:00:00;1726617793;18/09/24;00:03:13;1.014;0.0;0.098;0.0024434609804302454;-0.010995574295520782;0.006108652334660292
01:00:0A:00:00:00:00;1726617794;18/09/24;00:03:14;1.013;-0.001;0.098;0.0036651913542300463;-0.010995574295520782;0.0012217304902151227
01:00:0A:00:00:00:00;1726617795;18/09/24;00:03:15;1.014;0.0;0.098;0.0036651913542300463;-0.010995574295520782;0.0024434609804302454
01:00:0A:00:00:00:00;1726617796;18/09/24;00:03:16;1.014;0.0;0.098;0.0012217304902151227;-0.010995574295520782;0.0036651913542300463
01:00:0A:00:00:00:00;1726617797;18/09/24;00:03:17;1.014;0.0;0.098;0.0024434609804302454;-0.012217304669320583;0.0024434609804302454
01:00:0A:00:00:00:00;1726617798;18/09/24;00:03:18;1.013;0.0;0.097;0.0024434609804302454;-0.010995574295520782;0.0012217304902151227
01:00:0A:00:00:00:00;1726617799;18/09/24;00:03:19;1.013;-0.001;0.098;0.0;-0.010995574295520782;0.0036651913542300463
01:00:0A:00:00:00:00;1726617800;18/09/24;00:03:20;1.013;0.0;0.098;0.0024434609804302454;-0.010995574295520782;-0.0012217304902151227
01:00:0A:00:00:00:00;1726617801;18/09/24;00:03:21;1.013;0.0;0.098;-0.0012217304902151227;-0.010995574295520782;0.004886921960860491
01:00:0A:00:00:00:00;1726617802;18/09/24;00:03:22;1.015;-0.001;0.099;0.0;-0.010995574295520782;0.0036651913542300463
01:00:0A:00:00:00:00;1726617803;18/09/24;00:03:23;1.014;0.0;0.097;0.0012217304902151227;-0.010995574295520782;0.0
01:00:0A:00:00:00:00;1726617804;18/09/24;00:03:24;1.014;0.0;0.098;-0.0024434609804302454;-0.010995574295520782;0.0036651913542300463
01:00:0A:00:00:00:00;1726617805;18/09/24;00:03:25;1.014;0.0;0.098;-0.0012217304902151227;-0.010995574295520782;0.0024434609804302454
01:00:0A:00:00:00:00;1726617806;18/09/24;00:03:26;1.014;0.0;0.097;-0.0024434609804302454;-0.012217304669320583;0.0
01:00:0A:00:00:00:00;1726617807;18/09/24;00:03:27;1.014;0.0;0.096;-0.006108652334660292;-0.010995574295520782;0.0024434609804302454
01:00:0A:00:00:00:00;1726617808;18/09/24;00:03:28;1.014;0.0;0.098;-0.006108652334660292;-0.010995574295520782;0.0012217304902151227
01:00:0A:00:00:00:00;1726617809;18/09/24;00:03:29;1.014;0.0;0.099;-0.006108652334660292;-0.012217304669320583;0.0012217304902151227
01:00:0A:00:00:00:00;1726617810;18/09/24;00:03:30;1.014;-0.001;0.098;-0.0073303827084600925;-0.010995574295520782;0.0024434609804302454
01:00:0A:00:00:00:00;1726617811;18/09/24;00:03:31;1.013;0.0;0.098;-0.006108652334660292;-0.012217304669320583;0.0
01:00:0A:00:00:00:00;1726617812;18/09/24;00:03:32;1.012;0.0;0.098;-0.0073303827084600925;-0.010995574295520782;0.0024434609804302454
01:00:0A:00:00:00:00;1726617813;18/09/24;00:03:33;1.014;0.0;0.098;-0.006108652334660292;-0.010995574295520782;0.0
01:00:0A:00:00:00:00;1726617814;18/09/24;00:03:34;1.014;0.0;0.099;-0.0073303827084600925;-0.010995574295520782;0.0024434609804302454
01:00:0A:00:00:00:00;1726617815;18/09/24;00:03:35;1.014;0.0;0.098;-0.0073303827084600925;-0.012217304669320583;0.0024434609804302454
01:00:0A:00:00:00:00;1726617816;18/09/24;00:03:36;1.014;0.0;0.098;-0.00855211354792118;-0.010995574295520782;0.0024434609804302454
01:00:0A:00:00:00:00;1726617817;18/09/24;00:03:37;1.014;0.0;0.098;-0.0073303827084600925;-0.010995574295520782;0.0
01:00:0A:00:00:00:00;1726617818;18/09/24;00:03:38;1.014;0.0;0.098;-0.006108652334660292;-0.010995574295520782;0.0036651913542300463
01:00:0A:00:00:00:00;1726617819;18/09/24;00:03:39;1.014;0.0;0.098;-0.004886921960860491;-0.012217304669320583;0.0012217304902151227
01:00:0A:00:00:00:00;1726617820;18/09/24;00:03:40;1.014;0.0;0.097;-0.004886921960860491;-0.010995574295520782;0.0
01:00:0A:00:00:00:00;1726617821;18/09/24;00:03:41;1.013;0.0;0.097;-0.006108652334660292;-0.010995574295520782;0.0036651913542300463
01:00:0A:00:00:00:00;1726617822;18/09/24;00:03:42;1.013;0.0;0.098;-0.004886921960860491;-0.010995574295520782;0.0012217304902151227
01:00:0A:00:00:00:00;1726617823;18/09/24;00:03:43;1.014;0.0;0.098;-0.006108652334660292;-0.010995574295520782;0.0012217304902151227
01:00:0A:00:00:00:00;1726617824;18/09/24;00:03:44;1.014;0.0;0.098;-0.006108652334660292;-0.010995574295520782;0.0024434609804302454
01:00:0A:00:00:00:00;1726617825;18/09/24;00:03:45;1.014;0.0;0.098;-0.006108652334660292;-0.010995574295520782;0.0024434609804302454
01:00:0A:00:00:00:00;1726617826;18/09/24;00:03:46;1.014;0.0;0.098;-0.004886921960860491;-0.010995574295520782;0.0036651913542300463
01:00:0A:00:00:00:00;1726617827;18/09/24;00:03:47;1.014;0.0;0.099;-0.0036651913542300463;-0.010995574295520782;0.0
01:00:0A:00:00:00:00;1726617828;18/09/24;00:03:48;1.014;0.0;0.098;-0.004886921960860491;-0.010995574295520782;0.0
01:00:0A:00:00:00:00;1726617829;18/09/24;00:03:49;1.013;0.0;0.099;-0.0036651913542300463;-0.00855211354792118;0.0036651913542300463
01:00:0A:00:00:00:00;1726617830;18/09/24;00:03:50;1.015;0.0;0.099;-0.0024434609804302454;-0.013439035043120384;0.0024434609804302454
01:00:0A:00:00:00:00;1726617831;18/09/24;00:03:51;1.014;0.0;0.096;-0.004886921960860491;-0.01710422709584236;0.0036651913542300463
01:00:0A:00:00:00:00;1726617832;18/09/24;00:03:52;1.014;0.0;0.097;-0.004886921960860491;-0.0036651913542300463;0.0
01:00:0A:00:00:00:00;1726617833;18/09/24;00:03:53;1.013;0.0;0.102;-0.004886921960860491;-0.012217304669320583;0.0024434609804302454
01:00:0A:00:00:00:00;1726617834;18/09/24;00:03:54;1.014;0.0;0.096;-0.004886921960860491;-0.015882495790719986;0.0024434609804302454
01:00:0A:00:00:00:00;1726617835;18/09/24;00:03:55;1.014;0.0;0.096;-0.004886921960860491;-0.006108652334660292;0.0012217304902151227
01:00:0A:00:00:00:00;1726617836;18/09/24;00:03:56;1.015;0.0;0.101;-0.004886921960860491;-0.012217304669320583;0.0012217304902151227
01:00:0A:00:00:00:00;1726617837;18/09/24;00:03:57;1.014;0.0;0.096;-0.004886921960860491;-0.015882495790719986;0.0036651913542300463
01:00:0A:00:00:00:00;1726617838;18/09/24;00:03:58;1.015;0.0;0.098;-0.0036651913542300463;-0.0073303827084600925;0.0012217304902151227
01:00:0A:00:00:00:00;1726617839;18/09/24;00:03:59;1.014;0.0;0.1;-0.0036651913542300463;-0.010995574295520782;0.0024434609804302454
01:00:0A:00:00:00:00;1726617840;18/09/24;00:04:00;1.015;0.0;0.097;-0.0036651913542300463;-0.014660765416920185;0.0024434609804302454
01:00:0A:00:00:00:00;1726617841;18/09/24;00:04:01;1.014;-0.001;0.097;-0.004886921960860491;-0.0073303827084600925;0.0012217304902151227
01:00:0A:00:00:00:00;1726617842;18/09/24;00:04:02;1.012;0.0;0.1;-0.0036651913542300463;-0.010995574295520782;0.0024434609804302454
01:00:0A:00:00:00:00;1726617843;18/09/24;00:04:03;1.014;0.0;0.098;-0.0036651913542300463;-0.014660765416920185;0.0024434609804302454
01:00:0A:00:00:00:00;1726617844;18/09/24;00:04:04;1.015;0.0;0.097;-0.0036651913542300463;-0.00855211354792118;0.0024434609804302454
01:00:0A:00:00:00:00;1726617845;18/09/24;00:04:05;1.014;0.0;0.1;-0.0036651913542300463;-0.010995574295520782;0.0012217304902151227
01:00:0A:00:00:00:00;1726617846;18/09/24;00:04:06;1.014;0.0;0.097;-0.0036651913542300463;-0.013439035043120384;0.0024434609804302454
01:00:0A:00:00:00:00;1726617847;18/09/24;00:04:07;1.014;0.0;0.098;-0.0036651913542300463;-0.00855211354792118;0.0012217304902151227
01:00:0A:00:00:00:00;1726617848;18/09/24;00:04:08;1.013;0.0;0.1;-0.0012217304902151227;-0.010995574295520782;0.0012217304902151227
01:00:0A:00:00:00:00;1726617849;18/09/24;00:04:09;1.014;0.0;0.097;-0.0012217304902151227;-0.013439035043120384;0.0024434609804302454
01:00:0A:00:00:00:00;1726617850;18/09/24;00:04:10;1.013;0.0;0.098;-0.0012217304902151227;-0.009773843921720982;0.0024434609804302454
01:00:0A:00:00:00:00;1726617851;18/09/24;00:04:11;1.014;-0.001;0.098;0.0;-0.010995574295520782;0.0012217304902151227
01:00:0A:00:00:00:00;1726617852;18/09/24;00:04:12;1.014;0.0;0.097;0.0;-0.013439035043120384;0.0024434609804302454
01:00:0A:00:00:00:00;1726617853;18/09/24;00:04:13;1.014;0.0;0.096;0.0;-0.010995574295520782;0.0024434609804302454
01:00:0A:00:00:00:00;1726617854;18/09/24;00:04:14;1.014;0.0;0.098;0.0036651913542300463;-0.010995574295520782;0.0024434609804302454
01:00:0A:00:00:00:00;1726617855;18/09/24;00:04:15;1.014;0.0;0.098;0.0036651913542300463;-0.010995574295520782;0.0036651913542300463
01:00:0A:00:00:00:00;1726617856;18/09/24;00:04:16;1.013;0.0;0.098;0.0036651913542300463;-0.009773843921720982;0.0024434609804302454
01:00:0A:00:00:00:00;1726617857;18/09/24;00:04:17;1.014;0.0;0.097;0.0024434609804302454;-0.012217304669320583;0.0024434609804302454
01:00:0A:00:00:00:00;1726617858;18/09/24;00:04:18;1.013;0.0;0.097;0.004886921960860491;-0.010995574295520782;0.0012217304902151227
01:00:0A:00:00:00:00;1726617859;18/09/24;00:04:19;1.014;-0.001;0.097;0.004886921960860491;-0.010995574295520782;0.0036651913542300463
01:00:0A:00:00:00:00;1726617860;18/09/24;00:04:20;1.013;0.0;0.098;0.006108652334660292;-0.009773843921720982;0.0024434609804302454
01:00:0A:00:00:00:00;1726617861;18/09/24;00:04:21;1.014;0.0;0.097;0.006108652334660292;-0.012217304669320583;0.0024434609804302454
01:00:0A:00:00:00:00;1726617862;18/09/24;00:04:22;1.014;0.0;0.097;0.006108652334660292;-0.010995574295520782;0.0024434609804302454
01:00:0A:00:00:00:00;1726617863;18/09/24;00:04:23;1.014;0.0;0.099;0.006108652334660292;-0.010995574295520782;0.0036651913542300463
01:00:0A:00:00:00:00;1726617864;18/09/24;00:04:24;1.014;0.0;0.097;0.006108652334660292;-0.010995574295520782;0.0024434609804302454
01:00:0A:00:00:00:00;1726617865;18/09/24;00:04:25;1.014;0.0;0.098;0.004886921960860491;-0.010995574295520782;0.0036651913542300463
01:00:0A:00:00:00:00;1726617866;18/09/24;00:04:26;1.014;0.0;0.098;0.004886921960860491;-0.010995574295520782;0.0024434609804302454
01:00:0A:00:00:00:00;1726617867;18/09/24;00:04:27;1.014;0.0;0.098;0.004886921960860491;-0.010995574295520782;0.0024434609804302454
01:00:0A:00:00:00:00;1726617868;18/09/24;00:04:28;1.013;0.0;0.098;0.004886921960860491;-0.010995574295520782;0.0024434609804302454
01:00:0A:00:00:00:00;1726617869;18/09/24;00:04:29;1.014;0.0;0.098;0.004886921960860491;-0.010995574295520782;0.0036651913542300463
01:00:0A:00:00:00:00;1726617870;18/09/24;00:04:30;1.014;0.0;0.098;0.006108652334660292;-0.010995574295520782;0.0024434609804302454
01:00:0A:00:00:00:00;1726617871;18/09/24;00:04:31;1.014;0.0;0.099;0.004886921960860491;-0.010995574295520782;0.0024434609804302454
01:00:0A:00:00:00:00;1726617872;18/09/24;00:04:32;1.013;0.0;0.099;0.004886921960860491;-0.010995574295520782;0.0024434609804302454
01:00:0A:00:00:00:00;1726617873;18/09/24;00:04:33;1.014;0.0;0.099;0.004886921960860491;-0.010995574295520782;0.0024434609804302454
01:00:0A:00:00:00:00;1726617874;18/09/24;00:04:34;1.015;0.0;0.098;0.004886921960860491;-0.010995574295520782;0.0024434609804302454
01:00:0A:00:00:00:00;1726617875;18/09/24;00:04:35;1.013;0.0;0.099;0.004886921960860491;-0.010995574295520782;0.0024434609804302454
01:00:0A:00:00:00:00;1726617876;18/09/24;00:04:36;1.014;0.0;0.098;0.004886921960860491;-0.010995574295520782;0.0024434609804302454
01:00:0A:00:00:00:00;1726617877;18/09/24;00:04:37;1.014;0.0;0.097;0.004886921960860491;-0.010995574295520782;0.0024434609804302454
01:00:0A:00:00:00:00;1726617878;18/09/24;00:04:38;1.014;0.0;0.098;0.004886921960860491;-0.010995574295520782;0.0036651913542300463
01:00:0A:00:00:00:00;1726617879;18/09/24;00:04:39;1.014;0.0;0.098;0.004886921960860491;-0.010995574295520782;0.0024434609804302454
01:00:0A:00:00:00:00;1726617880;18/09/24;00:04:40;1.014;0.0;0.097;0.004886921960860491;-0.010995574295520782;0.0024434609804302454
01:00:0A:00:00:00:00;1726617881;18/09/24;00:04:41;1.014;0.0;0.098;0.004886921960860491;-0.010995574295520782;0.0024434609804302454
01:00:0A:00:00:00:00;1726617882;18/09/24;00:04:42;1.014;0.0;0.098;0.004886921960860491;-0.010995574295520782;0.0024434609804302454
01:00:0A:00:00:00:00;1726617883;18/09/24;00:04:43;1.014;0.0;0.097;0.004886921960860491;-0.010995574295520782;0.0024434609804302454
01:00:0A:00:00:00:00;1726617884;18/09/24;00:04:44;1.013;-0.001;0.098;0.004886921960860491;-0.010995574295520782;0.0024434609804302454
01:00:0A:00:00:00:00;1726617885;18/09/24;00:04:45;1.013;0.0;0.098;0.004886921960860491;-0.010995574295520782;0.0024434609804302454
01:00:0A:00:00:00:00;1726617886;18/09/24;00:04:46;1.015;0.0;0.098;0.004886921960860491;-0.010995574295520782;0.0036651913542300463
01:00:0A:00:00:00:00;1726617887;18/09/24;00:04:47;1.014;0.0;0.098;0.004886921960860491;-0.010995574295520782;0.0024434609804302454
01:00:0A:00:00:00:00;1726617888;18/09/24;00:04:48;1.013;0.0;0.098;0.004886921960860491;-0.010995574295520782;0.0024434609804302454
01:00:0A:00:00:00:00;1726617889;18/09/24;00:04:49;1.012;0.0;0.098;0.004886921960860491;-0.010995574295520782;0.0036651913542300463
01:00:0A:00:00:00:00;1726617890;18/09/24;00:04:50;1.014;0.0;0.097;0.004886921960860491;-0.010995574295520782;0.0024434609804302454
01:00:0A:00:00:00:00;1726617891;18/09/24;00:04:51;1.013;0.0;0.098;0.004886921960860491;-0.010995574295520782;0.0024434609804302454
01:00:0A:00:00:00:00;1726617892;18/09/24;00:04:52;1.013;0.0;0.098;0.004886921960860491;-0.010995574295520782;0.0024434609804302454
01:00:0A:00:00:00:00;1726617893;18/09/24;00:04:53;1.014;0.0;0.098;0.004886921960860491;-0.010995574295520782;0.0024434609804302454
01:00:0A:00:00:00:00;1726617894;18/09/24;00:04:54;1.014;0.0;0.098;0.004886921960860491;-0.010995574295520782;0.0024434609804302454
01:00:0A:00:00:00:00;1726617895;18/09/24;00:04:55;1.013;0.0;0.097;0.004886921960860491;-0.010995574295520782;0.0024434609804302454
01:00:0A:00:00:00:00;1726617896;18/09/24;00:04:56;1.014;0.0;0.099;0.004886921960860491;-0.010995574295520782;0.0024434609804302454
01:00:0A:00:00:00:00;1726617897;18/09/24;00:04:57;1.013;0.0;0.097;0.004886921960860491;-0.010995574295520782;0.0024434609804302454
01:00:0A:00:00:00:00;1726617898;18/09/24;00:04:58;1.013;0.0;0.098;0.004886921960860491;-0.010995574295520782;0.0024434609804302454
01:00:0A:00:00:00:00;1726617899;18/09/24;00:04:59;1.014;0.0;0.098;0.004886921960860491;-0.010995574295520782;0.0036651913542300463
01:00:0A:00:00:00:00;1726617900;18/09/24;00:05:00;1.013;0.0;0.098;0.004886921960860491;-0.010995574295520782;0.0024434609804302454
01:00:0A:00:00:00:00;1726617901;18/09/24;00:05:01;1.014;0.0;0.098;0.004886921960860491;-0.010995574295520782;0.0036651913542300463
01:00:0A:00:00:00:00;1726617902;18/09/24;00:05:02;1.014;-0.001;0.098;0.004886921960860491;-0.010995574295520782;0.0024434609804302454
01:00:0A:00:00:00:00;1726617903;18/09/24;00:05:03;1.015;0.0;0.099;0.004886921960860491;-0.010995574295520782;0.0024434609804302454
01:00:0A:00:00:00:00;1726617904;18/09/24;00:05:04;1.015;0.0;0.098;0.006108652334660292;-0.010995574295520782;0.0024434609804302454
01:00:0A:00:00:00:00;1726617905;18/09/24;00:05:05;1.014;0.0;0.097;0.004886921960860491;-0.010995574295520782;0.0024434609804302454
01:00:0A:00:00:00:00;1726617906;18/09/24;00:05:06;1.013;0.0;0.098;0.004886921960860491;-0.010995574295520782;0.0024434609804302454
01:00:0A:00:00:00:00;1726617907;18/09/24;00:05:07;1.013;0.0;0.097;0.006108652334660292;-0.010995574295520782;0.0024434609804302454
01:00:0A:00:00:00:00;1726617908;18/09/24;00:05:08;1.015;0.0;0.098;0.006108652334660292;-0.010995574295520782;0.0024434609804302454
01:00:0A:00:00:00:00;1726617909;18/09/24;00:05:09;1.014;0.0;0.098;0.006108652334660292;-0.010995574295520782;0.0024434609804302454
01:00:0A:00:00:00:00;1726617910;18/09/24;00:05:10;1.013;0.0;0.097;0.006108652334660292;-0.010995574295520782;0.0024434609804302454
01:00:0A:00:00:00:00;1726617911;18/09/24;00:05:11;1.013;0.0;0.098;0.004886921960860491;-0.010995574295520782;0.0024434609804302454
01:00:0A:00:00:00:00;1726617912;18/09/24;00:05:12;1.014;0.0;0.099;0.0;-0.009773843921720982;0.0024434609804302454
01:00:0A:00:00:00:00;1726617913;18/09/24;00:05:13;1.014;0.0;0.1;-0.0036651913542300463;-0.012217304669320583;0.0012217304902151227
01:00:0A:00:00:00:00;1726617914;18/09/24;00:05:14;1.014;0.0;0.097;-0.0036651913542300463;-0.015882495790719986;0.0012217304902151227
01:00:0A:00:00:00:00;1726617915;18/09/24;00:05:15;1.014;0.0;0.095;-0.0036651913542300463;-0.0073303827084600925;0.0024434609804302454
01:00:0A:00:00:00:00;1726617916;18/09/24;00:05:16;1.013;0.0;0.1;-0.0024434609804302454;-0.009773843921720982;0.0024434609804302454
01:00:0A:00:00:00:00;1726617917;18/09/24;00:05:17;1.013;0.0;0.097;-0.0012217304902151227;-0.015882495790719986;0.0012217304902151227
01:00:0A:00:00:00:00;1726617918;18/09/24;00:05:18;1.013;0.0;0.096;-0.0036651913542300463;-0.00855211354792118;0.0036651913542300463
01:00:0A:00:00:00:00;1726617919;18/09/24;00:05:19;1.014;-0.001;0.101;-0.0012217304902151227;-0.009773843921720982;0.0024434609804302454
01:00:0A:00:00:00:00;1726617920;18/09/24;00:05:20;1.013;0.0;0.097;0.0;-0.014660765416920185;0.0012217304902151227
01:00:0A:00:00:00:00;1726617921;18/09/24;00:05:21;1.014;0.0;0.096;-0.0012217304902151227;-0.00855211354792118;0.0024434609804302454
01:00:0A:00:00:00:00;1726617922;18/09/24;00:05:22;1.014;0.0;0.1;-0.0012217304902151227;-0.010995574295520782;0.0024434609804302454
01:00:0A:00:00:00:00;1726617923;18/09/24;00:05:23;1.013;0.0;0.097;0.0;-0.014660765416920185;0.0012217304902151227
01:00:0A:00:00:00:00;1726617924;18/09/24;00:05:24;1.013;0.0;0.098;-0.0012217304902151227;-0.00855211354792118;0.0024434609804302454
01:00:0A:00:00:00:00;1726617925;18/09/24;00:05:25;1.014;-0.001;0.098;0.0;-0.010995574295520782;0.0024434609804302454
01:00:0A:00:00:00:00;1726617926;18/09/24;00:05:26;1.014;0.0;0.097;0.0;-0.013439035043120384;0.0012217304902151227
01:00:0A:00:00:00:00;1726617927;18/09/24;00:05:27;1.014;0.0;0.097;-0.0012217304902151227;-0.00855211354792118;0.0036651913542300463
01:00:0A:00:00:00:00;1726617928;18/09/24;00:05:28;1.013;0.0;0.099;0.0;-0.010995574295520782;0.0024434609804302454
01:00:0A:00:00:00:00;1726617929;18/09/24;00:05:29;1.014;0.0;0.098;0.0012217304902151227;-0.013439035043120384;0.0024434609804302454
01:00:0A:00:00:00:00;1726617930;18/09/24;00:05:30;1.015;0.0;0.097;0.0012217304902151227;-0.009773843921720982;0.0024434609804302454
01:00:0A:00:00:00:00;1726617931;18/09/24;00:05:31;1.014;0.0;0.099;0.0012217304902151227;-0.010995574295520782;0.0024434609804302454
01:00:0A:00:00:00:00;1726617932;18/09/24;00:05:32;1.014;0.0;0.097;0.0012217304902151227;-0.012217304669320583;0.0012217304902151227
01:00:0A:00:00:00:00;1726617933;18/09/24;00:05:33;1.014;0.0;0.098;0.0012217304902151227;-0.009773843921720982;0.0036651913542300463
01:00:0A:00:00:00:00;1726617934;18/09/24;00:05:34;1.014;-0.001;0.098;0.0012217304902151227;-0.010995574295520782;0.0024434609804302454
01:00:0A:00:00:00:00;1726617935;18/09/24;00:05:35;1.014;0.0;0.098;0.0024434609804302454;-0.012217304669320583;0.0024434609804302454
01:00:0A:00:00:00:00;1726617936;18/09/24;00:05:36;1.015;0.0;0.098;0.0012217304902151227;-0.009773843921720982;0.0024434609804302454
01:00:0A:00:00:00:00;1726617937;18/09/24;00:05:37;1.014;0.0;0.098;0.0012217304902151227;-0.010995574295520782;0.0024434609804302454
01:00:0A:00:00:00:00;1726617938;18/09/24;00:05:38;1.014;0.0;0.098;0.0024434609804302454;-0.012217304669320583;0.0024434609804302454
01:00:0A:00:00:00:00;1726617939;18/09/24;00:05:39;1.014;0.0;0.098;0.0012217304902151227;-0.009773843921720982;0.0036651913542300463
01:00:0A:00:00:00:00;1726617940;18/09/24;00:05:40;1.013;-0.001;0.098;0.0024434609804302454;-0.010995574295520782;0.0024434609804302454
01:00:0A:00:00:00:00;1726617941;18/09/24;00:05:41;1.013;0.0;0.098;0.0012217304902151227;-0.012217304669320583;0.0024434609804302454
01:00:0A:00:00:00:00;1726617942;18/09/24;00:05:42;1.014;0.0;0.098;0.0012217304902151227;-0.010995574295520782;0.0024434609804302454
01:00:0A:00:00:00:00;1726617943;18/09/24;00:05:43;1.014;0.0;0.097;0.0012217304902151227;-0.010995574295520782;0.0012217304902151227
01:00:0A:00:00:00:00;1726617944;18/09/24;00:05:44;1.014;0.0;0.098;0.0;-0.009773843921720982;0.0024434609804302454
01:00:0A:00:00:00:00;1726617945;18/09/24;00:05:45;1.013;0.0;0.098;0.0;-0.010995574295520782;0.0024434609804302454
01:00:0A:00:00:00:00;1726617946;18/09/24;00:05:46;1.013;0.0;0.098;-0.0024434609804302454;-0.012217304669320583;0.0024434609804302454
01:00:0A:00:00:00:00;1726617947;18/09/24;00:05:47;1.014;0.0;0.096;-0.0012217304902151227;-0.010995574295520782;0.0012217304902151227
01:00:0A:00:00:00:00;1726617948;18/09/24;00:05:48;1.013;0.0;0.098;-0.0024434609804302454;-0.009773843921720982;0.0036651913542300463
01:00:0A:00:00:00:00;1726617949;18/09/24;00:05:49;1.013;0.0;0.099;-0.0012217304902151227;-0.012217304669320583;0.0012217304902151227
01:00:0A:00:00:00:00;1726617950;18/09/24;00:05:50;1.014;0.0;0.097;-0.0012217304902151227;-0.010995574295520782;0.0024434609804302454
01:00:0A:00:00:00:00;1726617951;18/09/24;00:05:51;1.014;0.0;0.098;-0.0012217304902151227;-0.009773843921720982;0.0024434609804302454
01:00:0A:00:00:00:00;1726617952;18/09/24;00:05:52;1.013;0.0;0.098;0.0;-0.012217304669320583;0.0024434609804302454
01:00:0A:00:00:00:00;1726617953;18/09/24;00:05:53;1.015;0.0;0.097;0.0;-0.010995574295520782;0.0024434609804302454
01:00:0A:00:00:00:00;1726617954;18/09/24;00:05:54;1.015;0.0;0.099;-0.0012217304902151227;-0.009773843921720982;0.0036651913542300463
01:00:0A:00:00:00:00;1726617955;18/09/24;00:05:55;1.014;-0.001;0.099;0.0;-0.012217304669320583;0.0024434609804302454
01:00:0A:00:00:00:00;1726617956;18/09/24;00:05:56;1.015;0.0;0.098;0.0;-0.010995574295520782;0.0024434609804302454
01:00:0A:00:00:00:00;1726617957;18/09/24;00:05:57;1.013;0.0;0.099;0.0;-0.009773843921720982;0.0024434609804302454
01:00:0A:00:00:00:00;1726617958;18/09/24;00:05:58;1.014;0.0;0.098;0.0;-0.012217304669320583;0.0012217304902151227
01:00:0A:00:00:00:00;1726617959;18/09/24;00:05:59;1.014;0.0;0.097;0.0;-0.010995574295520782;0.0024434609804302454
01:00:0A:00:00:00:00;1726617960;18/09/24;00:06:00;1.014;0.0;0.098;0.0;-0.010995574295520782;0.0024434609804302454
01:00:0A:00:00:00:00;1726617961;18/09/24;00:06:01;1.013;0.0;0.098;-0.0012217304902151227;-0.012217304669320583;0.0012217304902151227
01:00:0A:00:00:00:00;1726617962;18/09/24;00:06:02;1.014;0.0;0.098;-0.0012217304902151227;-0.010995574295520782;0.0012217304902151227
01:00:0A:00:00:00:00;1726617963;18/09/24;00:06:03;1.013;0.0;0.099;-0.0012217304902151227;-0.010995574295520782;0.0036651913542300463
01:00:0A:00:00:00:00;1726617964;18/09/24;00:06:04;1.013;-0.001;0.098;-0.0024434609804302454;-0.010995574295520782;0.0024434609804302454
01:00:0A:00:00:00:00;1726617965;18/09/24;00:06:05;1.014;0.0;0.097;-0.0073303827084600925;-0.012217304669320583;0.0012217304902151227
01:00:0A:00:00:00:00;1726617966;18/09/24;00:06:06;1.014;0.0;0.098;-0.0073303827084600925;-0.009773843921720982;0.0012217304902151227
01:00:0A:00:00:00:00;1726617967;18/09/24;00:06:07;1.014;0.0;0.099;-0.0073303827084600925;-0.010995574295520782;0.0036651913542300463
01:00:0A:00:00:00:00;1726617968;18/09/24;00:06:08;1.014;0.0;0.098;-0.006108652334660292;-0.012217304669320583;0.0012217304902151227
01:00:0A:00:00:00:00;1726617969;18/09/24;00:06:09;1.014;0.0;0.097;-0.006108652334660292;-0.010995574295520782;0.0012217304902151227
01:00:0A:00:00:00:00;1726617970;18/09/24;00:06:10;1.014;0.0;0.099;-0.006108652334660292;-0.010995574295520782;0.0012217304902151227
01:00:0A:00:00:00:00;1726617971;18/09/24;00:06:11;1.013;0.0;0.098;-0.004886921960860491;-0.012217304669320583;0.0024434609804302454
01:00:0A:00:00:00:00;1726617972;18/09/24;00:06:12;1.014;0.0;0.097;-0.004886921960860491;-0.010995574295520782;0.0012217304902151227
01:00:0A:00:00:00:00;1726617973;18/09/24;00:06:13;1.013;0.0;0.099;-0.006108652334660292;-0.010995574295520782;0.0024434609804302454
01:00:0A:00:00:00:00;1726617974;18/09/24;00:06:14;1.014;0.0;0.098;-0.006108652334660292;-0.010995574295520782;0.0012217304902151227
01:00:0A:00:00:00:00;1726617975;18/09/24;00:06:15;1.014;0.0;0.098;-0.0073303827084600925;-0.012217304669320583;0.0012217304902151227
01:00:0A:00:00:00:00;1726617976;18/09/24;00:06:16;1.013;0.0;0.099;-0.0073303827084600925;-0.010995574295520782;0.0012217304902151227
01:00:0A:00:00:00:00;1726617977;18/09/24;00:06:17;1.014;0.0;0.098;-0.006108652334660292;-0.012217304669320583;0.0012217304902151227
01:00:0A:00:00:00:00;1726617978;18/09/24;00:06:18;1.012;0.0;0.097;-0.006108652334660292;-0.012217304669320583;0.0012217304902151227
01:00:0A:00:00:00:00;1726617979;18/09/24;00:06:19;1.013;0.0;0.098;-0.0073303827084600925;-0.010995574295520782;0.0012217304902151227
01:00:0A:00:00:00:00;1726617980;18/09/24;00:06:20;1.012;0.0;0.098;-0.0073303827084600925;-0.010995574295520782;0.0024434609804302454
01:00:0A:00:00:00:00;1726617981;18/09/24;00:06:21;1.015;0.0;0.098;-0.0073303827084600925;-0.010995574295520782;0.0024434609804302454
01:00:0A:00:00:00:00;1726617982;18/09/24;00:06:22;1.014;0.0;0.099;-0.00855211354792118;-0.012217304669320583;0.0012217304902151227
01:00:0A:00:00:00:00;1726617983;18/09/24;00:06:23;1.013;-0.001;0.099;-0.00855211354792118;-0.012217304669320583;0.0
01:00:0A:00:00:00:00;1726617984;18/09/24;00:06:24;1.014;0.0;0.097;-0.00855211354792118;-0.012217304669320583;0.0012217304902151227
01:00:0A:00:00:00:00;1726617985;18/09/24;00:06:25;1.015;0.0;0.097;-0.009773843921720982;-0.010995574295520782;0.0024434609804302454
01:00:0A:00:00:00:00;1726617986;18/09/24;00:06:26;1.014;0.0;0.098;-0.0073303827084600925;-0.012217304669320583;0.0012217304902151227
01:00:0A:00:00:00:00;1726617987;18/09/24;00:06:27;1.015;0.0;0.097;-0.0073303827084600925;-0.012217304669320583;0.0012217304902151227
01:00:0A:00:00:00:00;1726617988;18/09/24;00:06:28;1.014;0.0;0.098;-0.00855211354792118;-0.010995574295520782;0.0024434609804302454
01:00:0A:00:00:00:00;1726617989;18/09/24;00:06:29;1.014;-0.001;0.098;-0.0073303827084600925;-0.012217304669320583;0.0012217304902151227
01:00:0A:00:00:00:00;1726617990;18/09/24;00:06:30;1.013;0.0;0.098;-0.0073303827084600925;-0.012217304669320583;0.0012217304902151227
01:00:0A:00:00:00:00;1726617991;18/09/24;00:06:31;1.014;0.0;0.098;-0.0073303827084600925;-0.010995574295520782;0.0024434609804302454
01:00:0A:00:00:00:00;1726617992;18/09/24;00:06:32;1.015;0.0;0.099;-0.006108652334660292;-0.012217304669320583;0.0012217304902151227
01:00:0A:00:00:00:00;1726617993;18/09/24;00:06:33;1.013;0.0;0.097;-0.006108652334660292;-0.012217304669320583;0.0012217304902151227
01:00:0A:00:00:00:00;1726617994;18/09/24;00:06:34;1.013;0.0;0.099;-0.006108652334660292;-0.010995574295520782;0.0024434609804302454
01:00:0A:00:00:00:00;1726617995;18/09/24;00:06:35;1.014;0.0;0.099;-0.004886921960860491;-0.012217304669320583;0.0012217304902151227
01:00:0A:00:00:00:00;1726617996;18/09/24;00:06:36;1.014;0.0;0.097;-0.006108652334660292;-0.010995574295520782;0.0024434609804302454
01:00:0A:00:00:00:00;1726617997;18/09/24;00:06:37;1.014;-0.001;0.097;-0.004886921960860491;-0.010995574295520782;0.0024434609804302454
01:00:0A:00:00:00:00;1726617998;18/09/24;00:06:38;1.014;0.0;0.098;-0.004886921960860491;-0.012217304669320583;0.0012217304902151227
01:00:0A:00:00:00:00;1726617999;18/09/24;00:06:39;1.015;0.0;0.097;-0.004886921960860491;-0.012217304669320583;0.0024434609804302454
01:00:0A:00:00:00:00;1726618000;18/09/24;00:06:40;1.014;0.0;0.097;-0.004886921960860491;-0.010995574295520782;0.0024434609804302454
01:00:0A:00:00:00:00;1726618001;18/09/24;00:06:41;1.014;0.0;0.099;-0.0036651913542300463;-0.012217304669320583;0.0012217304902151227
01:00:0A:00:00:00:00;1726618002;18/09/24;00:06:42;1.014;0.0;0.097;-0.0036651913542300463;-0.010995574295520782;0.0024434609804302454
01:00:0A:00:00:00:00;1726618003;18/09/24;00:06:43;1.012;0.0;0.099;-0.0036651913542300463;-0.010995574295520782;0.0024434609804302454
01:00:0A:00:00:00:00;1726618004;18/09/24;00:06:44;1.014;0.0;0.098;-0.0036651913542300463;-0.010995574295520782;0.0012217304902151227
01:00:0A:00:00:00:00;1726618005;18/09/24;00:06:45;1.014;0.0;0.097;-0.0036651913542300463;-0.010995574295520782;0.0024434609804302454
01:00:0A:00:00:00:00;1726618006;18/09/24;00:06:46;1.014;0.0;0.098;-0.004886921960860491;-0.010995574295520782;0.0024434609804302454
01:00:0A:00:00:00:00;1726618007;18/09/24;00:06:47;1.014;0.0;0.098;-0.00855211354792118;-0.012217304669320583;0.0012217304902151227
01:00:0A:00:00:00:00;1726618008;18/09/24;00:06:48;1.014;0.0;0.098;-0.009773843921720982;-0.010995574295520782;0.0
01:00:0A:00:00:00:00;1726618009;18/09/24;00:06:49;1.014;0.0;0.099;-0.009773843921720982;-0.010995574295520782;0.0024434609804302454
01:00:0A:00:00:00:00;1726618010;18/09/24;00:06:50;1.014;-0.001;0.098;-0.00855211354792118;-0.010995574295520782;0.0012217304902151227
01:00:0A:00:00:00:00;1726618011;18/09/24;00:06:51;1.014;-0.001;0.098;-0.009773843921720982;-0.012217304669320583;0.0012217304902151227
01:00:0A:00:00:00:00;1726618012;18/09/24;00:06:52;1.015;0.0;0.098;-0.009773843921720982;-0.010995574295520782;0.0024434609804302454
01:00:0A:00:00:00:00;1726618013;18/09/24;00:06:53;1.013;0.0;0.099;-0.009773843921720982;-0.010995574295520782;0.0024434609804302454
01:00:0A:00:00:00:00;1726618014;18/09/24;00:06:54;1.013;0.0;0.098;-0.0073303827084600925;-0.012217304669320583;0.0
01:00:0A:00:00:00:00;1726618015;18/09/24;00:06:55;1.014;0.0;0.098;-0.0073303827084600925;-0.010995574295520782;0.0024434609804302454
01:00:0A:00:00:00:00;1726618016;18/09/24;00:06:56;1.014;0.0;0.098;-0.0073303827084600925;-0.010995574295520782;0.0012217304902151227
01:00:0A:00:00:00:00;1726618017;18/09/24;00:06:57;1.013;0.0;0.097;-0.006108652334660292;-0.012217304669320583;0.0012217304902151227
01:00:0A:00:00:00:00;1726618018;18/09/24;00:06:58;1.014;0.0;0.097;-0.006108652334660292;-0.010995574295520782;0.0024434609804302454
01:00:0A:00:00:00:00;1726618019;18/09/24;00:06:59;1.014;0.0;0.099;-0.006108652334660292;-0.010995574295520782;0.0024434609804302454
01:00:0A:00:00:00:00;1726618020;18/09/24;00:07:00;1.013;0.0;0.098;-0.006108652334660292;-0.012217304669320583;0.0012217304902151227
01:00:0A:00:00:00:00;1726618021;18/09/24;00:07:01;1.013;0.0;0.098;-0.006108652334660292;-0.010995574295520782;0.0024434609804302454
01:00:0A:00:00:00:00;1726618022;18/09/24;00:07:02;1.014;0.0;0.098;-0.006108652334660292;-0.010995574295520782;0.0024434609804302454
01:00:0A:00:00:00:00;1726618023;18/09/24;00:07:03;1.013;0.0;0.097;-0.006108652334660292;-0.012217304669320583;0.0012217304902151227
01:00:0A:00:00:00:00;1726618024;18/09/24;00:07:04;1.014;0.0;0.098;-0.006108652334660292;-0.010995574295520782;0.0024434609804302454
01:00:0A:00:00:00:00;1726618025;18/09/24;00:07:05;1.014;0.0;0.098;-0.006108652334660292;-0.010995574295520782;0.0024434609804302454
01:00:0A:00:00:00:00;1726618026;18/09/24;00:07:06;1.014;0.0;0.098;-0.004886921960860491;-0.010995574295520782;0.0012217304902151227
01:00:0A:00:00:00:00;1726618027;18/09/24;00:07:07;1.013;0.0;0.098;-0.004886921960860491;-0.012217304669320583;0.0024434609804302454
01:00:0A:00:00:00:00;1726618028;18/09/24;00:07:08;1.013;0.0;0.098;-0.004886921960860491;-0.010995574295520782;0.0024434609804302454
01:00:0A:00:00:00:00;1726618029;18/09/24;00:07:09;1.013;0.0;0.099;-0.004886921960860491;-0.012217304669320583;0.0012217304902151227
01:00:0A:00:00:00:00;1726618030;18/09/24;00:07:10;1.014;-0.001;0.098;-0.004886921960860491;-0.010995574295520782;0.0024434609804302454
01:00:0A:00:00:00:00;1726618031;18/09/24;00:07:11;1.014;0.0;0.098;-0.004886921960860491;-0.010995574295520782;0.0012217304902151227
01:00:0A:00:00:00:00;1726618032;18/09/24;00:07:12;1.014;0.0;0.098;-0.0036651913542300463;-0.010995574295520782;0.0012217304902151227
01:00:0A:00:00:00:00;1726618033;18/09/24;00:07:13;1.014;0.0;0.097;-0.004886921960860491;-0.010995574295520782;0.0024434609804302454
01:00:0A:00:00:00:00;1726618034;18/09/24;00:07:14;1.015;0.0;0.097;-0.006108652334660292;-0.010995574295520782;0.0024434609804302454
01:00:0A:00:00:00:00;1726618035;18/09/24;00:07:15;1.013;0.0;0.097;-0.006108652334660292;-0.010995574295520782;0.0012217304902151227
01:00:0A:00:00:00:00;1726618036;18/09/24;00:07:16;1.014;0.0;0.098;-0.0073303827084600925;-0.010995574295520782;0.0024434609804302454
01:00:0A:00:00:00:00;1726618037;18/09/24;00:07:17;1.013;0.0;0.098;-0.006108652334660292;-0.012217304669320583;0.0012217304902151227
01:00:0A:00:00:00:00;1726618038;18/09/24;00:07:18;1.013;0.0;0.098;-0.006108652334660292;-0.010995574295520782;0.0012217304902151227
01:00:0A:00:00:00:00;1726618039;18/09/24;00:07:19;1.014;0.0;0.098;-0.006108652334660292;-0.010995574295520782;0.0024434609804302454
01:00:0A:00:00:00:00;1726618040;18/09/24;00:07:20;1.013;-0.001;0.098;-0.006108652334660292;-0.010995574295520782;0.0024434609804302454
01:00:0A:00:00:00:00;1726618041;18/09/24;00:07:21;1.015;0.0;0.098;-0.004886921960860491;-0.012217304669320583;0.0012217304902151227
01:00:0A:00:00:00:00;1726618042;18/09/24;00:07:22;1.013;0.0;0.098;-0.006108652334660292;-0.010995574295520782;0.0024434609804302454
01:00:0A:00:00:00:00;1726618043;18/09/24;00:07:23;1.014;0.0;0.098;-0.0073303827084600925;-0.012217304669320583;0.0024434609804302454
01:00:0A:00:00:00:00;1726618044;18/09/24;00:07:24;1.014;0.0;0.097;-0.00855211354792118;-0.010995574295520782;0.0012217304902151227
01:00:0A:00:00:00:00;1726618045;18/09/24;00:07:25;1.014;0.0;0.098;-0.009773843921720982;-0.010995574295520782;0.0024434609804302454
01:00:0A:00:00:00:00;1726618046;18/09/24;00:07:26;1.013;0.0;0.098;-0.00855211354792118;-0.012217304669320583;0.0024434609804302454
01:00:0A:00:00:00:00;1726618047;18/09/24;00:07:27;1.014;0.0;0.097;-0.0073303827084600925;-0.010995574295520782;0.0012217304902151227
01:00:0A:00:00:00:00;1726618048;18/09/24;00:07:28;1.013;0.0;0.099;-0.00855211354792118;-0.010995574295520782;0.0024434609804302454
01:00:0A:00:00:00:00;1726618049;18/09/24;00:07:29;1.013;0.0;0.099;-0.00855211354792118;-0.012217304669320583;0.0012217304902151227
01:00:0A:00:00:00:00;1726618050;18/09/24;00:07:30;1.014;0.0;0.098;-0.0073303827084600925;-0.010995574295520782;0.0012217304902151227
01:00:0A:00:00:00:00;1726618051;18/09/24;00:07:31;1.014;0.0;0.098;-0.00855211354792118;-0.010995574295520782;0.0012217304902151227
01:00:0A:00:00:00:00;1726618052;18/09/24;00:07:32;1.014;-0.001;0.098;-0.009773843921720982;-0.012217304669320583;0.0024434609804302454
01:00:0A:00:00:00:00;1726618053;18/09/24;00:07:33;1.013;0.0;0.097;-0.012217304669320583;-0.010995574295520782;0.0
01:00:0A:00:00:00:00;1726618054;18/09/24;00:07:34;1.013;0.0;0.098;-0.013439035043120384;-0.010995574295520782;0.0012217304902151227
01:00:0A:00:00:00:00;1726618055;18/09/24;00:07:35;1.014;0.0;0.098;-0.013439035043120384;-0.012217304669320583;0.0024434609804302454
01:00:0A:00:00:00:00;1726618056;18/09/24;00:07:36;1.013;0.0;0.098;-0.012217304669320583;-0.012217304669320583;0.0012217304902151227
01:00:0A:00:00:00:00;1726618057;18/09/24;00:07:37;1.012;0.0;0.099;-0.013439035043120384;-0.010995574295520782;0.0012217304902151227
01:00:0A:00:00:00:00;1726618058;18/09/24;00:07:38;1.014;0.0;0.099;-0.013439035043120384;-0.010995574295520782;0.0012217304902151227
01:00:0A:00:00:00:00;1726618059;18/09/24;00:07:39;1.013;0.0;0.099;-0.013439035043120384;-0.010995574295520782;0.0024434609804302454
01:00:0A:00:00:00:00;1726618060;18/09/24;00:07:40;1.015;0.0;0.098;-0.013439035043120384;-0.012217304669320583;0.0012217304902151227
01:00:0A:00:00:00:00;1726618061;18/09/24;00:07:41;1.014;0.0;0.099;-0.013439035043120384;-0.010995574295520782;0.0012217304902151227
01:00:0A:00:00:00:00;1726618062;18/09/24;00:07:42;1.014;0.0;0.098;-0.014660765416920185;-0.010995574295520782;0.0012217304902151227
01:00:0A:00:00:00:00;1726618063;18/09/24;00:07:43;1.015;0.0;0.099;-0.014660765416920185;-0.010995574295520782;0.0
01:00:0A:00:00:00:00;1726618064;18/09/24;00:07:44;1.013;0.0;0.098;-0.014660765416920185;-0.012217304669320583;0.0024434609804302454
01:00:0A:00:00:00:00;1726618065;18/09/24;00:07:45;1.013;0.0;0.097;-0.014660765416920185;-0.012217304669320583;0.0012217304902151227
01:00:0A:00:00:00:00;1726618066;18/09/24;00:07:46;1.014;0.0;0.097;-0.015882495790719986;-0.010995574295520782;0.0
01:00:0A:00:00:00:00;1726618067;18/09/24;00:07:47;1.015;0.0;0.098;-0.01710422709584236;-0.010995574295520782;0.0
01:00:0A:00:00:00:00;1726618068;18/09/24;00:07:48;1.014;0.0;0.099;-0.01710422709584236;-0.012217304669320583;0.0024434609804302454
01:00:0A:00:00:00:00;1726618069;18/09/24;00:07:49;0.995;-0.031;0.104;-0.006108652334660292;0.051312677562236786;0.05864306166768074
01:00:0A:00:00:00:00;1726618070;18/09/24;00:07:50;0.936;0.238;0.029;-0.22846359014511108;-0.22357667982578278;-0.2223549485206604
01:00:0A:00:00:00:00;1726618071;18/09/24;00:07:51;0.975;0.153;0.178;-1.303586483001709;-1.242499828338623;0.6743952035903931
01:00:0A:00:00:00:00;1726618072;18/09/24;00:07:52;0.824;0.257;-0.309;-1.6468926668167114;-0.3152064383029938;0.6401867866516113
01:00:0A:00:00:00:00;1726618073;18/09/24;00:07:53;0.834;-0.356;0.11;-1.2034045457839966;0.588874101638794;-0.0757472887635231
01:00:0A:00:00:00:00;1726618074;18/09/24;00:07:54;0.906;-0.285;0.274;-0.5913175940513611;-0.05375614017248154;-1.9987510442733765
01:00:0A:00:00:00:00;1726618075;18/09/24;00:07:55;0.822;0.517;0.244;-1.0555751323699951;-0.8246681094169617;-0.2125810980796814
01:00:0A:00:00:00:00;1726618076;18/09/24;00:07:56;1.026;-0.094;-0.053;-1.1557570695877075;0.15027284622192383;0.8026769161224365
01:00:0A:00:00:00:00;1726618077;18/09/24;00:07:57;0.966;-0.21;0.216;-0.6059783101081848;0.626747727394104;-0.28099802136421204
01:00:0A:00:00:00:00;1726618078;18/09/24;00:07:58;0.923;-0.009;0.332;-0.9321803450584412;-0.18081611394882202;-0.3127630054950714
01:00:0A:00:00:00:00;1726618079;18/09/24;00:07:59;0.914;0.204;0.294;-0.9236282110214233;-1.312138557434082;-1.0751228332519531
01:00:0A:00:00:00:00;1726618080;18/09/24;00:08:00;0.841;0.284;0.493;-1.7910568714141846;-0.036651913076639175;0.080634206533432
01:00:0A:00:00:00:00;1726618081;18/09/24;00:08:01;1.013;-0.129;0.3;-1.2009611129760742;-1.0506882667541504;-1.0189231634140015
01:00:0A:00:00:00:00;1726618082;18/09/24;00:08:02;0.894;0.495;-0.079;-1.918116807937622;0.0659734457731247;0.2125810980796814
01:00:0A:00:00:00:00;1726618083;18/09/24;00:08:03;0.854;-0.774;-0.192;-2.370157241821289;0.019547687843441963;-0.09407324343919754
01:00:0A:00:00:00:00;1726618084;18/09/24;00:08:04;0.923;0.139;0.514;-1.8374826908111572;-0.16982054710388184;-0.322536826133728
01:00:0A:00:00:00:00;1726618085;18/09/24;00:08:05;1.004;-0.251;0.275;-0.9908234477043152;-0.6291911602020264;-0.46181410551071167
01:00:0A:00:00:00:00;1726618086;18/09/24;00:08:06;0.901;0.376;-0.26;-1.2180652618408203;-0.059864792972803116;0.04764748737215996
01:00:0A:00:00:00:00;1726618087;18/09/24;00:08:07;1.043;-0.099;-0.012;-1.5320500135421753;-0.04642575979232788;0.251676470041275
01:00:0A:00:00:00:00;1726618088;18/09/24;00:08:08;0.687;0.902;0.179;-1.350012183189392;-0.1111774742603302;-2.2259929180145264
01:00:0A:00:00:00:00;1726618089;18/09/24;00:08:09;0.936;-0.345;-0.426;-1.4880677461624146;0.09529497474431992;0.02321287989616394
01:00:0A:00:00:00:00;1726618090;18/09/24;00:08:10;1.001;-0.107;0.428;-1.2131783962249756;0.7525859475135803;0.09651670604944229
01:00:0A:00:00:00:00;1726618091;18/09/24;00:08:11;0.953;-0.454;0.177;0.26511549949645996;-0.5326744914054871;-0.6768386960029602
01:00:0A:00:00:00:00;1726618092;18/09/24;00:08:12;0.968;0.325;-0.151;0.0036651913542300463;0.06963863223791122;0.1160643920302391
01:00:0A:00:00:00:00;1726618093;18/09/24;00:08:13;0.982;-0.174;0.29;-0.024434609338641167;-0.2076941877603531;0.2687807083129883
01:00:0A:00:00:00:00;1726618094;18/09/24;00:08:14;0.771;-0.745;0.414;0.9712756872177124;0.6548475623130798;1.0445796251296997
01:00:0A:00:00:00:00;1726618095;18/09/24;00:08:15;0.997;-0.139;0.318;1.3329079151153564;0.04153883829712868;-0.6878342032432556
01:00:0A:00:00:00:00;1726618096;18/09/24;00:08:16;0.789;0.595;0.0;0.09896016865968704;0.4447098970413208;0.5827654600143433
01:00:0A:00:00:00:00;1726618097;18/09/24;00:08:17;1.006;-0.129;0.088;-0.39095374941825867;-0.7049384713172913;0.6084217429161072
01:00:0A:00:00:00:00;1726618098;18/09/24;00:08:18;0.891;-0.126;-0.365;-0.14049901068210602;1.0140362977981567;0.7464773058891296
01:00:0A:00:00:00:00;1726618099;18/09/24;00:08:19;0.844;-0.423;0.484;-0.02321287989616394;-0.27000245451927185;-1.086118459701538
01:00:0A:00:00:00:00;1726618100;18/09/24;00:08:20;0.895;0.196;0.483;0.3494149148464203;-0.30543261766433716;-1.0494663715362549
01:00:0A:00:00:00:00;1726618101;18/09/24;00:08:21;0.74;0.587;0.378;-0.6585127115249634;-0.43249258399009705;0.4899139106273651
01:00:0A:00:00:00:00;1726618102;18/09/24;00:08:22;0.94;0.441;0.051;-1.1911872625350952;-0.6829473376274109;-0.5363396406173706
01:00:0A:00:00:00:00;1726618103;18/09/24;00:08:23;0.884;0.262;0.667;-1.3964378833770752;-0.4495967924594879;-0.2981022298336029
01:00:0A:00:00:00:00;1726618104;18/09/24;00:08:24;1.042;0.263;0.047;-1.4966198205947876;-1.2486084699630737;-0.17592918872833252
01:00:0A:00:00:00:00;1726618105;18/09/24;00:08:25;0.946;0.034;0.507;-1.7495180368423462;0.025656338781118393;0.05497787147760391
01:00:0A:00:00:00:00;1726618106;18/09/24;00:08:26;0.904;0.411;-0.211;-1.4575244188308716;-0.4862487316131592;-0.40072759985923767
01:00:0A:00:00:00:00;1726618107;18/09/24;00:08:27;1.016;-0.007;0.047;-1.8448129892349243;-0.4862487316131592;-0.3286454975605011
01:00:0A:00:00:00:00;1726618108;18/09/24;00:08:28;0.705;0.617;0.623;-1.8057177066802979;0.13439035415649414;-0.7538076639175415
01:00:0A:00:00:00:00;1726618109;18/09/24;00:08:29;0.895;0.041;0.467;-0.5656611919403076;-1.6542229652404785;-0.9676105380058289
01:00:0A:00:00:00:00;1726618110;18/09/24;00:08:30;0.915;0.219;-0.336;-1.1716395616531372;-0.41172316670417786;0.26145032048225403
01:00:0A:00:00:00:00;1726618111;18/09/24;00:08:31;0.963;-0.144;0.156;-1.2852604389190674;0.22479839622974396;-0.22846359014511108
01:00:0A:00:00:00:00;1726618112;18/09/24;00:08:32;0.994;0.085;0.17;-2.1001548767089844;0.6951646208763123;-0.08307767659425735
01:00:0A:00:00:00:00;1726618113;18/09/24;00:08:33;0.842;-0.318;0.412;-1.0128145217895508;0.3323107063770294;-1.0189231634140015
01:00:0A:00:00:00:00;1726618114;18/09/24;00:08:34;0.887;0.162;0.35;-0.20891590416431427;-1.3866640329360962;-0.42271876335144043
01:00:0A:00:00:00:00;1726618115;18/09/24;00:08:35;0.715;0.739;-0.278;-0.5729915499687195;-0.6255260109901428;-2.1710150241851807
01:00:0A:00:00:00:00;1726618116;18/09/24;00:08:36;1.043;-0.274;-0.127;-0.9798278212547302;-0.38728854060173035;0.09773843735456467
01:00:0A:00:00:00:00;1726618117;18/09/24;00:08:37;0.82;0.496;-0.133;-0.46303585171699524;-0.9578366875648499;-1.4611897468566895
01:00:0A:00:00:00:00;1726618118;18/09/24;00:08:38;0.969;-0.325;0.096;-0.93095862865448;-0.23457224667072296;0.875980794429779
01:00:0A:00:00:00:00;1726618119;18/09/24;00:08:39;0.944;0.104;-0.161;-0.5485569834709167;0.22602014243602753;-0.3017674386501312
01:00:0A:00:00:00:00;1726618120;18/09/24;00:08:40;0.881;0.016;0.324;-0.37751471996307373;0.18325956165790558;-0.2895500957965851
01:00:0A:00:00:00:00;1726618121;18/09/24;00:08:41;0.919;0.156;0.164;-0.13439035415649414;-1.1105530261993408;0.08429940044879913
01:00:0A:00:00:00:00;1726618122;18/09/24;00:08:42;0.929;-0.072;-0.112;-0.4740314185619354;0.14294245839118958;0.15393804013729095
01:00:0A:00:00:00:00;1726618123;18/09/24;00:08:43;0.957;-0.323;0.076;-0.13805554807186127;0.24068090319633484;-0.36651912331581116
01:00:0A:00:00:00:00;1726618124;18/09/24;00:08:44;0.968;0.107;0.087;-0.02321287989616394;-1.1826351881027222;-0.09773843735456467
01:00:0A:00:00:00:00;1726618125;18/09/24;00:08:45;0.97;-0.001;-0.221;-1.6016886234283447;0.5668829083442688;1.1826351881027222
01:00:0A:00:00:00:00;1726618126;18/09/24;00:08:46;0.835;-0.45;0.239;-1.0054842233657837;1.1313223838806152;-0.05864306166768074
01:00:0A:00:00:00:00;1726618127;18/09/24;00:08:47;0.913;0.312;0.149;-0.6120869517326355;-0.929736852645874;-0.998153805732727
01:00:0A:00:00:00:00;1726618128;18/09/24;00:08:48;0.873;0.462;-0.106;0.5057964324951172;-1.3878858089447021;-1.1410963535308838
01:00:0A:00:00:00:00;1726618129;18/09/24;00:08:49;0.987;0.188;0.348;-0.5167919993400574;-0.2626720666885376;0.31031954288482666
01:00:0A:00:00:00:00;1726618130;18/09/24;00:08:50;0.702;-0.085;-0.364;-0.24556782841682434;-3.519805431365967;1.9413297176361084
01:00:0A:00:00:00:00;1726618131;18/09/24;00:08:51;0.857;-0.03;-0.616;-0.9944885969161987;0.8539896011352539;0.2895500957965851
01:00:0A:00:00:00:00;1726618132;18/09/24;00:08:52;0.574;-0.518;-0.943;-1.2473868131637573;-0.5546656250953674;0.5216788649559021
01:00:0A:00:00:00:00;1726618133;18/09/24;00:08:53;1.087;-0.216;0.068;-1.1423180103302002;1.1472049951553345;-0.5962044596672058
01:00:0A:00:00:00:00;1726618134;18/09/24;00:08:54;0.909;0.366;0.576;-1.1679743528366089;-0.42638394236564636;-0.3384193480014801
01:00:0A:00:00:00:00;1726618135;18/09/24;00:08:55;0.949;0.328;-0.264;-1.214400053024292;-0.7892378568649292;0.06719517707824707
01:00:0A:00:00:00:00;1726618136;18/09/24;00:08:56;0.834;0.447;-0.522;-1.7006487846374512;-1.7800612449645996;0.6890559792518616
01:00:0A:00:00:00:00;1726618137;18/09/24;00:08:57;0.73;-0.096;0.832;-1.0152579545974731;1.2107348442077637;-0.6536257863044739
01:00:0A:00:00:00:00;1726618138;18/09/24;00:08:58;0.763;-0.796;0.122;-1.3988813161849976;1.19607412815094;2.442239284515381
01:00:0A:00:00:00:00;1726618139;18/09/24;00:08:59;0.909;-0.062;0.017;-0.49724429845809937;-0.9627236127853394;1.370781660079956
01:00:0A:00:00:00:00;1726618140;18/09/24;00:09:00;0.871;0.12;0.316;0.2076941877603531;0.0659734457731247;-2.0476202964782715
01:00:0A:00:00:00:00;1726618141;18/09/24;00:09:01;0.775;-0.5;0.501;-0.025656338781118393;0.12950342893600464;-0.5351179242134094
01:00:0A:00:00:00:00;1726618142;18/09/24;00:09:02;0.844;-0.459;0.447;0.2736676335334778;-0.20525071024894714;-0.3579670488834381
01:00:0A:00:00:00:00;1726618143;18/09/24;00:09:03;0.943;0.312;0.251;-0.9712756872177124;-0.9028588533401489;-0.7024949789047241
01:00:0A:00:00:00:00;1726618144;18/09/24;00:09:04;1.014;-0.007;-0.311;-1.663996934890747;0.31642818450927734;0.5387831330299377
01:00:0A:00:00:00:00;1726618145;18/09/24;00:09:05;0.956;-0.564;0.097;-1.243721604347229;0.7770205736160278;-0.36651912331581116
01:00:0A:00:00:00:00;1726618146;18/09/24;00:09:06;0.894;0.132;0.447;-1.252273678779602;-0.4312708377838135;-1.2498303651809692
01:00:0A:00:00:00:00;1726618147;18/09/24;00:09:07;0.991;0.367;-0.126;-0.14049901068210602;0.06352998316287994;0.9260717034339905
01:00:0A:00:00:00:00;1726618148;18/09/24;00:09:08;0.908;0.0;-0.366;-0.3188716471195221;-0.2370157092809677;-0.24190263450145721
01:00:0A:00:00:00:00;1726618149;18/09/24;00:09:09;0.924;0.337;-0.033;-0.8881980776786804;0.6524040699005127;0.5571090579032898
01:00:0A:00:00:00:00;1726618150;18/09/24;00:09:10;0.706;-0.836;-0.335;-0.44348815083503723;-1.1386528015136719;1.469741702079773
01:00:0A:00:00:00:00;1726618151;18/09/24;00:09:11;1.063;-0.13;-0.247;0.1771509200334549;0.5656611919403076;-0.921184778213501
01:00:0A:00:00:00:00;1726618152;18/09/24;00:09:12;0.844;0.136;0.617;-0.045204028487205505;-0.2223549485206604;0.43860122561454773
01:00:0A:00:00:00:00;1726618153;18/09/24;00:09:13;0.9;-0.333;-0.224;-0.025656338781118393;-0.5583308339118958;0.6780604124069214
01:00:0A:00:00:00:00;1726618154;18/09/24;00:09:14;0.918;-0.473;0.021;0.5717698335647583;0.39095374941825867;-0.08674286305904388
01:00:0A:00:00:00:00;1726618155;18/09/24;00:09:15;0.893;-0.362;0.042;1.0335839986801147;-1.2119566202163696;-0.2993239760398865
01:00:0A:00:00:00:00;1726618156;18/09/24;00:09:16;0.995;0.017;-0.061;1.274264931678772;-0.36529743671417236;-0.9431759119033813
01:00:0A:00:00:00:00;1726618157;18/09/24;00:09:17;0.865;0.181;-0.324;0.20525071024894714;0.2272418737411499;1.1814132928848267
01:00:0A:00:00:00:00;1726618158;18/09/24;00:09:18;0.708;-0.534;0.354;0.7721336483955383;0.9150761365890503;-0.4642575681209564
01:00:0A:00:00:00:00;1726618159;18/09/24;00:09:19;0.534;0.52;0.686;0.7574728727340698;-0.5839871764183044;-1.1948524713516235
01:00:0A:00:00:00:00;1726618160;18/09/24;00:09:20;0.798;0.597;-0.076;-1.2547171115875244;-1.3952162265777588;0.10995574295520782
01:00:0A:00:00:00:00;1726618161;18/09/24;00:09:21;0.99;-0.133;0.012;-1.9889771938323975;0.8136724829673767;0.7367035150527954
01:00:0A:00:00:00:00;1726618162;18/09/24;00:09:22;0.937;-0.145;0.056;-1.0775662660598755;0.2871066629886627;-0.8442157506942749
01:00:0A:00:00:00:00;1726618163;18/09/24;00:09:23;0.571;0.886;0.021;-1.2217304706573486;-0.3335324227809906;-0.3946189284324646
01:00:0A:00:00:00:00;1726618164;18/09/24;00:09:24;0.718;0.232;0.68;-1.4196507930755615;-1.569923758506775;-0.3689626157283783
01:00:0A:00:00:00:00;1726618165;18/09/24;00:09:25;1.021;0.117;-0.001;-1.4636330604553223;-0.5290092825889587;0.49357908964157104
01:00:0A:00:00:00:00;1726618166;18/09/24;00:09:26;0.992;0.061;-0.325;-1.186300277709961;0.8210028409957886;-0.06841690838336945
01:00:0A:00:00:00:00;1726618167;18/09/24;00:09:27;0.936;-0.039;0.305;-1.1508700847625732;0.1918116807937622;0.5571090579032898
01:00:0A:00:00:00:00;1726618168;18/09/24;00:09:28;0.977;0.055;-0.391;-1.5418238639831543;0.31154125928878784;-0.7672467231750488
01:00:0A:00:00:00:00;1726618169;18/09/24;00:09:29;0.877;-0.389;0.279;-1.1520917415618896;-0.7061601877212524;0.5949827432632446
01:00:0A:00:00:00:00;1726618170;18/09/24;00:09:30;0.832;-0.453;-0.246;-0.19425514340400696;-0.7623597979545593;2.965139865875244
01:00:0A:00:00:00:00;1726618171;18/09/24;00:09:31;0.973;-0.241;0.247;0.6670648455619812;-0.13805554807186127;-1.214400053024292
01:00:0A:00:00:00:00;1726618172;18/09/24;00:09:32;0.942;0.057;-0.395;0.42149701714515686;-0.19914205372333527;0.28099802136421204
01:00:0A:00:00:00:00;1726618173;18/09/24;00:09:33;1.013;-0.201;-0.047;0.5314527750015259;0.3848450779914856;-0.09529497474431992
01:00:0A:00:00:00:00;1726618174;18/09/24;00:09:34;1.046;-0.042;0.003;0.5900958180427551;-0.598647952079773;-0.045204028487205505
01:00:0A:00:00:00:00;1726618175;18/09/24;00:09:35;1.055;-0.06;0.042;0.3640756905078888;0.09040805697441101;0.030543262138962746
01:00:0A:00:00:00:00;1726618176;18/09/24;00:09:36;1.01;0.308;0.303;0.09529497474431992;-0.21013763546943665;-0.455705463886261
01:00:0A:00:00:00:00;1726618177;18/09/24;00:09:37;0.98;-0.141;-0.383;-0.5937609672546387;0.04764748737215996;0.7904595732688904
01:00:0A:00:00:00:00;1726618178;18/09/24;00:09:38;0.974;-0.38;-0.257;-0.2076941877603531;0.17959438264369965;0.7880162000656128
01:00:0A:00:00:00:00;1726618179;18/09/24;00:09:39;0.896;-0.519;0.413;0.6572909951210022;-0.22846359014511108;-0.3579670488834381
01:00:0A:00:00:00:00;1726618180;18/09/24;00:09:40;0.818;0.022;-0.481;0.5827654600143433;-0.7941248416900635;0.4202752709388733
01:00:0A:00:00:00:00;1726618181;18/09/24;00:09:41;0.902;0.132;0.291;0.607200026512146;0.22968533635139465;0.9480628371238708
01:00:0A:00:00:00:00;1726618182;18/09/24;00:09:42;0.944;-0.157;-0.164;-0.13927726447582245;-0.8576548099517822;1.0812314748764038
01:00:0A:00:00:00:00;1726618183;18/09/24;00:09:43;0.865;-0.135;0.378;0.1918116807937622;0.4691444933414459;-1.225395679473877
01:00:0A:00:00:00:00;1726618184;18/09/24;00:09:44;0.885;0.174;-0.27;-0.4899139106273651;-0.862541675567627;0.4642575681209564
01:00:0A:00:00:00:00;1726618185;18/09/24;00:09:45;0.935;0.111;-0.315;-1.0299187898635864;1.2498303651809692;0.4288274049758911
01:00:0A:00:00:00:00;1726618186;18/09/24;00:09:46;0.915;-0.121;0.405;-0.7953465580940247;-0.12217304855585098;-0.5400049090385437
01:00:0A:00:00:00:00;1726618187;18/09/24;00:09:47;0.921;0.372;0.259;-0.7574728727340698;-0.3433062732219696;-0.5057964324951172
01:00:0A:00:00:00:00;1726618188;18/09/24;00:09:48;0.786;0.544;0.443;-1.1508700847625732;-0.32009339332580566;-0.3738495111465454
01:00:0A:00:00:00:00;1726618189;18/09/24;00:09:49;0.923;0.22;-0.189;-1.3854423761367798;-0.998153805732727;0.013439035043120384
01:00:0A:00:00:00:00;1726618190;18/09/24;00:09:50;0.971;0.146;-0.092;0.37751471996307373;-0.7049384713172913;0.6658430695533752
01:00:0A:00:00:00:00;1726618191;18/09/24;00:09:51;0.973;-0.202;0.194;-0.3701843321323395;0.3995058536529541;0.1966986060142517
01:00:0A:00:00:00:00;1726618192;18/09/24;00:09:52;0.981;-0.291;0.22;0.50335294008255;-0.18814648687839508;-0.06719517707824707
01:00:0A:00:00:00:00;1726618193;18/09/24;00:09:53;1.038;-0.164;0.053;0.8014551997184753;-0.14416420459747314;-0.05497787147760391
01:00:0A:00:00:00:00;1726618194;18/09/24;00:09:54;1.011;-0.127;-0.011;0.8112289905548096;-0.06719517707824707;-0.05375614017248154
01:00:0A:00:00:00:00;1726618195;18/09/24;00:09:55;1.016;-0.044;-0.065;0.7733554244041443;-0.1820378452539444;-0.08796459436416626
01:00:0A:00:00:00:00;1726618196;18/09/24;00:09:56;0.984;-0.132;-0.203;0.5803219676017761;-0.1563815027475357;0.10873401165008545
01:00:0A:00:00:00:00;1726618197;18/09/24;00:09:57;0.967;-0.262;0.064;0.8051203489303589;0.3677408695220947;-0.21624629199504852
01:00:0A:00:00:00:00;1726618198;18/09/24;00:09:58;0.943;0.189;0.047;0.7489207983016968;-0.2174680233001709;-0.19547687470912933
01:00:0A:00:00:00:00;1726618199;18/09/24;00:09:59;0.976;0.019;0.098;0.039095375686883926;0.5607742667198181;0.6096435189247131
01:00:0A:00:00:00:00;1726618200;18/09/24;00:10:00;0.932;-0.139;0.349;0.6658430695533752;-0.626747727394104;-0.24190263450145721
01:00:0A:00:00:00:00;1726618201;18/09/24;00:10:01;1.016;0.023;-0.132;0.4337143301963806;-0.1966986060142517;0.19547687470912933
01:00:0A:00:00:00:00;1726618202;18/09/24;00:10:02;1.012;-0.102;0.172;0.35185837745666504;0.42760565876960754;0.10506881773471832
01:00:0A:00:00:00:00;1726618203;18/09/24;00:10:03;0.972;0.091;0.294;0.607200026512146;-0.019547687843441963;-0.0757472887635231
01:00:0A:00:00:00:00;1726618204;18/09/24;00:10:04;1.007;0.084;-0.015;0.1319468915462494;-0.16004669666290283;-0.2638937830924988
01:00:0A:00:00:00:00;1726618205;18/09/24;00:10:05;0.989;0.162;-0.122;0.38117989897727966;-0.0073303827084600925;-0.1417207270860672
01:00:0A:00:00:00:00;1726618206;18/09/24;00:10:06;1.0;0.144;0.02;0.5143485069274902;0.2015855312347412;0.004886921960860491
01:00:0A:00:00:00:00;1726618207;18/09/24;00:10:07;0.981;0.113;0.284;0.16493360698223114;0.12095131725072861;0.2626720666885376
01:00:0A:00:00:00:00;1726618208;18/09/24;00:10:08;1.006;-0.06;0.195;0.3445279896259308;-0.2076941877603531;0.10018189996480942
01:00:0A:00:00:00:00;1726618209;18/09/24;00:10:09;1.014;0.024;0.064;0.38117989897727966;0.05253440886735916;-0.18936821818351746
01:00:0A:00:00:00:00;1726618210;18/09/24;00:10:10;0.999;0.054;0.077;0.11972958594560623;0.10506881773471832;0.09896016865968704
01:00:0A:00:00:00:00;1726618211;18/09/24;00:10:11;1.013;-0.122;0.071;0.17348572611808777;0.009773843921720982;0.16004669666290283
01:00:0A:00:00:00:00;1726618212;18/09/24;00:10:12;1.012;-0.052;0.088;0.23457224667072296;-0.02076941914856434;-0.030543262138962746
01:00:0A:00:00:00:00;1726618213;18/09/24;00:10:13;1.011;0.047;0.107;0.1673770695924759;0.04764748737215996;0.0
01:00:0A:00:00:00:00;1726618214;18/09/24;00:10:14;0.997;0.0;0.131;0.12950342893600464;-0.013439035043120384;0.09040805697441101
01:00:0A:00:00:00:00;1726618215;18/09/24;00:10:15;0.999;-0.008;0.097;0.1771509200334549;-0.05009094998240471;0.012217304669320583
01:00:0A:00:00:00:00;1726618216;18/09/24;00:10:16;1.009;0.056;0.109;0.13316862285137177;0.036651913076639175;0.0012217304902151227
01:00:0A:00:00:00:00;1726618217;18/09/24;00:10:17;1.016;0.051;0.137;0.08552113175392151;0.0036651913542300463;0.07941248267889023
01:00:0A:00:00:00:00;1726618218;18/09/24;00:10:18;1.014;0.006;0.137;0.2773328125476837;-0.05742133408784866;-0.10262535512447357
01:00:0A:00:00:00:00;1726618219;18/09/24;00:10:19;1.003;0.051;0.127;0.35185837745666504;-0.042760565876960754;-0.05742133408784866
01:00:0A:00:00:00:00;1726618220;18/09/24;00:10:20;0.995;0.014;0.145;0.27611109614372253;-0.045204028487205505;0.09162978082895279
01:00:0A:00:00:00:00;1726618221;18/09/24;00:10:21;1.01;0.007;0.133;0.29565879702568054;-0.1368338167667389;0.04764748737215996
01:00:0A:00:00:00:00;1726618222;18/09/24;00:10:22;1.006;0.028;0.101;0.33108896017074585;0.018325956538319588;-0.00855211354792118
01:00:0A:00:00:00:00;1726618223;18/09/24;00:10:23;1.025;0.062;0.16;0.23335053026676178;0.03298672288656235;0.08796459436416626
01:00:0A:00:00:00:00;1726618224;18/09/24;00:10:24;1.04;-0.031;0.136;0.2883284091949463;0.0;0.004886921960860491
01:00:0A:00:00:00:00;1726618225;18/09/24;00:10:25;1.034;0.001;0.109;0.33108896017074585;0.006108652334660292;-0.06841690838336945
01:00:0A:00:00:00:00;1726618226;18/09/24;00:10:26;1.017;0.027;0.121;0.22846359014511108;0.059864792972803116;0.03298672288656235
01:00:0A:00:00:00:00;1726618227;18/09/24;00:10:27;0.996;-0.005;0.144;0.21624629199504852;0.009773843921720982;0.06963863223791122
01:00:0A:00:00:00:00;1726618228;18/09/24;00:10:28;0.996;0.006;0.096;0.26511549949645996;-0.06230825558304787;-0.019547687843441963
01:00:0A:00:00:00:00;1726618229;18/09/24;00:10:29;0.998;0.01;0.095;0.19425514340400696;0.012217304669320583;0.015882495790719986
01:00:0A:00:00:00:00;1726618230;18/09/24;00:10:30;1.004;-0.007;0.159;0.16859880089759827;-0.0659734457731247;0.08429940044879913
01:00:0A:00:00:00:00;1726618231;18/09/24;00:10:31;1.019;-0.002;0.119;0.17470745742321014;-0.04764748737215996;0.08918632566928864
01:00:0A:00:00:00:00;1726618232;18/09/24;00:10:32;1.035;0.041;0.119;0.1514945775270462;0.04153883829712868;0.05009094998240471
01:00:0A:00:00:00:00;1726618233;18/09/24;00:10:33;1.029;0.047;0.145;0.1417207270860672;0.00855211354792118;0.025656338781118393
01:00:0A:00:00:00:00;1726618234;18/09/24;00:10:34;1.009;0.037;0.119;0.1319468915462494;-0.006108652334660292;-0.006108652334660292
01:00:0A:00:00:00:00;1726618235;18/09/24;00:10:35;0.991;0.03;0.1;0.09651670604944229;0.039095375686883926;-0.014660765416920185
01:00:0A:00:00:00:00;1726618236;18/09/24;00:10:36;0.976;0.011;0.106;0.07208210229873657;-0.019547687843441963;0.01710422709584236
01:00:0A:00:00:00:00;1726618237;18/09/24;00:10:37;0.989;0.008;0.116;0.07208210229873657;-0.06230825558304787;0.019547687843441963
01:00:0A:00:00:00:00;1726618238;18/09/24;00:10:38;0.993;0.02;0.11;0.042760565876960754;-0.04886921867728233;0.01710422709584236
01:00:0A:00:00:00:00;1726618239;18/09/24;00:10:39;1.028;0.012;0.126;0.030543262138962746;-0.07696902006864548;0.06230825558304787
01:00:0A:00:00:00:00;1726618240;18/09/24;00:10:40;1.052;0.028;0.107;0.021991148591041565;-0.02321287989616394;-0.014660765416920185
01:00:0A:00:00:00:00;1726618241;18/09/24;00:10:41;1.06;0.031;0.162;0.015882495790719986;-0.0036651913542300463;0.004886921960860491
01:00:0A:00:00:00:00;1726618242;18/09/24;00:10:42;1.053;0.016;0.095;0.0036651913542300463;0.019547687843441963;-0.015882495790719986
01:00:0A:00:00:00:00;1726618243;18/09/24;00:10:43;1.001;0.018;0.13;-0.0073303827084600925;0.10506881773471832;-0.028099799528717995
01:00:0A:00:00:00:00;1726618244;18/09/24;00:10:44;0.991;0.032;0.115;-0.0024434609804302454;-0.04398229718208313;-0.0073303827084600925
01:00:0A:00:00:00:00;1726618245;18/09/24;00:10:45;0.976;0.014;0.12;-0.018325956538319588;0.006108652334660292;-0.010995574295520782
01:00:0A:00:00:00:00;1726618246;18/09/24;00:10:46;0.979;0.009;0.15;-0.01710422709584236;0.06230825558304787;0.0012217304902151227
01:00:0A:00:00:00:00;1726618247;18/09/24;00:10:47;0.991;0.01;0.116;0.004886921960860491;-0.042760565876960754;0.036651913076639175
01:00:0A:00:00:00:00;1726618248;18/09/24;00:10:48;1.02;0.014;0.067;-0.0073303827084600925;-0.019547687843441963;0.03176499158143997
01:00:0A:00:00:00:00;1726618249;18/09/24;00:10:49;1.03;0.03;0.132;0.0073303827084600925;-0.09529497474431992;0.004886921960860491
01:00:0A:00:00:00:00;1726618250;18/09/24;00:10:50;1.039;0.029;0.131;-0.0024434609804302454;-0.080634206533432;0.0012217304902151227
01:00:0A:00:00:00:00;1726618251;18/09/24;00:10:51;1.03;0.024;0.143;-0.028099799528717995;0.024434609338641167;-0.012217304669320583
01:00:0A:00:00:00:00;1726618252;18/09/24;00:10:52;1.011;0.026;0.123;-0.02687807008624077;0.06108652427792549;-0.036651913076639175
01:00:0A:00:00:00:00;1726618253;18/09/24;00:10:53;1.0;0.009;0.102;-0.01710422709584236;-0.015882495790719986;-0.019547687843441963
01:00:0A:00:00:00:00;1726618254;18/09/24;00:10:54;0.995;0.012;0.109;-0.014660765416920185;-0.03420845419168472;-0.00855211354792118
01:00:0A:00:00:00:00;1726618255;18/09/24;00:10:55;1.002;0.011;0.139;-0.02687807008624077;-0.03420845419168472;0.04153883829712868
01:00:0A:00:00:00:00;1726618256;18/09/24;00:10:56;1.016;0.024;0.123;-0.00855211354792118;-0.0024434609804302454;0.009773843921720982
01:00:0A:00:00:00:00;1726618257;18/09/24;00:10:57;1.02;0.023;0.114;0.06230825558304787;0.05497787147760391;-0.018325956538319588
01:00:0A:00:00:00:00;1726618258;18/09/24;00:10:58;1.01;0.045;0.151;0.19425514340400696;-0.02687807008624077;0.010995574295520782
01:00:0A:00:00:00:00;1726618259;18/09/24;00:10:59;1.004;0.047;0.138;0.24068090319633484;-0.04153883829712868;0.04886921867728233
01:00:0A:00:00:00:00;1726618260;18/09/24;00:11:00;1.006;0.013;0.13;0.24923302233219147;-0.0024434609804302454;0.039095375686883926
01:00:0A:00:00:00:00;1726618261;18/09/24;00:11:01;1.014;0.014;0.113;0.2626720666885376;0.006108652334660292;-0.02321287989616394
01:00:0A:00:00:00:00;1726618262;18/09/24;00:11:02;1.016;0.023;0.119;0.2028072476387024;-0.010995574295520782;0.039095375686883926
01:00:0A:00:00:00:00;1726618263;18/09/24;00:11:03;1.014;0.014;0.131;0.18081611394882202;-0.004886921960860491;0.06841690838336945
01:00:0A:00:00:00:00;1726618264;18/09/24;00:11:04;1.015;0.026;0.128;0.21013763546943665;-0.0073303827084600925;-0.010995574295520782
01:00:0A:00:00:00:00;1726618265;18/09/24;00:11:05;1.014;0.03;0.126;0.18570303916931152;0.028099799528717995;0.0073303827084600925
01:00:0A:00:00:00:00;1726618266;18/09/24;00:11:06;1.005;0.013;0.117;0.17104226350784302;-0.0036651913542300463;0.030543262138962746
01:00:0A:00:00:00:00;1726618267;18/09/24;00:11:07;0.997;0.026;0.127;0.1771509200334549;-0.006108652334660292;0.015882495790719986
01:00:0A:00:00:00:00;1726618268;18/09/24;00:11:08;1.002;0.043;0.112;0.16371189057826996;-0.030543262138962746;0.013439035043120384
01:00:0A:00:00:00:00;1726618269;18/09/24;00:11:09;1.009;0.029;0.127;0.14416420459747314;-0.012217304669320583;-0.010995574295520782
01:00:0A:00:00:00:00;1726618270;18/09/24;00:11:10;1.012;0.014;0.138;0.1417207270860672;-0.036651913076639175;-0.014660765416920185
01:00:0A:00:00:00:00;1726618271;18/09/24;00:11:11;1.014;0.009;0.125;0.10384709388017654;-0.015882495790719986;0.04153883829712868
01:00:0A:00:00:00:00;1726618272;18/09/24;00:11:12;1.021;0.019;0.142;0.08552113175392151;0.018325956538319588;0.02687807008624077
01:00:0A:00:00:00:00;1726618273;18/09/24;00:11:13;1.021;0.03;0.132;0.08307767659425735;0.004886921960860491;0.014660765416920185
01:00:0A:00:00:00:00;1726618274;18/09/24;00:11:14;1.02;0.024;0.126;0.0708603635430336;0.013439035043120384;0.0
01:00:0A:00:00:00:00;1726618275;18/09/24;00:11:15;1.009;0.025;0.124;0.045204028487205505;0.024434609338641167;0.0073303827084600925
01:00:0A:00:00:00:00;1726618276;18/09/24;00:11:16;1.008;0.029;0.118;0.03420845419168472;0.0;0.0073303827084600925
01:00:0A:00:00:00:00;1726618277;18/09/24;00:11:17;1.001;0.037;0.109;0.013439035043120384;-0.0073303827084600925;-0.0036651913542300463
01:00:0A:00:00:00:00;1726618278;18/09/24;00:11:18;0.991;0.021;0.111;0.0036651913542300463;-0.03298672288656235;-0.0036651913542300463
01:00:0A:00:00:00:00;1726618279;18/09/24;00:11:19;0.984;0.011;0.122;-0.0036651913542300463;-0.03176499158143997;0.009773843921720982
01:00:0A:00:00:00:00;1726618280;18/09/24;00:11:20;1.005;0.017;0.126;0.0024434609804302454;-0.06719517707824707;0.02076941914856434
01:00:0A:00:00:00:00;1726618281;18/09/24;00:11:21;1.024;0.022;0.129;-0.0024434609804302454;-0.010995574295520782;0.02076941914856434
01:00:0A:00:00:00:00;1726618282;18/09/24;00:11:22;1.038;0.026;0.151;0.013439035043120384;0.0012217304902151227;-0.009773843921720982
01:00:0A:00:00:00:00;1726618283;18/09/24;00:11:23;1.038;0.024;0.122;0.014660765416920185;0.010995574295520782;-0.019547687843441963
01:00:0A:00:00:00:00;1726618284;18/09/24;00:11:24;1.017;0.017;0.131;0.00855211354792118;0.04886921867728233;-0.02076941914856434
01:00:0A:00:00:00:00;1726618285;18/09/24;00:11:25;1.011;0.016;0.124;0.019547687843441963;0.00855211354792118;-0.01710422709584236
01:00:0A:00:00:00:00;1726618286;18/09/24;00:11:26;0.999;0.008;0.117;0.018325956538319588;-0.0036651913542300463;0.004886921960860491
01:00:0A:00:00:00:00;1726618287;18/09/24;00:11:27;0.992;0.013;0.121;0.018325956538319588;-0.0036651913542300463;0.012217304669320583
01:00:0A:00:00:00:00;1726618288;18/09/24;00:11:28;0.993;0.016;0.12;0.02076941914856434;-0.0354301817715168;0.03176499158143997
01:00:0A:00:00:00:00;1726618289;18/09/24;00:11:29;1.002;0.022;0.114;0.028099799528717995;-0.04642575979232788;0.019547687843441963
01:00:0A:00:00:00:00;1726618290;18/09/24;00:11:30;1.02;0.023;0.131;0.02687807008624077;-0.02932153083384037;0.013439035043120384
01:00:0A:00:00:00:00;1726618291;18/09/24;00:11:31;1.026;0.027;0.132;0.030543262138962746;-0.004886921960860491;0.0
01:00:0A:00:00:00:00;1726618292;18/09/24;00:11:32;1.02;0.028;0.129;0.02687807008624077;-0.0012217304902151227;0.00855211354792118
01:00:0A:00:00:00:00;1726618293;18/09/24;00:11:33;1.016;0.022;0.122;0.03176499158143997;-0.014660765416920185;-0.0036651913542300463
01:00:0A:00:00:00:00;1726618294;18/09/24;00:11:34;1.011;0.025;0.136;0.03176499158143997;-0.013439035043120384;-0.013439035043120384
01:00:0A:00:00:00:00;1726618295;18/09/24;00:11:35;1.005;0.009;0.133;0.025656338781118393;0.004886921960860491;0.0012217304902151227
01:00:0A:00:00:00:00;1726618296;18/09/24;00:11:36;1.002;0.015;0.126;0.019547687843441963;0.025656338781118393;0.006108652334660292
01:00:0A:00:00:00:00;1726618297;18/09/24;00:11:37;1.003;0.018;0.125;0.012217304669320583;0.019547687843441963;0.03420845419168472
01:00:0A:00:00:00:00;1726618298;18/09/24;00:11:38;1.001;-0.045;0.192;-0.13072516024112701;-0.03298672288656235;0.004886921960860491
01:00:0A:00:00:00:00;1726618299;18/09/24;00:11:39;1.004;-0.055;0.175;-0.14538592100143433;-0.1014036238193512;-0.1270599663257599
01:00:0A:00:00:00:00;1726618300;18/09/24;00:11:40;1.012;0.005;0.127;-0.2223549485206604;-0.0036651913542300463;-0.03176499158143997
01:00:0A:00:00:00:00;1726618301;18/09/24;00:11:41;1.008;0.027;0.136;-0.20402899384498596;0.004886921960860491;-0.00855211354792118
01:00:0A:00:00:00:00;1726618302;18/09/24;00:11:42;1.011;0.02;0.123;-0.17592918872833252;-0.03787364438176155;-0.0073303827084600925
01:00:0A:00:00:00:00;1726618303;18/09/24;00:11:43;1.009;0.017;0.116;-0.13072516024112701;-0.00855211354792118;-0.05497787147760391
01:00:0A:00:00:00:00;1726618304;18/09/24;00:11:44;1.007;0.013;0.14;-0.1258382350206375;-0.015882495790719986;-0.006108652334660292
01:00:0A:00:00:00:00;1726618305;18/09/24;00:11:45;1.012;0.007;0.126;-0.09651670604944229;-0.040317103266716;0.006108652334660292
01:00:0A:00:00:00:00;1726618306;18/09/24;00:11:46;1.01;0.021;0.128;-0.07941248267889023;-0.0024434609804302454;-0.00855211354792118
01:00:0A:00:00:00:00;1726618307;18/09/24;00:11:47;1.009;-0.002;0.126;-0.059864792972803116;-0.021991148591041565;0.051312677562236786
01:00:0A:00:00:00:00;1726618308;18/09/24;00:11:48;1.013;-0.023;0.117;0.045204028487205505;-0.028099799528717995;0.02687807008624077
01:00:0A:00:00:00:00;1726618309;18/09/24;00:11:49;1.011;-0.032;0.121;0.15027284622192383;-0.004886921960860491;0.03787364438176155
01:00:0A:00:00:00:00;1726618310;18/09/24;00:11:50;1.009;0.002;0.139;0.2675589621067047;0.015882495790719986;-0.03298672288656235
01:00:0A:00:00:00:00;1726618311;18/09/24;00:11:51;1.008;0.036;0.156;0.27122414112091064;-0.012217304669320583;0.010995574295520782
01:00:0A:00:00:00:00;1726618312;18/09/24;00:11:52;1.015;0.005;0.112;0.2382374405860901;-0.03787364438176155;0.04642575979232788
01:00:0A:00:00:00:00;1726618313;18/09/24;00:11:53;1.01;-0.004;0.128;0.24556782841682434;0.05009094998240471;0.0073303827084600925
01:00:0A:00:00:00:00;1726618314;18/09/24;00:11:54;1.008;0.031;0.134;0.2272418737411499;0.018325956538319588;0.03298672288656235
01:00:0A:00:00:00:00;1726618315;18/09/24;00:11:55;1.007;0.007;0.11;0.20036379992961884;-0.00855211354792118;0.06841690838336945
01:00:0A:00:00:00:00;1726618316;18/09/24;00:11:56;1.006;0.025;0.15;0.32009339332580566;0.03176499158143997;-0.012217304669320583
01:00:0A:00:00:00:00;1726618317;18/09/24;00:11:57;1.014;0.031;0.126;0.27122414112091064;-0.051312677562236786;0.07330382615327835
01:00:0A:00:00:00:00;1726618318;18/09/24;00:11:58;1.007;0.038;0.147;0.34574973583221436;0.04642575979232788;0.019547687843441963
01:00:0A:00:00:00:00;1726618319;18/09/24;00:11:59;1.01;0.026;0.132;0.3677408695220947;0.010995574295520782;0.014660765416920185
01:00:0A:00:00:00:00;1726618320;18/09/24;00:12:00;1.011;0.033;0.119;0.3347541391849518;-0.004886921960860491;0.08185594528913498
01:00:0A:00:00:00:00;1726618321;18/09/24;00:12:01;1.013;0.039;0.128;0.28588491678237915;0.015882495790719986;0.030543262138962746
01:00:0A:00:00:00:00;1726618322;18/09/24;00:12:02;1.005;0.043;0.123;0.23335053026676178;-0.01710422709584236;0.024434609338641167
01:00:0A:00:00:00:00;1726618323;18/09/24;00:12:03;1.01;0.063;0.103;0.1576032191514969;-0.018325956538319588;0.018325956538319588
01:00:0A:00:00:00:00;1726618324;18/09/24;00:12:04;1.011;0.045;0.107;0.08796459436416626;-0.015882495790719986;0.006108652334660292
01:00:0A:00:00:00:00;1726618325;18/09/24;00:12:05;1.011;0.025;0.115;0.039095375686883926;0.0;0.019547687843441963
01:00:0A:00:00:00:00;1726618326;18/09/24;00:12:06;1.012;0.019;0.125;0.036651913076639175;-0.0073303827084600925;0.0012217304902151227
01:00:0A:00:00:00:00;1726618327;18/09/24;00:12:07;1.01;0.026;0.125;0.025656338781118393;-0.006108652334660292;0.013439035043120384
01:00:0A:00:00:00:00;1726618328;18/09/24;00:12:08;1.012;0.026;0.121;0.018325956538319588;-0.01710422709584236;-0.0012217304902151227
01:00:0A:00:00:00:00;1726618329;18/09/24;00:12:09;1.015;0.016;0.132;-0.010995574295520782;0.02076941914856434;0.03298672288656235
01:00:0A:00:00:00:00;1726618330;18/09/24;00:12:10;1.013;0.035;0.115;-0.0012217304902151227;-0.018325956538319588;-0.0024434609804302454
01:00:0A:00:00:00:00;1726618331;18/09/24;00:12:11;1.008;0.041;0.113;-0.02687807008624077;-0.02687807008624077;-0.02076941914856434
01:00:0A:00:00:00:00;1726618332;18/09/24;00:12:12;1.007;0.025;0.124;-0.06108652427792549;0.0036651913542300463;0.012217304669320583
01:00:0A:00:00:00:00;1726618333;18/09/24;00:12:13;1.012;0.033;0.116;-0.06475171446800232;-0.02321287989616394;-0.01710422709584236
01:00:0A:00:00:00:00;1726618334;18/09/24;00:12:14;1.01;0.014;0.128;-0.09285151958465576;-0.0024434609804302454;0.028099799528717995
01:00:0A:00:00:00:00;1726618335;18/09/24;00:12:15;1.011;0.014;0.129;-0.04642575979232788;-0.02932153083384037;-0.021991148591041565
01:00:0A:00:00:00:00;1726618336;18/09/24;00:12:16;1.012;0.036;0.124;-0.05253440886735916;-0.0073303827084600925;-0.019547687843441963
01:00:0A:00:00:00:00;1726618337;18/09/24;00:12:17;1.011;0.01;0.126;-0.0659734457731247;-0.00855211354792118;0.009773843921720982
01:00:0A:00:00:00:00;1726618338;18/09/24;00:12:18;1.014;0.007;0.122;-0.039095375686883926;-0.01710422709584236;-0.006108652334660292
01:00:0A:00:00:00:00;1726618339;18/09/24;00:12:19;1.011;0.033;0.127;-0.04764748737215996;-0.010995574295520782;0.013439035043120384
01:00:0A:00:00:00:00;1726618340;18/09/24;00:12:20;1.011;0.023;0.124;-0.05375614017248154;-0.012217304669320583;0.02076941914856434
01:00:0A:00:00:00:00;1726618341;18/09/24;00:12:21;1.009;0.021;0.126;-0.024434609338641167;-0.004886921960860491;-0.025656338781118393
01:00:0A:00:00:00:00;1726618342;18/09/24;00:12:22;1.01;0.027;0.123;-0.030543262138962746;-0.009773843921720982;-0.00855211354792118
01:00:0A:00:00:00:00;1726618343;18/09/24;00:12:23;1.011;0.014;0.123;-0.03787364438176155;-0.010995574295520782;0.013439035043120384
01:00:0A:00:00:00:00;1726618344;18/09/24;00:12:24;1.009;0.016;0.124;-0.018325956538319588;-0.014660765416920185;-0.004886921960860491
01:00:0A:00:00:00:00;1726618345;18/09/24;00:12:25;1.012;0.026;0.122;-0.019547687843441963;-0.014660765416920185;-0.006108652334660292
01:00:0A:00:00:00:00;1726618346;18/09/24;00:12:26;1.013;0.014;0.126;-0.025656338781118393;-0.013439035043120384;0.0073303827084600925
01:00:0A:00:00:00:00;1726618347;18/09/24;00:12:27;1.013;0.013;0.122;-0.010995574295520782;-0.02076941914856434;-0.0036651913542300463
01:00:0A:00:00:00:00;1726618348;18/09/24;00:12:28;1.013;0.025;0.123;-0.024434609338641167;-0.006108652334660292;0.013439035043120384
01:00:0A:00:00:00:00;1726618349;18/09/24;00:12:29;1.01;0.02;0.13;-0.01710422709584236;-0.014660765416920185;0.004886921960860491
01:00:0A:00:00:00:00;1726618350;18/09/24;00:12:30;1.01;0.023;0.122;-0.00855211354792118;-0.012217304669320583;-0.010995574295520782
01:00:0A:00:00:00:00;1726618351;18/09/24;00:12:31;1.01;0.02;0.126;-0.015882495790719986;-0.0036651913542300463;-0.0012217304902151227
01:00:0A:00:00:00:00;1726618352;18/09/24;00:12:32;1.011;0.019;0.123;-0.015882495790719986;-0.01710422709584236;0.00855211354792118
01:00:0A:00:00:00:00;1726618353;18/09/24;00:12:33;1.012;0.018;0.122;-0.010995574295520782;-0.012217304669320583;0.0
01:00:0A:00:00:00:00;1726618354;18/09/24;00:12:34;1.009;0.023;0.128;-0.010995574295520782;-0.00855211354792118;0.0
01:00:0A:00:00:00:00;1726618355;18/09/24;00:12:35;1.011;0.016;0.122;-0.010995574295520782;-0.012217304669320583;0.0036651913542300463
01:00:0A:00:00:00:00;1726618356;18/09/24;00:12:36;1.01;0.018;0.125;-0.004886921960860491;-0.013439035043120384;-0.0024434609804302454
01:00:0A:00:00:00:00;1726618357;18/09/24;00:12:37;1.012;0.021;0.122;-0.0073303827084600925;-0.010995574295520782;0.0012217304902151227
01:00:0A:00:00:00:00;1726618358;18/09/24;00:12:38;1.011;0.017;0.126;-0.0036651913542300463;-0.010995574295520782;0.0
01:00:0A:00:00:00:00;1726618359;18/09/24;00:12:39;1.013;0.014;0.122;0.0036651913542300463;-0.010995574295520782;-0.0036651913542300463
01:00:0A:00:00:00:00;1726618360;18/09/24;00:12:40;1.012;0.02;0.122;-0.0012217304902151227;-0.012217304669320583;0.010995574295520782
01:00:0A:00:00:00:00;1726618361;18/09/24;00:12:41;1.013;0.017;0.127;0.0036651913542300463;-0.019547687843441963;0.009773843921720982
01:00:0A:00:00:00:00;1726618362;18/09/24;00:12:42;1.012;0.023;0.124;0.009773843921720982;-0.00855211354792118;0.0
01:00:0A:00:00:00:00;1726618363;18/09/24;00:12:43;1.011;0.02;0.125;0.009773843921720982;0.0012217304902151227;-0.0012217304902151227
01:00:0A:00:00:00:00;1726618364;18/09/24;00:12:44;1.009;0.017;0.122;0.01710422709584236;-0.009773843921720982;-0.0024434609804302454
01:00:0A:00:00:00:00;1726618365;18/09/24;00:12:45;1.01;0.017;0.122;0.01710422709584236;-0.015882495790719986;0.006108652334660292
01:00:0A:00:00:00:00;1726618366;18/09/24;00:12:46;1.009;0.02;0.126;0.018325956538319588;-0.009773843921720982;0.006108652334660292
01:00:0A:00:00:00:00;1726618367;18/09/24;00:12:47;1.01;0.022;0.123;0.02076941914856434;-0.00855211354792118;0.0012217304902151227
01:00:0A:00:00:00:00;1726618368;18/09/24;00:12:48;1.008;0.018;0.122;0.02321287989616394;-0.00855211354792118;-0.0036651913542300463
01:00:0A:00:00:00:00;1726618369;18/09/24;00:12:49;1.009;0.016;0.121;0.02076941914856434;-0.01710422709584236;0.009773843921720982
01:00:0A:00:00:00:00;1726618370;18/09/24;00:12:50;1.014;0.018;0.125;0.019547687843441963;-0.018325956538319588;0.010995574295520782
01:00:0A:00:00:00:00;1726618371;18/09/24;00:12:51;1.016;0.022;0.126;0.019547687843441963;-0.012217304669320583;0.006108652334660292
01:00:0A:00:00:00:00;1726618372;18/09/24;00:12:52;1.014;0.022;0.126;0.01710422709584236;-0.0036651913542300463;-0.0012217304902151227
01:00:0A:00:00:00:00;1726618373;18/09/24;00:12:53;1.013;0.018;0.126;0.01710422709584236;-0.0024434609804302454;-0.0036651913542300463
01:00:0A:00:00:00:00;1726618374;18/09/24;00:12:54;1.007;0.02;0.121;0.013439035043120384;-0.00855211354792118;0.0036651913542300463
01:00:0A:00:00:00:00;1726618375;18/09/24;00:12:55;1.007;0.022;0.123;0.010995574295520782;-0.0036651913542300463;0.0
01:00:0A:00:00:00:00;1726618376;18/09/24;00:12:56;1.004;0.019;0.121;0.00855211354792118;-0.014660765416920185;0.0036651913542300463
01:00:0A:00:00:00:00;1726618377;18/09/24;00:12:57;1.005;0.017;0.119;0.00855211354792118;-0.015882495790719986;0.0
01:00:0A:00:00:00:00;1726618378;18/09/24;00:12:58;1.012;0.02;0.124;0.0024434609804302454;-0.02687807008624077;0.014660765416920185
01:00:0A:00:00:00:00;1726618379;18/09/24;00:12:59;1.019;0.022;0.127;0.0036651913542300463;-0.015882495790719986;0.0036651913542300463
01:00:0A:00:00:00:00;1726618380;18/09/24;00:13:00;1.02;0.021;0.124;0.05864306166768074;-0.009773843921720982;0.0073303827084600925
01:00:0A:00:00:00:00;1726618381;18/09/24;00:13:01;1.012;0.019;0.116;0.06719517707824707;0.009773843921720982;-0.0036651913542300463
01:00:0A:00:00:00:00;1726618382;18/09/24;00:13:02;1.006;0.022;0.127;0.05742133408784866;0.006108652334660292;0.0024434609804302454
01:00:0A:00:00:00:00;1726618383;18/09/24;00:13:03;1.006;0.017;0.122;0.05619959905743599;-0.02687807008624077;0.012217304669320583
01:00:0A:00:00:00:00;1726618384;18/09/24;00:13:04;1.01;0.019;0.117;0.04764748737215996;-0.004886921960860491;0.006108652334660292
01:00:0A:00:00:00:00;1726618385;18/09/24;00:13:05;1.009;0.019;0.128;0.04398229718208313;0.0012217304902151227;0.0036651913542300463
01:00:0A:00:00:00:00;1726618386;18/09/24;00:13:06;1.005;0.02;0.12;0.040317103266716;-0.02321287989616394;0.01710422709584236
01:00:0A:00:00:00:00;1726618387;18/09/24;00:13:07;1.007;0.016;0.118;0.039095375686883926;-0.013439035043120384;0.004886921960860491
01:00:0A:00:00:00:00;1726618388;18/09/24;00:13:08;1.014;0.025;0.129;0.036651913076639175;-0.015882495790719986;0.004886921960860491
01:00:0A:00:00:00:00;1726618389;18/09/24;00:13:09;1.018;0.019;0.127;0.0354301817715168;-0.02076941914856434;0.0036651913542300463
01:00:0A:00:00:00:00;1726618390;18/09/24;00:13:10;1.017;0.021;0.122;0.02932153083384037;0.0012217304902151227;0.0
01:00:0A:00:00:00:00;1726618391;18/09/24;00:13:11;1.012;0.019;0.126;0.02687807008624077;0.0036651913542300463;0.0
01:00:0A:00:00:00:00;1726618392;18/09/24;00:13:12;1.007;0.022;0.123;0.02687807008624077;-0.012217304669320583;0.0012217304902151227
01:00:0A:00:00:00:00;1726618393;18/09/24;00:13:13;1.009;0.016;0.118;0.024434609338641167;-0.009773843921720982;0.0024434609804302454
01:00:0A:00:00:00:00;1726618394;18/09/24;00:13:14;1.008;0.018;0.123;0.02321287989616394;-0.006108652334660292;0.004886921960860491
01:00:0A:00:00:00:00;1726618395;18/09/24;00:13:15;1.006;0.02;0.122;0.019547687843441963;-0.019547687843441963;0.014660765416920185
01:00:0A:00:00:00:00;1726618396;18/09/24;00:13:16;1.01;0.022;0.119;0.021991148591041565;-0.018325956538319588;0.0036651913542300463
01:00:0A:00:00:00:00;1726618397;18/09/24;00:13:17;1.013;0.021;0.127;0.019547687843441963;-0.009773843921720982;0.0
01:00:0A:00:00:00:00;1726618398;18/09/24;00:13:18;1.016;0.021;0.126;0.018325956538319588;-0.015882495790719986;0.004886921960860491
01:00:0A:00:00:00:00;1726618399;18/09/24;00:13:19;1.015;0.018;0.122;0.014660765416920185;-0.0036651913542300463;0.0073303827084600925
01:00:0A:00:00:00:00;1726618400;18/09/24;00:13:20;1.012;0.024;0.124;0.015882495790719986;-0.0036651913542300463;0.0012217304902151227
01:00:0A:00:00:00:00;1726618401;18/09/24;00:13:21;1.009;0.021;0.123;0.01710422709584236;-0.014660765416920185;0.0
01:00:0A:00:00:00:00;1726618402;18/09/24;00:13:22;1.012;0.016;0.121;0.01710422709584236;-0.0073303827084600925;-0.0024434609804302454
01:00:0A:00:00:00:00;1726618403;18/09/24;00:13:23;1.009;0.015;0.122;0.014660765416920185;-0.0073303827084600925;0.00855211354792118
01:00:0A:00:00:00:00;1726618404;18/09/24;00:13:24;1.009;0.018;0.123;0.013439035043120384;-0.010995574295520782;0.013439035043120384
01:00:0A:00:00:00:00;1726618405;18/09/24;00:13:25;1.009;0.022;0.12;0.01710422709584236;-0.014660765416920185;0.0036651913542300463
01:00:0A:00:00:00:00;1726618406;18/09/24;00:13:26;1.012;0.02;0.122;0.01710422709584236;-0.012217304669320583;-0.0024434609804302454
01:00:0A:00:00:00:00;1726618407;18/09/24;00:13:27;1.013;0.018;0.124;0.01710422709584236;-0.015882495790719986;0.0012217304902151227
01:00:0A:00:00:00:00;1726618408;18/09/24;00:13:28;1.013;0.017;0.122;0.014660765416920185;-0.010995574295520782;0.00855211354792118
01:00:0A:00:00:00:00;1726618409;18/09/24;00:13:29;1.012;0.022;0.123;0.015882495790719986;-0.0012217304902151227;0.0024434609804302454
01:00:0A:00:00:00:00;1726618410;18/09/24;00:13:30;1.011;0.021;0.122;0.01710422709584236;-0.013439035043120384;0.0024434609804302454
01:00:0A:00:00:00:00;1726618411;18/09/24;00:13:31;1.011;0.018;0.121;0.019547687843441963;-0.012217304669320583;-0.0012217304902151227
01:00:0A:00:00:00:00;1726618412;18/09/24;00:13:32;1.01;0.018;0.122;0.015882495790719986;-0.00855211354792118;0.004886921960860491
01:00:0A:00:00:00:00;1726618413;18/09/24;00:13:33;1.011;0.019;0.122;0.01710422709584236;-0.012217304669320583;0.0073303827084600925
01:00:0A:00:00:00:00;1726618414;18/09/24;00:13:34;1.012;0.022;0.122;0.015882495790719986;-0.00855211354792118;0.0036651913542300463
01:00:0A:00:00:00:00;1726618415;18/09/24;00:13:35;1.012;0.018;0.122;0.018325956538319588;-0.015882495790719986;0.0012217304902151227
01:00:0A:00:00:00:00;1726618416;18/09/24;00:13:36;1.013;0.02;0.124;0.015882495790719986;-0.00855211354792118;0.004886921960860491
01:00:0A:00:00:00:00;1726618417;18/09/24;00:13:37;1.011;0.018;0.122;0.015882495790719986;-0.00855211354792118;0.004886921960860491
01:00:0A:00:00:00:00;1726618418;18/09/24;00:13:38;1.012;0.02;0.121;0.014660765416920185;-0.00855211354792118;0.004886921960860491
01:00:0A:00:00:00:00;1726618419;18/09/24;00:13:39;1.009;0.011;0.144;0.1160643920302391;0.00855211354792118;0.013439035043120384
01:00:0A:00:00:00:00;1726618420;18/09/24;00:13:40;1.011;0.024;0.133;0.22846359014511108;-0.02321287989616394;0.01710422709584236
01:00:0A:00:00:00:00;1726618421;18/09/24;00:13:41;1.012;0.016;0.117;0.21013763546943665;-0.014660765416920185;0.0354301817715168
01:00:0A:00:00:00:00;1726618422;18/09/24;00:13:42;1.012;0.014;0.122;0.20036379992961884;0.013439035043120384;0.014660765416920185
01:00:0A:00:00:00:00;1726618423;18/09/24;00:13:43;1.011;0.028;0.128;0.19425514340400696;-0.010995574295520782;0.015882495790719986
01:00:0A:00:00:00:00;1726618424;18/09/24;00:13:44;1.012;0.017;0.118;0.17592918872833252;-0.013439035043120384;0.03420845419168472
01:00:0A:00:00:00:00;1726618425;18/09/24;00:13:45;1.011;0.014;0.125;0.18081611394882202;0.0036651913542300463;0.00855211354792118
01:00:0A:00:00:00:00;1726618426;18/09/24;00:13:46;1.011;0.028;0.123;0.17348572611808777;-0.0073303827084600925;0.013439035043120384
01:00:0A:00:00:00:00;1726618427;18/09/24;00:13:47;1.012;0.013;0.121;0.15515977144241333;-0.0024434609804302454;0.03420845419168472
01:00:0A:00:00:00:00;1726618428;18/09/24;00:13:48;1.011;0.015;0.122;0.16982054710388184;-0.006108652334660292;0.0036651913542300463
01:00:0A:00:00:00:00;1726618429;18/09/24;00:13:49;1.01;0.027;0.123;0.15271630883216858;-0.0073303827084600925;0.021991148591041565
01:00:0A:00:00:00:00;1726618430;18/09/24;00:13:50;1.012;0.015;0.122;0.14416420459747314;-0.0012217304902151227;0.025656338781118393
01:00:0A:00:00:00:00;1726618431;18/09/24;00:13:51;1.012;0.018;0.122;0.1563815027475357;-0.00855211354792118;0.0024434609804302454
01:00:0A:00:00:00:00;1726618432;18/09/24;00:13:52;1.012;0.023;0.121;0.1368338167667389;-0.0036651913542300463;0.02321287989616394
01:00:0A:00:00:00:00;1726618433;18/09/24;00:13:53;1.011;0.016;0.124;0.13316862285137177;-0.006108652334660292;0.019547687843441963
01:00:0A:00:00:00:00;1726618434;18/09/24;00:13:54;1.012;0.021;0.123;0.1368338167667389;-0.0073303827084600925;0.0073303827084600925
01:00:0A:00:00:00:00;1726618435;18/09/24;00:13:55;1.012;0.022;0.121;0.1270599663257599;-0.0073303827084600925;0.014660765416920185
01:00:0A:00:00:00:00;1726618436;18/09/24;00:13:56;1.011;0.014;0.123;0.12095131725072861;-0.004886921960860491;0.01710422709584236
01:00:0A:00:00:00:00;1726618437;18/09/24;00:13:57;1.01;0.02;0.122;0.12461651116609573;-0.009773843921720982;0.010995574295520782
01:00:0A:00:00:00:00;1726618438;18/09/24;00:13:58;1.013;0.021;0.12;0.11484266817569733;-0.00855211354792118;0.01710422709584236
01:00:0A:00:00:00:00;1726618439;18/09/24;00:13:59;1.012;0.017;0.123;0.11239919811487198;-0.0012217304902151227;0.012217304669320583
01:00:0A:00:00:00:00;1726618440;18/09/24;00:14:00;1.011;0.019;0.124;0.11484266817569733;-0.013439035043120384;0.009773843921720982
01:00:0A:00:00:00:00;1726618441;18/09/24;00:14:01;1.012;0.019;0.122;0.10506881773471832;-0.0036651913542300463;0.01710422709584236
01:00:0A:00:00:00:00;1726618442;18/09/24;00:14:02;1.011;0.019;0.123;0.10384709388017654;-0.004886921960860491;0.013439035043120384
01:00:0A:00:00:00:00;1726618443;18/09/24;00:14:03;1.013;0.02;0.122;0.10384709388017654;-0.012217304669320583;0.009773843921720982
01:00:0A:00:00:00:00;1726618444;18/09/24;00:14:04;1.011;0.019;0.121;0.09896016865968704;-0.006108652334660292;0.00855211354792118
01:00:0A:00:00:00:00;1726618445;18/09/24;00:14:05;1.011;0.018;0.125;0.09407324343919754;-0.00855211354792118;0.014660765416920185
01:00:0A:00:00:00:00;1726618446;18/09/24;00:14:06;1.011;0.019;0.122;0.09407324343919754;-0.009773843921720982;0.010995574295520782
01:00:0A:00:00:00:00;1726618447;18/09/24;00:14:07;1.011;0.022;0.122;0.08552113175392151;-0.004886921960860491;0.013439035043120384
01:00:0A:00:00:00:00;1726618448;18/09/24;00:14:08;1.011;0.019;0.123;0.08552113175392151;-0.009773843921720982;0.0073303827084600925
01:00:0A:00:00:00:00;1726618449;18/09/24;00:14:09;1.011;0.02;0.123;0.08307767659425735;-0.009773843921720982;0.00855211354792118
01:00:0A:00:00:00:00;1726618450;18/09/24;00:14:10;1.011;0.018;0.122;0.0757472887635231;-0.0073303827084600925;0.013439035043120384
01:00:0A:00:00:00:00;1726618451;18/09/24;00:14:11;1.011;0.018;0.122;0.0757472887635231;-0.0036651913542300463;0.0073303827084600925
01:00:0A:00:00:00:00;1726618452;18/09/24;00:14:12;1.011;0.021;0.121;0.07330382615327835;-0.012217304669320583;0.00855211354792118
01:00:0A:00:00:00:00;1726618453;18/09/24;00:14:13;1.011;0.018;0.121;0.06841690838336945;-0.00855211354792118;0.00855211354792118
01:00:0A:00:00:00:00;1726618454;18/09/24;00:14:14;1.01;0.019;0.123;0.06719517707824707;-0.010995574295520782;0.0073303827084600925
01:00:0A:00:00:00:00;1726618455;18/09/24;00:14:15;1.01;0.018;0.122;0.06230825558304787;-0.009773843921720982;0.012217304669320583
01:00:0A:00:00:00:00;1726618456;18/09/24;00:14:16;1.011;0.018;0.122;0.06108652427792549;-0.00855211354792118;0.0073303827084600925
01:00:0A:00:00:00:00;1726618457;18/09/24;00:14:17;1.013;0.02;0.122;0.05864306166768074;-0.009773843921720982;0.0073303827084600925
01:00:0A:00:00:00:00;1726618458;18/09/24;00:14:18;1.011;0.02;0.123;0.05619959905743599;-0.009773843921720982;0.0073303827084600925
01:00:0A:00:00:00:00;1726618459;18/09/24;00:14:19;1.011;0.019;0.121;0.05375614017248154;-0.0073303827084600925;0.0073303827084600925
01:00:0A:00:00:00:00;1726618460;18/09/24;00:14:20;1.012;0.018;0.123;0.05009094998240471;-0.006108652334660292;0.0073303827084600925
01:00:0A:00:00:00:00;1726618461;18/09/24;00:14:21;1.01;0.019;0.12;0.05009094998240471;-0.010995574295520782;0.006108652334660292
01:00:0A:00:00:00:00;1726618462;18/09/24;00:14:22;1.01;0.02;0.122;0.04642575979232788;-0.009773843921720982;0.0073303827084600925
01:00:0A:00:00:00:00;1726618463;18/09/24;00:14:23;1.012;0.019;0.122;0.04398229718208313;-0.010995574295520782;0.006108652334660292
01:00:0A:00:00:00:00;1726618464;18/09/24;00:14:24;1.011;0.021;0.122;0.040317103266716;-0.009773843921720982;0.006108652334660292
01:00:0A:00:00:00:00;1726618465;18/09/24;00:14:25;1.013;0.018;0.121;0.03787364438176155;-0.010995574295520782;0.0073303827084600925
01:00:0A:00:00:00:00;1726618466;18/09/24;00:14:26;1.011;0.019;0.122;0.036651913076639175;-0.012217304669320583;0.0024434609804302454
01:00:0A:00:00:00:00;1726618467;18/09/24;00:14:27;1.012;0.019;0.122;0.030543262138962746;-0.012217304669320583;0.0073303827084600925
01:00:0A:00:00:00:00;1726618468;18/09/24;00:14:28;1.011;0.02;0.122;0.02932153083384037;-0.00855211354792118;0.0036651913542300463
01:00:0A:00:00:00:00;1726618469;18/09/24;00:14:29;1.012;0.019;0.121;0.025656338781118393;-0.009773843921720982;0.0036651913542300463
01:00:0A:00:00:00:00;1726618470;18/09/24;00:14:30;1.012;0.017;0.121;0.02321287989616394;-0.00855211354792118;0.0036651913542300463
01:00:0A:00:00:00:00;1726618471;18/09/24;00:14:31;1.011;0.02;0.122;0.02076941914856434;-0.010995574295520782;0.0024434609804302454
01:00:0A:00:00:00:00;1726618472;18/09/24;00:14:32;1.011;0.019;0.121;0.01710422709584236;-0.009773843921720982;0.004886921960860491
01:00:0A:00:00:00:00;1726618473;18/09/24;00:14:33;1.01;0.019;0.121;0.014660765416920185;-0.012217304669320583;0.0036651913542300463
01:00:0A:00:00:00:00;1726618474;18/09/24;00:14:34;1.012;0.019;0.12;0.012217304669320583;-0.010995574295520782;0.004886921960860491
01:00:0A:00:00:00:00;1726618475;18/09/24;00:14:35;1.013;0.019;0.122;0.012217304669320583;-0.012217304669320583;0.0036651913542300463
01:00:0A:00:00:00:00;1726618476;18/09/24;00:14:36;1.011;0.019;0.121;0.010995574295520782;-0.012217304669320583;0.0024434609804302454
01:00:0A:00:00:00:00;1726618477;18/09/24;00:14:37;1.011;0.018;0.122;0.0073303827084600925;-0.009773843921720982;0.0036651913542300463
01:00:0A:00:00:00:00;1726618478;18/09/24;00:14:38;1.012;0.019;0.121;0.0073303827084600925;-0.010995574295520782;0.0012217304902151227
01:00:0A:00:00:00:00;1726618479;18/09/24;00:14:39;1.012;0.018;0.122;0.004886921960860491;-0.009773843921720982;0.0024434609804302454
01:00:0A:00:00:00:00;1726618480;18/09/24;00:14:40;1.012;0.018;0.122;0.004886921960860491;-0.010995574295520782;0.0012217304902151227
01:00:0A:00:00:00:00;1726618481;18/09/24;00:14:41;1.012;0.019;0.122;0.0024434609804302454;-0.009773843921720982;0.0024434609804302454
01:00:0A:00:00:00:00;1726618482;18/09/24;00:14:42;1.011;0.018;0.121;0.0;-0.012217304669320583;0.004886921960860491
01:00:0A:00:00:00:00;1726618483;18/09/24;00:14:43;1.011;0.018;0.121;0.0012217304902151227;-0.009773843921720982;0.0
01:00:0A:00:00:00:00;1726618484;18/09/24;00:14:44;1.011;0.018;0.121;-0.0012217304902151227;-0.012217304669320583;0.0036651913542300463
01:00:0A:00:00:00:00;1726618485;18/09/24;00:14:45;1.012;0.018;0.121;0.0;-0.012217304669320583;0.0012217304902151227
01:00:0A:00:00:00:00;1726618486;18/09/24;00:14:46;1.011;0.02;0.121;-0.0024434609804302454;-0.013439035043120384;0.0036651913542300463
01:00:0A:00:00:00:00;1726618487;18/09/24;00:14:47;1.012;0.018;0.121;-0.0036651913542300463;-0.009773843921720982;0.0024434609804302454
01:00:0A:00:00:00:00;1726618488;18/09/24;00:14:48;1.012;0.018;0.121;-0.0024434609804302454;-0.010995574295520782;0.0012217304902151227
01:00:0A:00:00:00:00;1726618489;18/09/24;00:14:49;1.011;0.017;0.12;-0.0036651913542300463;-0.009773843921720982;0.0024434609804302454
01:00:0A:00:00:00:00;1726618490;18/09/24;00:14:50;1.011;0.018;0.119;-0.0036651913542300463;-0.012217304669320583;0.0
01:00:0A:00:00:00:00;1726618491;18/09/24;00:14:51;1.012;0.017;0.121;-0.006108652334660292;-0.013439035043120384;0.0036651913542300463
01:00:0A:00:00:00:00;1726618492;18/09/24;00:14:52;1.01;0.018;0.122;-0.006108652334660292;-0.010995574295520782;0.0024434609804302454
01:00:0A:00:00:00:00;1726618493;18/09/24;00:14:53;1.011;0.018;0.12;-0.004886921960860491;-0.010995574295520782;0.0
01:00:0A:00:00:00:00;1726618494;18/09/24;00:14:54;1.01;0.017;0.121;-0.006108652334660292;-0.010995574295520782;0.0012217304902151227
01:00:0A:00:00:00:00;1726618495;18/09/24;00:14:55;1.012;0.017;0.121;-0.006108652334660292;-0.013439035043120384;0.0012217304902151227
01:00:0A:00:00:00:00;1726618496;18/09/24;00:14:56;1.012;0.018;0.122;-0.00855211354792118;-0.010995574295520782;0.0024434609804302454
01:00:0A:00:00:00:00;1726618497;18/09/24;00:14:57;1.012;0.017;0.121;-0.0073303827084600925;-0.010995574295520782;0.0
01:00:0A:00:00:00:00;1726618498;18/09/24;00:14:58;1.011;0.018;0.121;-0.0073303827084600925;-0.010995574295520782;0.0
01:00:0A:00:00:00:00;1726618499;18/09/24;00:14:59;1.012;0.019;0.121;-0.00855211354792118;-0.012217304669320583;0.0012217304902151227
01:00:0A:00:00:00:00;1726618500;18/09/24;00:15:00;1.011;0.018;0.121;-0.00855211354792118;-0.012217304669320583;0.0
01:00:0A:00:00:00:00;1726618501;18/09/24;00:15:01;1.011;0.018;0.121;-0.010995574295520782;-0.012217304669320583;0.0024434609804302454
01:00:0A:00:00:00:00;1726618502;18/09/24;00:15:02;1.012;0.018;0.121;-0.010995574295520782;-0.009773843921720982;-0.0012217304902151227
01:00:0A:00:00:00:00;1726618503;18/09/24;00:15:03;1.012;0.019;0.12;-0.010995574295520782;-0.013439035043120384;0.0012217304902151227
01:00:0A:00:00:00:00;1726618504;18/09/24;00:15:04;1.01;0.017;0.121;-0.012217304669320583;-0.013439035043120384;0.0012217304902151227
01:00:0A:00:00:00:00;1726618505;18/09/24;00:15:05;1.011;0.018;0.121;-0.013439035043120384;-0.012217304669320583;0.0
01:00:0A:00:00:00:00;1726618506;18/09/24;00:15:06;1.012;0.018;0.121;-0.014660765416920185;-0.009773843921720982;0.0012217304902151227
01:00:0A:00:00:00:00;1726618507;18/09/24;00:15:07;1.011;0.018;0.12;-0.013439035043120384;-0.012217304669320583;-0.0012217304902151227
01:00:0A:00:00:00:00;1726618508;18/09/24;00:15:08;1.011;0.017;0.12;-0.015882495790719986;-0.012217304669320583;0.0012217304902151227
01:00:0A:00:00:00:00;1726618509;18/09/24;00:15:09;1.011;0.018;0.122;-0.01710422709584236;-0.013439035043120384;0.0012217304902151227
01:00:0A:00:00:00:00;1726618510;18/09/24;00:15:10;1.011;0.017;0.121;-0.018325956538319588;-0.012217304669320583;0.0012217304902151227
01:00:0A:00:00:00:00;1726618511;18/09/24;00:15:11;1.012;0.018;0.121;-0.018325956538319588;-0.009773843921720982;0.0
01:00:0A:00:00:00:00;1726618512;18/09/24;00:15:12;1.01;0.017;0.12;-0.018325956538319588;-0.013439035043120384;-0.0012217304902151227
01:00:0A:00:00:00:00;1726618513;18/09/24;00:15:13;1.011;0.017;0.121;-0.02076941914856434;-0.013439035043120384;0.0012217304902151227
01:00:0A:00:00:00:00;1726618514;18/09/24;00:15:14;1.012;0.018;0.121;-0.019547687843441963;-0.013439035043120384;0.0
01:00:0A:00:00:00:00;1726618515;18/09/24;00:15:15;1.012;0.019;0.122;-0.021991148591041565;-0.010995574295520782;0.0012217304902151227
