Source;Epoch timestamp (UTC);Date;Time (UTC);Accel X (G);Accel Y (G);Accel Z (G);Gyro X (rad/s);Gyro Y (rad/s);Gyro Z (rad/s)
01:00:0A:00:00:00:00;1726444787;15/09/24;23:59:47;1.012;0.019;0.115;-0.004886921960860491;-0.012217304669320583;0.0012217304902151227
01:00:0A:00:00:00:00;1726444788;15/09/24;23:59:48;1.012;0.018;0.115;-0.0036651913542300463;-0.010995574295520782;0.0012217304902151227
01:00:0A:00:00:00:00;1726444789;15/09/24;23:59:49;1.012;0.019;0.117;-0.004886921960860491;-0.010995574295520782;0.0012217304902151227
01:00:0A:00:00:00:00;1726444790;15/09/24;23:59:50;1.012;0.019;0.116;-0.0036651913542300463;-0.012217304669320583;0.0012217304902151227
01:00:0A:00:00:00:00;1726444791;15/09/24;23:59:51;1.013;0.019;0.116;-0.0036651913542300463;-0.010995574295520782;0.0024434609804302454
01:00:0A:00:00:00:00;1726444792;15/09/24;23:59:52;1.012;0.019;0.115;-0.0036651913542300463;-0.012217304669320583;0.0012217304902151227
01:00:0A:00:00:00:00;1726444793;15/09/24;23:59:53;1.012;0.019;0.116;-0.0036651913542300463;-0.010995574295520782;0.0012217304902151227
01:00:0A:00:00:00:00;1726444794;15/09/24;23:59:54;1.013;0.019;0.115;-0.0036651913542300463;-0.012217304669320583;0.0024434609804302454
01:00:0A:00:00:00:00;1726444795;15/09/24;23:59:55;1.012;0.018;0.115;-0.0036651913542300463;-0.010995574295520782;0.0012217304902151227
01:00:0A:00:00:00:00;1726444796;15/09/24;23:59:56;1.01;0.018;0.114;-0.0024434609804302454;-0.012217304669320583;0.0024434609804302454
01:00:0A:00:00:00:00;1726444797;15/09/24;23:59:57;1.011;0.019;0.116;-0.0024434609804302454;-0.010995574295520782;0.0012217304902151227
01:00:0A:00:00:00:00;1726444798;15/09/24;23:59:58;1.012;0.018;0.115;-0.0024434609804302454;-0.012217304669320583;0.0024434609804302454
01:00:0A:00:00:00:00;1726444799;15/09/24;23:59:59;1.013;0.018;0.115;-0.0024434609804302454;-0.010995574295520782;0.0012217304902151227
01:00:0A:00:00:00:00;1726444800;16/09/24;00:00:00;1.011;0.019;0.115;-0.0024434609804302454;-0.012217304669320583;0.0024434609804302454
01:00:0A:00:00:00:00;1726444801;16/09/24;00:00:01;1.012;0.018;0.115;-0.0024434609804302454;-0.010995574295520782;0.0024434609804302454
01:00:0A:00:00:00:00;1726444802;16/09/24;00:00:02;1.011;0.019;0.117;-0.0024434609804302454;-0.012217304669320583;0.0012217304902151227
01:00:0A:00:00:00:00;1726444803;16/09/24;00:00:03;1.012;0.018;0.115;-0.0024434609804302454;-0.010995574295520782;0.0024434609804302454
01:00:0A:00:00:00:00;1726444804;16/09/24;00:00:04;1.011;0.018;0.116;-0.0012217304902151227;-0.012217304669320583;0.0012217304902151227
01:00:0A:00:00:00:00;1726444805;16/09/24;00:00:05;1.013;0.019;0.115;-0.0024434609804302454;-0.012217304669320583;0.0012217304902151227
01:00:0A:00:00:00:00;1726444806;16/09/24;00:00:06;1.012;0.019;0.116;-0.0012217304902151227;-0.010995574295520782;0.0024434609804302454
01:00:0A:00:00:00:00;1726444807;16/09/24;00:00:07;1.012;0.018;0.116;-0.0012217304902151227;-0.010995574295520782;0.0012217304902151227
01:00:0A:00:00:00:00;1726444808;16/09/24;00:00:08;1.011;0.019;0.116;-0.0012217304902151227;-0.010995574295520782;0.0024434609804302454
01:00:0A:00:00:00:00;1726444809;16/09/24;00:00:09;1.012;0.019;0.114;0.0;-0.012217304669320583;0.0012217304902151227
01:00:0A:00:00:00:00;1726444810;16/09/24;00:00:10;1.012;0.019;0.117;0.0;-0.010995574295520782;0.0024434609804302454
01:00:0A:00:00:00:00;1726444811;16/09/24;00:00:11;1.012;0.019;0.115;0.0;-0.012217304669320583;0.0012217304902151227
01:00:0A:00:00:00:00;1726444812;16/09/24;00:00:12;1.012;0.018;0.116;0.0;-0.010995574295520782;0.0012217304902151227
01:00:0A:00:00:00:00;1726444813;16/09/24;00:00:13;1.013;0.018;0.115;0.0012217304902151227;-0.012217304669320583;0.0024434609804302454
01:00:0A:00:00:00:00;1726444814;16/09/24;00:00:14;1.012;0.019;0.115;0.0012217304902151227;-0.010995574295520782;0.0012217304902151227
01:00:0A:00:00:00:00;1726444815;16/09/24;00:00:15;1.012;0.018;0.116;0.0024434609804302454;-0.012217304669320583;0.0024434609804302454
01:00:0A:00:00:00:00;1726444816;16/09/24;00:00:16;1.012;0.019;0.116;0.0024434609804302454;-0.009773843921720982;0.0012217304902151227
01:00:0A:00:00:00:00;1726444817;16/09/24;00:00:17;1.012;0.019;0.115;0.0024434609804302454;-0.012217304669320583;0.0024434609804302454
01:00:0A:00:00:00:00;1726444818;16/09/24;00:00:18;1.012;0.019;0.115;0.0036651913542300463;-0.010995574295520782;0.0024434609804302454
01:00:0A:00:00:00:00;1726444819;16/09/24;00:00:19;1.013;0.019;0.114;0.0036651913542300463;-0.012217304669320583;0.0024434609804302454
01:00:0A:00:00:00:00;1726444820;16/09/24;00:00:20;1.013;0.018;0.115;0.004886921960860491;-0.010995574295520782;0.0024434609804302454
01:00:0A:00:00:00:00;1726444821;16/09/24;00:00:21;1.012;0.018;0.114;0.004886921960860491;-0.012217304669320583;0.0024434609804302454
01:00:0A:00:00:00:00;1726444822;16/09/24;00:00:22;1.012;0.018;0.115;0.004886921960860491;-0.010995574295520782;0.0036651913542300463
01:00:0A:00:00:00:00;1726444823;16/09/24;00:00:23;1.011;0.019;0.116;0.006108652334660292;-0.012217304669320583;0.0024434609804302454
01:00:0A:00:00:00:00;1726444824;16/09/24;00:00:24;1.012;0.019;0.116;0.006108652334660292;-0.010995574295520782;0.0024434609804302454
01:00:0A:00:00:00:00;1726444825;16/09/24;00:00:25;1.011;0.019;0.114;0.006108652334660292;-0.010995574295520782;0.0024434609804302454
01:00:0A:00:00:00:00;1726444826;16/09/24;00:00:26;1.012;0.019;0.114;0.0073303827084600925;-0.010995574295520782;0.0024434609804302454
01:00:0A:00:00:00:00;1726444827;16/09/24;00:00:27;1.013;0.018;0.116;0.0073303827084600925;-0.010995574295520782;0.0036651913542300463
01:00:0A:00:00:00:00;1726444828;16/09/24;00:00:28;1.013;0.018;0.115;0.0073303827084600925;-0.010995574295520782;0.0024434609804302454
01:00:0A:00:00:00:00;1726444829;16/09/24;00:00:29;1.012;0.018;0.115;0.0073303827084600925;-0.010995574295520782;0.0036651913542300463
01:00:0A:00:00:00:00;1726444830;16/09/24;00:00:30;1.012;0.019;0.115;0.00855211354792118;-0.010995574295520782;0.0024434609804302454
01:00:0A:00:00:00:00;1726444831;16/09/24;00:00:31;1.012;0.018;0.116;0.00855211354792118;-0.010995574295520782;0.0024434609804302454
01:00:0A:00:00:00:00;1726444832;16/09/24;00:00:32;1.012;0.018;0.115;0.00855211354792118;-0.012217304669320583;0.0036651913542300463
01:00:0A:00:00:00:00;1726444833;16/09/24;00:00:33;1.012;0.018;0.115;0.00855211354792118;-0.010995574295520782;0.0024434609804302454
01:00:0A:00:00:00:00;1726444834;16/09/24;00:00:34;1.012;0.018;0.115;0.00855211354792118;-0.012217304669320583;0.0036651913542300463
01:00:0A:00:00:00:00;1726444835;16/09/24;00:00:35;1.012;0.018;0.115;0.00855211354792118;-0.010995574295520782;0.0024434609804302454
01:00:0A:00:00:00:00;1726444836;16/09/24;00:00:36;1.012;0.018;0.115;0.009773843921720982;-0.012217304669320583;0.0036651913542300463
01:00:0A:00:00:00:00;1726444837;16/09/24;00:00:37;1.012;0.018;0.116;0.009773843921720982;-0.010995574295520782;0.0024434609804302454
01:00:0A:00:00:00:00;1726444838;16/09/24;00:00:38;1.012;0.019;0.116;0.009773843921720982;-0.010995574295520782;0.0024434609804302454
01:00:0A:00:00:00:00;1726444839;16/09/24;00:00:39;1.012;0.018;0.114;0.009773843921720982;-0.010995574295520782;0.0036651913542300463
01:00:0A:00:00:00:00;1726444840;16/09/24;00:00:40;1.011;0.019;0.116;0.010995574295520782;-0.010995574295520782;0.0024434609804302454
01:00:0A:00:00:00:00;1726444841;16/09/24;00:00:41;1.012;0.019;0.115;0.009773843921720982;-0.010995574295520782;0.0036651913542300463
01:00:0A:00:00:00:00;1726444842;16/09/24;00:00:42;1.013;0.019;0.117;0.009773843921720982;-0.010995574295520782;0.0024434609804302454
01:00:0A:00:00:00:00;1726444843;16/09/24;00:00:43;1.011;0.02;0.115;0.010995574295520782;-0.010995574295520782;0.0036651913542300463
01:00:0A:00:00:00:00;1726444844;16/09/24;00:00:44;1.012;0.018;0.115;0.010995574295520782;-0.010995574295520782;0.0036651913542300463
01:00:0A:00:00:00:00;1726444845;16/09/24;00:00:45;1.013;0.019;0.115;0.010995574295520782;-0.012217304669320583;0.0024434609804302454
01:00:0A:00:00:00:00;1726444846;16/09/24;00:00:46;1.012;0.019;0.115;0.009773843921720982;-0.009773843921720982;0.0024434609804302454
01:00:0A:00:00:00:00;1726444847;16/09/24;00:00:47;1.011;0.019;0.115;0.010995574295520782;-0.012217304669320583;0.0024434609804302454
01:00:0A:00:00:00:00;1726444848;16/09/24;00:00:48;1.012;0.018;0.115;0.010995574295520782;-0.009773843921720982;0.0024434609804302454
01:00:0A:00:00:00:00;1726444849;16/09/24;00:00:49;1.012;0.018;0.116;0.010995574295520782;-0.010995574295520782;0.0036651913542300463
01:00:0A:00:00:00:00;1726444850;16/09/24;00:00:50;1.012;0.019;0.116;0.009773843921720982;-0.009773843921720982;0.0024434609804302454
01:00:0A:00:00:00:00;1726444851;16/09/24;00:00:51;1.013;0.019;0.115;0.010995574295520782;-0.012217304669320583;0.0036651913542300463
01:00:0A:00:00:00:00;1726444852;16/09/24;00:00:52;1.012;0.018;0.116;0.009773843921720982;-0.009773843921720982;0.0024434609804302454
01:00:0A:00:00:00:00;1726444853;16/09/24;00:00:53;1.012;0.018;0.117;0.009773843921720982;-0.012217304669320583;0.0036651913542300463
01:00:0A:00:00:00:00;1726444854;16/09/24;00:00:54;1.013;0.019;0.115;0.009773843921720982;-0.010995574295520782;0.0024434609804302454
01:00:0A:00:00:00:00;1726444855;16/09/24;00:00:55;1.013;0.018;0.115;0.009773843921720982;-0.010995574295520782;0.0024434609804302454
01:00:0A:00:00:00:00;1726444856;16/09/24;00:00:56;1.013;0.019;0.115;0.009773843921720982;-0.009773843921720982;0.0024434609804302454
01:00:0A:00:00:00:00;1726444857;16/09/24;00:00:57;1.012;0.019;0.116;0.009773843921720982;-0.010995574295520782;0.0036651913542300463
01:00:0A:00:00:00:00;1726444858;16/09/24;00:00:58;1.013;0.018;0.115;0.009773843921720982;-0.010995574295520782;0.0036651913542300463
01:00:0A:00:00:00:00;1726444859;16/09/24;00:00:59;1.011;0.019;0.115;0.009773843921720982;-0.010995574295520782;0.0036651913542300463
01:00:0A:00:00:00:00;1726444860;16/09/24;00:01:00;1.012;0.018;0.116;0.009773843921720982;-0.010995574295520782;0.0024434609804302454
01:00:0A:00:00:00:00;1726444861;16/09/24;00:01:01;1.012;0.019;0.116;0.00855211354792118;-0.010995574295520782;0.0024434609804302454
01:00:0A:00:00:00:00;1726444862;16/09/24;00:01:02;1.011;0.018;0.114;0.00855211354792118;-0.010995574295520782;0.0024434609804302454
01:00:0A:00:00:00:00;1726444863;16/09/24;00:01:03;1.011;0.018;0.116;0.00855211354792118;-0.010995574295520782;0.0024434609804302454
01:00:0A:00:00:00:00;1726444864;16/09/24;00:01:04;1.012;0.019;0.116;0.00855211354792118;-0.010995574295520782;0.0024434609804302454
01:00:0A:00:00:00:00;1726444865;16/09/24;00:01:05;1.012;0.019;0.115;0.00855211354792118;-0.010995574295520782;0.0024434609804302454
01:00:0A:00:00:00:00;1726444866;16/09/24;00:01:06;1.012;0.018;0.116;0.00855211354792118;-0.012217304669320583;0.0024434609804302454
01:00:0A:00:00:00:00;1726444867;16/09/24;00:01:07;1.012;0.018;0.116;0.00855211354792118;-0.010995574295520782;0.0024434609804302454
01:00:0A:00:00:00:00;1726444868;16/09/24;00:01:08;1.012;0.018;0.114;0.00855211354792118;-0.012217304669320583;0.0024434609804302454
01:00:0A:00:00:00:00;1726444869;16/09/24;00:01:09;1.014;0.02;0.116;0.0073303827084600925;-0.010995574295520782;0.0024434609804302454
01:00:0A:00:00:00:00;1726444870;16/09/24;00:01:10;1.013;0.019;0.115;0.00855211354792118;-0.010995574295520782;0.0024434609804302454
01:00:0A:00:00:00:00;1726444871;16/09/24;00:01:11;1.012;0.018;0.115;0.0073303827084600925;-0.010995574295520782;0.0024434609804302454
01:00:0A:00:00:00:00;1726444872;16/09/24;00:01:12;1.011;0.019;0.115;0.0073303827084600925;-0.012217304669320583;0.0024434609804302454
01:00:0A:00:00:00:00;1726444873;16/09/24;00:01:13;1.012;0.018;0.116;0.0073303827084600925;-0.010995574295520782;0.0024434609804302454
01:00:0A:00:00:00:00;1726444874;16/09/24;00:01:14;1.012;0.018;0.116;0.0073303827084600925;-0.010995574295520782;0.0024434609804302454
01:00:0A:00:00:00:00;1726444875;16/09/24;00:01:15;1.011;0.018;0.115;0.0073303827084600925;-0.010995574295520782;0.0024434609804302454
01:00:0A:00:00:00:00;1726444876;16/09/24;00:01:16;1.01;0.018;0.114;0.0073303827084600925;-0.010995574295520782;0.0024434609804302454
01:00:0A:00:00:00:00;1726444877;16/09/24;00:01:17;1.013;0.018;0.115;0.0073303827084600925;-0.010995574295520782;0.0024434609804302454
01:00:0A:00:00:00:00;1726444878;16/09/24;00:01:18;1.012;0.019;0.115;0.006108652334660292;-0.010995574295520782;0.0024434609804302454
01:00:0A:00:00:00:00;1726444879;16/09/24;00:01:19;1.012;0.018;0.115;0.006108652334660292;-0.010995574295520782;0.0024434609804302454
01:00:0A:00:00:00:00;1726444880;16/09/24;00:01:20;1.011;0.018;0.116;0.006108652334660292;-0.010995574295520782;0.0024434609804302454
01:00:0A:00:00:00:00;1726444881;16/09/24;00:01:21;1.012;0.018;0.114;0.006108652334660292;-0.012217304669320583;0.0024434609804302454
01:00:0A:00:00:00:00;1726444882;16/09/24;00:01:22;1.011;0.019;0.116;0.006108652334660292;-0.010995574295520782;0.0024434609804302454
01:00:0A:00:00:00:00;1726444883;16/09/24;00:01:23;1.013;0.019;0.116;0.006108652334660292;-0.012217304669320583;0.0024434609804302454
01:00:0A:00:00:00:00;1726444884;16/09/24;00:01:24;1.012;0.019;0.115;0.006108652334660292;-0.010995574295520782;0.0024434609804302454
01:00:0A:00:00:00:00;1726444885;16/09/24;00:01:25;1.013;0.019;0.115;0.004886921960860491;-0.012217304669320583;0.0024434609804302454
01:00:0A:00:00:00:00;1726444886;16/09/24;00:01:26;1.012;0.019;0.116;0.004886921960860491;-0.010995574295520782;0.0012217304902151227
01:00:0A:00:00:00:00;1726444887;16/09/24;00:01:27;1.012;0.018;0.115;0.004886921960860491;-0.012217304669320583;0.0024434609804302454
01:00:0A:00:00:00:00;1726444888;16/09/24;00:01:28;1.013;0.019;0.114;0.0036651913542300463;-0.010995574295520782;0.0024434609804302454
01:00:0A:00:00:00:00;1726444889;16/09/24;00:01:29;1.011;0.018;0.116;0.004886921960860491;-0.012217304669320583;0.0024434609804302454
01:00:0A:00:00:00:00;1726444890;16/09/24;00:01:30;1.011;0.018;0.115;0.0036651913542300463;-0.010995574295520782;0.0024434609804302454
01:00:0A:00:00:00:00;1726444891;16/09/24;00:01:31;1.012;0.019;0.115;0.0036651913542300463;-0.012217304669320583;0.0024434609804302454
01:00:0A:00:00:00:00;1726444892;16/09/24;00:01:32;1.013;0.018;0.115;0.0036651913542300463;-0.010995574295520782;0.0024434609804302454
01:00:0A:00:00:00:00;1726444893;16/09/24;00:01:33;1.012;0.018;0.116;0.0024434609804302454;-0.010995574295520782;0.0024434609804302454
01:00:0A:00:00:00:00;1726444894;16/09/24;00:01:34;1.013;0.018;0.114;0.0024434609804302454;-0.010995574295520782;0.0024434609804302454
01:00:0A:00:00:00:00;1726444895;16/09/24;00:01:35;1.011;0.018;0.115;0.0024434609804302454;-0.010995574295520782;0.0024434609804302454
01:00:0A:00:00:00:00;1726444896;16/09/24;00:01:36;1.012;0.018;0.115;0.0012217304902151227;-0.010995574295520782;0.0024434609804302454
01:00:0A:00:00:00:00;1726444897;16/09/24;00:01:37;1.012;0.02;0.115;0.0012217304902151227;-0.010995574295520782;0.0024434609804302454
01:00:0A:00:00:00:00;1726444898;16/09/24;00:01:38;1.011;0.019;0.115;0.0012217304902151227;-0.012217304669320583;0.0024434609804302454
01:00:0A:00:00:00:00;1726444899;16/09/24;00:01:39;1.013;0.019;0.116;0.0;-0.012217304669320583;0.0024434609804302454
01:00:0A:00:00:00:00;1726444900;16/09/24;00:01:40;1.012;0.02;0.115;0.0;-0.012217304669320583;0.0024434609804302454
01:00:0A:00:00:00:00;1726444901;16/09/24;00:01:41;1.013;0.019;0.114;-0.0012217304902151227;-0.010995574295520782;0.0024434609804302454
01:00:0A:00:00:00:00;1726444902;16/09/24;00:01:42;1.012;0.018;0.114;-0.0012217304902151227;-0.012217304669320583;0.0024434609804302454
01:00:0A:00:00:00:00;1726444903;16/09/24;00:01:43;1.012;0.018;0.115;-0.0012217304902151227;-0.010995574295520782;0.0012217304902151227
01:00:0A:00:00:00:00;1726444904;16/09/24;00:01:44;1.011;0.019;0.115;-0.0012217304902151227;-0.012217304669320583;0.0024434609804302454
01:00:0A:00:00:00:00;1726444905;16/09/24;00:01:45;1.013;0.019;0.115;-0.0012217304902151227;-0.010995574295520782;0.0012217304902151227
01:00:0A:00:00:00:00;1726444906;16/09/24;00:01:46;1.012;0.02;0.115;-0.0024434609804302454;-0.012217304669320583;0.0024434609804302454
01:00:0A:00:00:00:00;1726444907;16/09/24;00:01:47;1.013;0.018;0.115;-0.0024434609804302454;-0.010995574295520782;0.0024434609804302454
01:00:0A:00:00:00:00;1726444908;16/09/24;00:01:48;1.011;0.019;0.115;-0.0024434609804302454;-0.012217304669320583;0.0024434609804302454
01:00:0A:00:00:00:00;1726444909;16/09/24;00:01:49;1.011;0.019;0.114;-0.0036651913542300463;-0.010995574295520782;0.0012217304902151227
01:00:0A:00:00:00:00;1726444910;16/09/24;00:01:50;1.012;0.019;0.116;-0.0036651913542300463;-0.012217304669320583;0.0012217304902151227
01:00:0A:00:00:00:00;1726444911;16/09/24;00:01:51;1.012;0.019;0.115;-0.0036651913542300463;-0.010995574295520782;0.0012217304902151227
01:00:0A:00:00:00:00;1726444912;16/09/24;00:01:52;1.012;0.019;0.116;-0.0036651913542300463;-0.012217304669320583;0.0012217304902151227
01:00:0A:00:00:00:00;1726444913;16/09/24;00:01:53;1.011;0.019;0.114;-0.0036651913542300463;-0.012217304669320583;0.0012217304902151227
01:00:0A:00:00:00:00;1726444914;16/09/24;00:01:54;1.012;0.018;0.116;-0.0036651913542300463;-0.012217304669320583;0.0024434609804302454
01:00:0A:00:00:00:00;1726444915;16/09/24;00:01:55;1.011;0.018;0.116;-0.0036651913542300463;-0.012217304669320583;0.0012217304902151227
01:00:0A:00:00:00:00;1726444916;16/09/24;00:01:56;1.012;0.018;0.115;-0.004886921960860491;-0.010995574295520782;0.0012217304902151227
01:00:0A:00:00:00:00;1726444917;16/09/24;00:01:57;1.011;0.018;0.115;-0.004886921960860491;-0.012217304669320583;0.0012217304902151227
01:00:0A:00:00:00:00;1726444918;16/09/24;00:01:58;1.012;0.018;0.115;-0.004886921960860491;-0.010995574295520782;0.0024434609804302454
01:00:0A:00:00:00:00;1726444919;16/09/24;00:01:59;1.012;0.018;0.115;-0.004886921960860491;-0.012217304669320583;0.0024434609804302454
01:00:0A:00:00:00:00;1726444920;16/09/24;00:02:00;1.012;0.018;0.115;-0.006108652334660292;-0.010995574295520782;0.0024434609804302454
01:00:0A:00:00:00:00;1726444921;16/09/24;00:02:01;1.013;0.018;0.115;-0.004886921960860491;-0.012217304669320583;0.0012217304902151227
01:00:0A:00:00:00:00;1726444922;16/09/24;00:02:02;1.012;0.018;0.114;-0.006108652334660292;-0.010995574295520782;0.0012217304902151227
01:00:0A:00:00:00:00;1726444923;16/09/24;00:02:03;1.011;0.018;0.115;-0.006108652334660292;-0.012217304669320583;0.0012217304902151227
01:00:0A:00:00:00:00;1726444924;16/09/24;00:02:04;1.013;0.019;0.116;-0.006108652334660292;-0.010995574295520782;0.0012217304902151227
01:00:0A:00:00:00:00;1726444925;16/09/24;00:02:05;1.011;0.02;0.116;-0.006108652334660292;-0.012217304669320583;0.0012217304902151227
01:00:0A:00:00:00:00;1726444926;16/09/24;00:02:06;1.012;0.018;0.115;-0.006108652334660292;-0.010995574295520782;0.0012217304902151227
01:00:0A:00:00:00:00;1726444927;16/09/24;00:02:07;1.012;0.019;0.116;-0.006108652334660292;-0.012217304669320583;0.0012217304902151227
01:00:0A:00:00:00:00;1726444928;16/09/24;00:02:08;1.013;0.019;0.115;-0.006108652334660292;-0.010995574295520782;0.0012217304902151227
01:00:0A:00:00:00:00;1726444929;16/09/24;00:02:09;1.012;0.018;0.116;-0.006108652334660292;-0.012217304669320583;0.0024434609804302454
01:00:0A:00:00:00:00;1726444930;16/09/24;00:02:10;1.013;0.019;0.115;-0.006108652334660292;-0.010995574295520782;0.0012217304902151227
01:00:0A:00:00:00:00;1726444931;16/09/24;00:02:11;1.012;0.018;0.115;-0.006108652334660292;-0.012217304669320583;0.0012217304902151227
01:00:0A:00:00:00:00;1726444932;16/09/24;00:02:12;1.011;0.019;0.115;-0.006108652334660292;-0.012217304669320583;0.0012217304902151227
01:00:0A:00:00:00:00;1726444933;16/09/24;00:02:13;1.012;0.018;0.116;-0.006108652334660292;-0.010995574295520782;0.0012217304902151227
01:00:0A:00:00:00:00;1726444934;16/09/24;00:02:14;1.011;0.019;0.114;-0.006108652334660292;-0.012217304669320583;0.0012217304902151227
01:00:0A:00:00:00:00;1726444935;16/09/24;00:02:15;1.012;0.019;0.115;-0.006108652334660292;-0.010995574295520782;0.0012217304902151227
01:00:0A:00:00:00:00;1726444936;16/09/24;00:02:16;1.012;0.02;0.115;-0.004886921960860491;-0.012217304669320583;0.0012217304902151227
01:00:0A:00:00:00:00;1726444937;16/09/24;00:02:17;1.012;0.019;0.115;-0.006108652334660292;-0.010995574295520782;0.0012217304902151227
01:00:0A:00:00:00:00;1726444938;16/09/24;00:02:18;1.011;0.019;0.115;-0.004886921960860491;-0.012217304669320583;0.0012217304902151227
01:00:0A:00:00:00:00;1726444939;16/09/24;00:02:19;1.012;0.019;0.115;-0.006108652334660292;-0.010995574295520782;0.0012217304902151227
01:00:0A:00:00:00:00;1726444940;16/09/24;00:02:20;1.013;0.02;0.116;-0.006108652334660292;-0.012217304669320583;0.0012217304902151227
01:00:0A:00:00:00:00;1726444941;16/09/24;00:02:21;1.012;0.018;0.115;-0.004886921960860491;-0.010995574295520782;0.0012217304902151227
01:00:0A:00:00:00:00;1726444942;16/09/24;00:02:22;1.013;0.019;0.115;-0.004886921960860491;-0.012217304669320583;0.0012217304902151227
01:00:0A:00:00:00:00;1726444943;16/09/24;00:02:23;1.012;0.019;0.115;-0.004886921960860491;-0.010995574295520782;0.0012217304902151227
01:00:0A:00:00:00:00;1726444944;16/09/24;00:02:24;1.012;0.019;0.115;-0.004886921960860491;-0.012217304669320583;0.0012217304902151227
01:00:0A:00:00:00:00;1726444945;16/09/24;00:02:25;1.012;0.018;0.115;-0.004886921960860491;-0.010995574295520782;0.0012217304902151227
01:00:0A:00:00:00:00;1726444946;16/09/24;00:02:26;1.012;0.018;0.115;-0.004886921960860491;-0.012217304669320583;0.0012217304902151227
01:00:0A:00:00:00:00;1726444947;16/09/24;00:02:27;1.012;0.019;0.115;-0.004886921960860491;-0.010995574295520782;0.0012217304902151227
01:00:0A:00:00:00:00;1726444948;16/09/24;00:02:28;1.012;0.018;0.115;-0.004886921960860491;-0.012217304669320583;0.0012217304902151227
01:00:0A:00:00:00:00;1726444949;16/09/24;00:02:29;1.012;0.019;0.114;-0.004886921960860491;-0.012217304669320583;0.0012217304902151227
01:00:0A:00:00:00:00;1726444950;16/09/24;00:02:30;1.013;0.019;0.115;-0.004886921960860491;-0.012217304669320583;0.0012217304902151227
01:00:0A:00:00:00:00;1726444951;16/09/24;00:02:31;1.011;0.017;0.115;-0.004886921960860491;-0.012217304669320583;0.0012217304902151227
01:00:0A:00:00:00:00;1726444952;16/09/24;00:02:32;1.011;0.019;0.114;-0.004886921960860491;-0.010995574295520782;0.0012217304902151227
01:00:0A:00:00:00:00;1726444953;16/09/24;00:02:33;1.013;0.019;0.114;-0.004886921960860491;-0.012217304669320583;0.0012217304902151227
01:00:0A:00:00:00:00;1726444954;16/09/24;00:02:34;1.011;0.019;0.115;-0.004886921960860491;-0.010995574295520782;0.0012217304902151227
01:00:0A:00:00:00:00;1726444955;16/09/24;00:02:35;1.011;0.019;0.115;-0.004886921960860491;-0.012217304669320583;0.0012217304902151227
01:00:0A:00:00:00:00;1726444956;16/09/24;00:02:36;1.012;0.018;0.116;-0.004886921960860491;-0.010995574295520782;0.0024434609804302454
01:00:0A:00:00:00:00;1726444957;16/09/24;00:02:37;1.012;0.019;0.114;-0.004886921960860491;-0.012217304669320583;0.0012217304902151227
01:00:0A:00:00:00:00;1726444958;16/09/24;00:02:38;1.013;0.019;0.115;-0.004886921960860491;-0.010995574295520782;0.0012217304902151227
01:00:0A:00:00:00:00;1726444959;16/09/24;00:02:39;1.012;0.017;0.114;-0.004886921960860491;-0.012217304669320583;0.0012217304902151227
01:00:0A:00:00:00:00;1726444960;16/09/24;00:02:40;1.011;0.019;0.114;-0.004886921960860491;-0.010995574295520782;0.0012217304902151227
01:00:0A:00:00:00:00;1726444961;16/09/24;00:02:41;1.012;0.018;0.116;-0.004886921960860491;-0.012217304669320583;0.0012217304902151227
01:00:0A:00:00:00:00;1726444962;16/09/24;00:02:42;1.013;0.018;0.114;-0.004886921960860491;-0.010995574295520782;0.0012217304902151227
01:00:0A:00:00:00:00;1726444963;16/09/24;00:02:43;1.013;0.019;0.116;-0.004886921960860491;-0.012217304669320583;0.0012217304902151227
01:00:0A:00:00:00:00;1726444964;16/09/24;00:02:44;1.012;0.019;0.115;-0.004886921960860491;-0.010995574295520782;0.0012217304902151227
01:00:0A:00:00:00:00;1726444965;16/09/24;00:02:45;1.011;0.019;0.115;-0.004886921960860491;-0.012217304669320583;0.0024434609804302454
01:00:0A:00:00:00:00;1726444966;16/09/24;00:02:46;1.013;0.019;0.115;-0.004886921960860491;-0.010995574295520782;0.0012217304902151227
01:00:0A:00:00:00:00;1726444967;16/09/24;00:02:47;1.012;0.019;0.115;-0.004886921960860491;-0.012217304669320583;0.0012217304902151227
01:00:0A:00:00:00:00;1726444968;16/09/24;00:02:48;1.012;0.019;0.115;-0.004886921960860491;-0.012217304669320583;0.0012217304902151227
01:00:0A:00:00:00:00;1726444969;16/09/24;00:02:49;1.012;0.018;0.115;-0.004886921960860491;-0.012217304669320583;0.0012217304902151227
01:00:0A:00:00:00:00;1726444970;16/09/24;00:02:50;1.013;0.019;0.115;-0.004886921960860491;-0.012217304669320583;0.0012217304902151227
01:00:0A:00:00:00:00;1726444971;16/09/24;00:02:51;1.012;0.019;0.116;-0.004886921960860491;-0.010995574295520782;0.0024434609804302454
01:00:0A:00:00:00:00;1726444972;16/09/24;00:02:52;1.012;0.018;0.115;-0.004886921960860491;-0.012217304669320583;0.0012217304902151227
01:00:0A:00:00:00:00;1726444973;16/09/24;00:02:53;1.013;0.018;0.115;-0.004886921960860491;-0.010995574295520782;0.0012217304902151227
01:00:0A:00:00:00:00;1726444974;16/09/24;00:02:54;1.012;0.018;0.115;-0.004886921960860491;-0.012217304669320583;0.0012217304902151227
01:00:0A:00:00:00:00;1726444975;16/09/24;00:02:55;1.013;0.019;0.115;-0.004886921960860491;-0.010995574295520782;0.0012217304902151227
01:00:0A:00:00:00:00;1726444976;16/09/24;00:02:56;1.012;0.018;0.114;-0.004886921960860491;-0.012217304669320583;0.0012217304902151227
01:00:0A:00:00:00:00;1726444977;16/09/24;00:02:57;1.013;0.019;0.115;-0.004886921960860491;-0.010995574295520782;0.0012217304902151227
01:00:0A:00:00:00:00;1726444978;16/09/24;00:02:58;1.011;0.019;0.115;-0.004886921960860491;-0.012217304669320583;0.0012217304902151227
01:00:0A:00:00:00:00;1726444979;16/09/24;00:02:59;1.012;0.018;0.115;-0.006108652334660292;-0.010995574295520782;0.0012217304902151227
01:00:0A:00:00:00:00;1726444980;16/09/24;00:03:00;1.012;0.017;0.116;-0.004886921960860491;-0.012217304669320583;0.0012217304902151227
01:00:0A:00:00:00:00;1726444981;16/09/24;00:03:01;1.012;0.018;0.116;-0.004886921960860491;-0.010995574295520782;0.0024434609804302454
01:00:0A:00:00:00:00;1726444982;16/09/24;00:03:02;1.013;0.018;0.115;-0.004886921960860491;-0.012217304669320583;0.0012217304902151227
01:00:0A:00:00:00:00;1726444983;16/09/24;00:03:03;1.012;0.018;0.115;-0.004886921960860491;-0.010995574295520782;0.0012217304902151227
01:00:0A:00:00:00:00;1726444984;16/09/24;00:03:04;1.012;0.019;0.115;-0.006108652334660292;-0.010995574295520782;0.0012217304902151227
01:00:0A:00:00:00:00;1726444985;16/09/24;00:03:05;1.014;0.019;0.116;-0.006108652334660292;-0.010995574295520782;0.0012217304902151227
01:00:0A:00:00:00:00;1726444986;16/09/24;00:03:06;1.012;0.018;0.115;-0.006108652334660292;-0.010995574295520782;0.0024434609804302454
01:00:0A:00:00:00:00;1726444987;16/09/24;00:03:07;1.013;0.019;0.115;-0.006108652334660292;-0.012217304669320583;0.0012217304902151227
01:00:0A:00:00:00:00;1726444988;16/09/24;00:03:08;1.012;0.018;0.116;-0.006108652334660292;-0.010995574295520782;0.0012217304902151227
01:00:0A:00:00:00:00;1726444989;16/09/24;00:03:09;1.011;0.019;0.114;-0.006108652334660292;-0.012217304669320583;0.0012217304902151227
01:00:0A:00:00:00:00;1726444990;16/09/24;00:03:10;1.012;0.018;0.116;-0.006108652334660292;-0.010995574295520782;0.0012217304902151227
01:00:0A:00:00:00:00;1726444991;16/09/24;00:03:11;1.013;0.019;0.115;-0.006108652334660292;-0.012217304669320583;0.0012217304902151227
01:00:0A:00:00:00:00;1726444992;16/09/24;00:03:12;1.013;0.018;0.115;-0.006108652334660292;-0.010995574295520782;0.0012217304902151227
01:00:0A:00:00:00:00;1726444993;16/09/24;00:03:13;1.013;0.019;0.114;-0.006108652334660292;-0.012217304669320583;0.0012217304902151227
01:00:0A:00:00:00:00;1726444994;16/09/24;00:03:14;1.013;0.018;0.116;-0.006108652334660292;-0.012217304669320583;0.0012217304902151227
01:00:0A:00:00:00:00;1726444995;16/09/24;00:03:15;1.012;0.02;0.116;-0.006108652334660292;-0.012217304669320583;0.0012217304902151227
01:00:0A:00:00:00:00;1726444996;16/09/24;00:03:16;1.012;0.019;0.116;-0.006108652334660292;-0.012217304669320583;0.0012217304902151227
01:00:0A:00:00:00:00;1726444997;16/09/24;00:03:17;1.012;0.018;0.114;-0.006108652334660292;-0.012217304669320583;0.0012217304902151227
01:00:0A:00:00:00:00;1726444998;16/09/24;00:03:18;1.011;0.018;0.115;-0.006108652334660292;-0.010995574295520782;0.0012217304902151227
01:00:0A:00:00:00:00;1726444999;16/09/24;00:03:19;1.012;0.018;0.115;-0.006108652334660292;-0.012217304669320583;0.0012217304902151227
01:00:0A:00:00:00:00;1726445000;16/09/24;00:03:20;1.012;0.018;0.115;-0.006108652334660292;-0.010995574295520782;0.0012217304902151227
01:00:0A:00:00:00:00;1726445001;16/09/24;00:03:21;1.012;0.019;0.116;-0.006108652334660292;-0.012217304669320583;0.0012217304902151227
01:00:0A:00:00:00:00;1726445002;16/09/24;00:03:22;1.011;0.019;0.116;-0.006108652334660292;-0.010995574295520782;0.0012217304902151227
01:00:0A:00:00:00:00;1726445003;16/09/24;00:03:23;1.012;0.019;0.115;-0.006108652334660292;-0.010995574295520782;0.0012217304902151227
01:00:0A:00:00:00:00;1726445004;16/09/24;00:03:24;1.012;0.018;0.114;-0.006108652334660292;-0.012217304669320583;0.0012217304902151227
01:00:0A:00:00:00:00;1726445005;16/09/24;00:03:25;1.012;0.019;0.115;-0.006108652334660292;-0.012217304669320583;0.0024434609804302454
01:00:0A:00:00:00:00;1726445006;16/09/24;00:03:26;1.012;0.018;0.115;-0.004886921960860491;-0.012217304669320583;0.0012217304902151227
01:00:0A:00:00:00:00;1726445007;16/09/24;00:03:27;1.012;0.019;0.116;-0.006108652334660292;-0.010995574295520782;0.0024434609804302454
01:00:0A:00:00:00:00;1726445008;16/09/24;00:03:28;1.012;0.018;0.115;-0.006108652334660292;-0.012217304669320583;0.0012217304902151227
01:00:0A:00:00:00:00;1726445009;16/09/24;00:03:29;1.012;0.019;0.115;-0.006108652334660292;-0.010995574295520782;0.0012217304902151227
01:00:0A:00:00:00:00;1726445010;16/09/24;00:03:30;1.012;0.019;0.116;-0.004886921960860491;-0.012217304669320583;0.0012217304902151227
01:00:0A:00:00:00:00;1726445011;16/09/24;00:03:31;1.013;0.019;0.115;-0.004886921960860491;-0.010995574295520782;0.0024434609804302454
01:00:0A:00:00:00:00;1726445012;16/09/24;00:03:32;1.012;0.018;0.115;-0.004886921960860491;-0.012217304669320583;0.0012217304902151227
01:00:0A:00:00:00:00;1726445013;16/09/24;00:03:33;1.013;0.018;0.114;-0.006108652334660292;-0.010995574295520782;0.0012217304902151227
01:00:0A:00:00:00:00;1726445014;16/09/24;00:03:34;1.013;0.019;0.115;-0.004886921960860491;-0.012217304669320583;0.0012217304902151227
01:00:0A:00:00:00:00;1726445015;16/09/24;00:03:35;1.011;0.019;0.115;-0.004886921960860491;-0.010995574295520782;0.0012217304902151227
01:00:0A:00:00:00:00;1726445016;16/09/24;00:03:36;1.012;0.018;0.116;-0.004886921960860491;-0.012217304669320583;0.0012217304902151227
01:00:0A:00:00:00:00;1726445017;16/09/24;00:03:37;1.012;0.019;0.115;-0.004886921960860491;-0.012217304669320583;0.0012217304902151227
01:00:0A:00:00:00:00;1726445018;16/09/24;00:03:38;1.013;0.018;0.115;-0.004886921960860491;-0.012217304669320583;0.0012217304902151227
01:00:0A:00:00:00:00;1726445019;16/09/24;00:03:39;1.012;0.02;0.116;-0.004886921960860491;-0.010995574295520782;0.0012217304902151227
01:00:0A:00:00:00:00;1726445020;16/09/24;00:03:40;1.013;0.018;0.115;-0.004886921960860491;-0.010995574295520782;0.0012217304902151227
01:00:0A:00:00:00:00;1726445021;16/09/24;00:03:41;1.012;0.019;0.114;-0.004886921960860491;-0.012217304669320583;0.0012217304902151227
01:00:0A:00:00:00:00;1726445022;16/09/24;00:03:42;1.012;0.018;0.116;-0.004886921960860491;-0.012217304669320583;0.0012217304902151227
01:00:0A:00:00:00:00;1726445023;16/09/24;00:03:43;1.013;0.019;0.115;-0.004886921960860491;-0.010995574295520782;0.0012217304902151227
01:00:0A:00:00:00:00;1726445024;16/09/24;00:03:44;1.012;0.019;0.115;-0.004886921960860491;-0.010995574295520782;0.0024434609804302454
01:00:0A:00:00:00:00;1726445025;16/09/24;00:03:45;1.012;0.019;0.115;-0.004886921960860491;-0.012217304669320583;0.0012217304902151227
01:00:0A:00:00:00:00;1726445026;16/09/24;00:03:46;1.013;0.019;0.116;-0.004886921960860491;-0.010995574295520782;0.0012217304902151227
01:00:0A:00:00:00:00;1726445027;16/09/24;00:03:47;1.012;0.019;0.115;-0.0036651913542300463;-0.012217304669320583;0.0012217304902151227
01:00:0A:00:00:00:00;1726445028;16/09/24;00:03:48;1.012;0.019;0.116;-0.0036651913542300463;-0.010995574295520782;0.0024434609804302454
01:00:0A:00:00:00:00;1726445029;16/09/24;00:03:49;1.012;0.019;0.115;-0.0036651913542300463;-0.010995574295520782;0.0012217304902151227
01:00:0A:00:00:00:00;1726445030;16/09/24;00:03:50;1.012;0.019;0.116;-0.0036651913542300463;-0.012217304669320583;0.0024434609804302454
01:00:0A:00:00:00:00;1726445031;16/09/24;00:03:51;1.013;0.019;0.116;-0.0036651913542300463;-0.010995574295520782;0.0012217304902151227
01:00:0A:00:00:00:00;1726445032;16/09/24;00:03:52;1.012;0.018;0.115;-0.0036651913542300463;-0.012217304669320583;0.0012217304902151227
01:00:0A:00:00:00:00;1726445033;16/09/24;00:03:53;1.012;0.018;0.115;-0.0036651913542300463;-0.010995574295520782;0.0012217304902151227
01:00:0A:00:00:00:00;1726445034;16/09/24;00:03:54;1.012;0.019;0.116;-0.0036651913542300463;-0.010995574295520782;0.0024434609804302454
01:00:0A:00:00:00:00;1726445035;16/09/24;00:03:55;1.013;0.018;0.115;-0.0036651913542300463;-0.012217304669320583;0.0012217304902151227
01:00:0A:00:00:00:00;1726445036;16/09/24;00:03:56;1.012;0.019;0.116;-0.0036651913542300463;-0.010995574295520782;0.0012217304902151227
01:00:0A:00:00:00:00;1726445037;16/09/24;00:03:57;1.012;0.019;0.116;-0.0036651913542300463;-0.010995574295520782;0.0012217304902151227
01:00:0A:00:00:00:00;1726445038;16/09/24;00:03:58;1.012;0.019;0.116;-0.0024434609804302454;-0.010995574295520782;0.0012217304902151227
01:00:0A:00:00:00:00;1726445039;16/09/24;00:03:59;1.012;0.017;0.116;-0.0024434609804302454;-0.010995574295520782;0.0012217304902151227
01:00:0A:00:00:00:00;1726445040;16/09/24;00:04:00;1.013;0.019;0.116;-0.0024434609804302454;-0.012217304669320583;0.0012217304902151227
01:00:0A:00:00:00:00;1726445041;16/09/24;00:04:01;1.012;0.019;0.116;-0.0024434609804302454;-0.010995574295520782;0.0012217304902151227
01:00:0A:00:00:00:00;1726445042;16/09/24;00:04:02;1.012;0.018;0.116;-0.0024434609804302454;-0.010995574295520782;0.0012217304902151227
01:00:0A:00:00:00:00;1726445043;16/09/24;00:04:03;1.013;0.019;0.116;-0.0024434609804302454;-0.012217304669320583;0.0024434609804302454
01:00:0A:00:00:00:00;1726445044;16/09/24;00:04:04;1.013;0.019;0.116;-0.0024434609804302454;-0.010995574295520782;0.0012217304902151227
01:00:0A:00:00:00:00;1726445045;16/09/24;00:04:05;1.012;0.019;0.116;-0.0024434609804302454;-0.010995574295520782;0.0012217304902151227
01:00:0A:00:00:00:00;1726445046;16/09/24;00:04:06;1.012;0.017;0.116;-0.0024434609804302454;-0.010995574295520782;0.0012217304902151227
01:00:0A:00:00:00:00;1726445047;16/09/24;00:04:07;1.012;0.019;0.115;-0.0024434609804302454;-0.012217304669320583;0.0024434609804302454
01:00:0A:00:00:00:00;1726445048;16/09/24;00:04:08;1.011;0.019;0.116;-0.0012217304902151227;-0.010995574295520782;0.0012217304902151227
01:00:0A:00:00:00:00;1726445049;16/09/24;00:04:09;1.012;0.018;0.114;-0.0012217304902151227;-0.010995574295520782;0.0024434609804302454
01:00:0A:00:00:00:00;1726445050;16/09/24;00:04:10;1.013;0.018;0.116;-0.0012217304902151227;-0.010995574295520782;0.0012217304902151227
01:00:0A:00:00:00:00;1726445051;16/09/24;00:04:11;1.011;0.018;0.116;-0.0012217304902151227;-0.010995574295520782;0.0024434609804302454
01:00:0A:00:00:00:00;1726445052;16/09/24;00:04:12;1.011;0.019;0.115;-0.0012217304902151227;-0.012217304669320583;0.0012217304902151227
01:00:0A:00:00:00:00;1726445053;16/09/24;00:04:13;1.012;0.019;0.116;-0.0012217304902151227;-0.010995574295520782;0.0024434609804302454
01:00:0A:00:00:00:00;1726445054;16/09/24;00:04:14;1.013;0.017;0.116;-0.0012217304902151227;-0.010995574295520782;0.0012217304902151227
01:00:0A:00:00:00:00;1726445055;16/09/24;00:04:15;1.011;0.018;0.115;-0.0012217304902151227;-0.010995574295520782;0.0024434609804302454
01:00:0A:00:00:00:00;1726445056;16/09/24;00:04:16;1.012;0.019;0.116;-0.0012217304902151227;-0.010995574295520782;0.0012217304902151227
01:00:0A:00:00:00:00;1726445057;16/09/24;00:04:17;1.012;0.018;0.114;-0.0012217304902151227;-0.010995574295520782;0.0024434609804302454
01:00:0A:00:00:00:00;1726445058;16/09/24;00:04:18;1.013;0.018;0.115;-0.0012217304902151227;-0.010995574295520782;0.0024434609804302454
01:00:0A:00:00:00:00;1726445059;16/09/24;00:04:19;1.012;0.019;0.116;-0.0012217304902151227;-0.010995574295520782;0.0024434609804302454
01:00:0A:00:00:00:00;1726445060;16/09/24;00:04:20;1.012;0.018;0.117;0.0;-0.010995574295520782;0.0024434609804302454
01:00:0A:00:00:00:00;1726445061;16/09/24;00:04:21;1.013;0.018;0.116;0.0;-0.010995574295520782;0.0012217304902151227
01:00:0A:00:00:00:00;1726445062;16/09/24;00:04:22;1.013;0.019;0.117;0.0;-0.012217304669320583;0.0024434609804302454
01:00:0A:00:00:00:00;1726445063;16/09/24;00:04:23;1.012;0.019;0.116;0.0;-0.012217304669320583;0.0012217304902151227
01:00:0A:00:00:00:00;1726445064;16/09/24;00:04:24;1.01;0.019;0.116;0.0;-0.010995574295520782;0.0024434609804302454
01:00:0A:00:00:00:00;1726445065;16/09/24;00:04:25;1.013;0.019;0.115;0.0;-0.010995574295520782;0.0012217304902151227
01:00:0A:00:00:00:00;1726445066;16/09/24;00:04:26;1.011;0.018;0.115;0.0;-0.010995574295520782;0.0024434609804302454
01:00:0A:00:00:00:00;1726445067;16/09/24;00:04:27;1.012;0.019;0.116;0.0;-0.010995574295520782;0.0012217304902151227
01:00:0A:00:00:00:00;1726445068;16/09/24;00:04:28;1.012;0.017;0.116;0.0;-0.010995574295520782;0.0024434609804302454
01:00:0A:00:00:00:00;1726445069;16/09/24;00:04:29;1.012;0.019;0.117;0.0;-0.010995574295520782;0.0024434609804302454
01:00:0A:00:00:00:00;1726445070;16/09/24;00:04:30;1.012;0.019;0.116;0.0;-0.010995574295520782;0.0012217304902151227
01:00:0A:00:00:00:00;1726445071;16/09/24;00:04:31;1.012;0.019;0.115;0.0;-0.010995574295520782;0.0024434609804302454
01:00:0A:00:00:00:00;1726445072;16/09/24;00:04:32;1.012;0.018;0.116;0.0;-0.010995574295520782;0.0012217304902151227
01:00:0A:00:00:00:00;1726445073;16/09/24;00:04:33;1.011;0.018;0.115;0.0;-0.010995574295520782;0.0012217304902151227
01:00:0A:00:00:00:00;1726445074;16/09/24;00:04:34;1.011;0.018;0.116;0.0;-0.010995574295520782;0.0012217304902151227
01:00:0A:00:00:00:00;1726445075;16/09/24;00:04:35;1.013;0.017;0.116;0.0;-0.010995574295520782;0.0024434609804302454
01:00:0A:00:00:00:00;1726445076;16/09/24;00:04:36;1.012;0.018;0.116;0.0012217304902151227;-0.010995574295520782;0.0024434609804302454
01:00:0A:00:00:00:00;1726445077;16/09/24;00:04:37;1.012;0.018;0.115;0.0;-0.010995574295520782;0.0024434609804302454
01:00:0A:00:00:00:00;1726445078;16/09/24;00:04:38;1.012;0.02;0.116;0.0012217304902151227;-0.010995574295520782;0.0024434609804302454
01:00:0A:00:00:00:00;1726445079;16/09/24;00:04:39;1.012;0.018;0.115;0.0012217304902151227;-0.010995574295520782;0.0024434609804302454
01:00:0A:00:00:00:00;1726445080;16/09/24;00:04:40;1.012;0.018;0.115;0.0012217304902151227;-0.010995574295520782;0.0024434609804302454
01:00:0A:00:00:00:00;1726445081;16/09/24;00:04:41;1.012;0.018;0.115;0.0012217304902151227;-0.010995574295520782;0.0024434609804302454
01:00:0A:00:00:00:00;1726445082;16/09/24;00:04:42;1.012;0.018;0.116;0.0012217304902151227;-0.010995574295520782;0.0024434609804302454
01:00:0A:00:00:00:00;1726445083;16/09/24;00:04:43;1.012;0.019;0.115;0.0012217304902151227;-0.010995574295520782;0.0024434609804302454
01:00:0A:00:00:00:00;1726445084;16/09/24;00:04:44;1.012;0.018;0.115;0.0012217304902151227;-0.010995574295520782;0.0024434609804302454
01:00:0A:00:00:00:00;1726445085;16/09/24;00:04:45;1.012;0.019;0.116;0.0012217304902151227;-0.010995574295520782;0.0024434609804302454
01:00:0A:00:00:00:00;1726445086;16/09/24;00:04:46;1.012;0.019;0.115;0.0024434609804302454;-0.010995574295520782;0.0024434609804302454
01:00:0A:00:00:00:00;1726445087;16/09/24;00:04:47;1.012;0.019;0.115;0.0024434609804302454;-0.010995574295520782;0.0024434609804302454
01:00:0A:00:00:00:00;1726445088;16/09/24;00:04:48;1.011;0.019;0.116;0.0024434609804302454;-0.010995574295520782;0.0024434609804302454
01:00:0A:00:00:00:00;1726445089;16/09/24;00:04:49;1.01;0.018;0.116;0.0024434609804302454;-0.010995574295520782;0.0024434609804302454
01:00:0A:00:00:00:00;1726445090;16/09/24;00:04:50;1.012;0.018;0.116;0.0024434609804302454;-0.010995574295520782;0.0024434609804302454
01:00:0A:00:00:00:00;1726445091;16/09/24;00:04:51;1.012;0.017;0.116;0.0024434609804302454;-0.010995574295520782;0.0024434609804302454
01:00:0A:00:00:00:00;1726445092;16/09/24;00:04:52;1.011;0.018;0.116;0.0024434609804302454;-0.010995574295520782;0.0024434609804302454
01:00:0A:00:00:00:00;1726445093;16/09/24;00:04:53;1.013;0.018;0.115;0.0024434609804302454;-0.010995574295520782;0.0024434609804302454
01:00:0A:00:00:00:00;1726445094;16/09/24;00:04:54;1.011;0.018;0.115;0.0036651913542300463;-0.010995574295520782;0.0024434609804302454
01:00:0A:00:00:00:00;1726445095;16/09/24;00:04:55;1.012;0.019;0.114;0.0036651913542300463;-0.010995574295520782;0.0024434609804302454
01:00:0A:00:00:00:00;1726445096;16/09/24;00:04:56;1.011;0.018;0.115;0.0036651913542300463;-0.010995574295520782;0.0024434609804302454
01:00:0A:00:00:00:00;1726445097;16/09/24;00:04:57;1.011;0.019;0.117;0.0036651913542300463;-0.010995574295520782;0.0024434609804302454
01:00:0A:00:00:00:00;1726445098;16/09/24;00:04:58;1.011;0.018;0.116;0.0036651913542300463;-0.010995574295520782;0.0024434609804302454
01:00:0A:00:00:00:00;1726445099;16/09/24;00:04:59;1.012;0.018;0.115;0.0036651913542300463;-0.010995574295520782;0.0024434609804302454
01:00:0A:00:00:00:00;1726445100;16/09/24;00:05:00;1.012;0.019;0.115;0.0036651913542300463;-0.010995574295520782;0.0024434609804302454
01:00:0A:00:00:00:00;1726445101;16/09/24;00:05:01;1.012;0.019;0.117;0.0036651913542300463;-0.010995574295520782;0.0024434609804302454
01:00:0A:00:00:00:00;1726445102;16/09/24;00:05:02;1.011;0.019;0.116;0.004886921960860491;-0.010995574295520782;0.0024434609804302454
01:00:0A:00:00:00:00;1726445103;16/09/24;00:05:03;1.012;0.018;0.115;0.004886921960860491;-0.010995574295520782;0.0024434609804302454
01:00:0A:00:00:00:00;1726445104;16/09/24;00:05:04;1.011;0.018;0.116;0.004886921960860491;-0.010995574295520782;0.0024434609804302454
01:00:0A:00:00:00:00;1726445105;16/09/24;00:05:05;1.012;0.019;0.115;0.004886921960860491;-0.010995574295520782;0.0024434609804302454
01:00:0A:00:00:00:00;1726445106;16/09/24;00:05:06;1.011;0.019;0.115;0.004886921960860491;-0.010995574295520782;0.0024434609804302454
01:00:0A:00:00:00:00;1726445107;16/09/24;00:05:07;1.011;0.018;0.116;0.004886921960860491;-0.010995574295520782;0.0024434609804302454
01:00:0A:00:00:00:00;1726445108;16/09/24;00:05:08;1.01;0.018;0.115;0.006108652334660292;-0.010995574295520782;0.0024434609804302454
01:00:0A:00:00:00:00;1726445109;16/09/24;00:05:09;1.011;0.019;0.115;0.006108652334660292;-0.010995574295520782;0.0024434609804302454
01:00:0A:00:00:00:00;1726445110;16/09/24;00:05:10;1.012;0.019;0.115;0.006108652334660292;-0.010995574295520782;0.0024434609804302454
01:00:0A:00:00:00:00;1726445111;16/09/24;00:05:11;1.012;0.018;0.115;0.006108652334660292;-0.010995574295520782;0.0024434609804302454
01:00:0A:00:00:00:00;1726445112;16/09/24;00:05:12;1.012;0.018;0.116;0.006108652334660292;-0.010995574295520782;0.0024434609804302454
01:00:0A:00:00:00:00;1726445113;16/09/24;00:05:13;1.012;0.018;0.115;0.0073303827084600925;-0.010995574295520782;0.0024434609804302454
01:00:0A:00:00:00:00;1726445114;16/09/24;00:05:14;1.011;0.018;0.116;0.0073303827084600925;-0.010995574295520782;0.0024434609804302454
01:00:0A:00:00:00:00;1726445115;16/09/24;00:05:15;1.012;0.018;0.115;0.0073303827084600925;-0.010995574295520782;0.0024434609804302454
01:00:0A:00:00:00:00;1726445116;16/09/24;00:05:16;1.013;0.019;0.115;0.0073303827084600925;-0.010995574295520782;0.0024434609804302454
01:00:0A:00:00:00:00;1726445117;16/09/24;00:05:17;1.012;0.018;0.116;0.0073303827084600925;-0.010995574295520782;0.0024434609804302454
01:00:0A:00:00:00:00;1726445113;16/09/24;00:05:13;1.011;0.019;0.115;0.00855211354792118;-0.010995574295520782;0.0024434609804302454
01:00:0A:00:00:00:00;1726445114;16/09/24;00:05:14;1.012;0.017;0.116;0.00855211354792118;-0.010995574295520782;0.0024434609804302454
01:00:0A:00:00:00:00;1726445115;16/09/24;00:05:15;1.012;0.017;0.117;0.00855211354792118;-0.010995574295520782;0.0024434609804302454
01:00:0A:00:00:00:00;1726445116;16/09/24;00:05:16;1.012;0.018;0.116;0.00855211354792118;-0.010995574295520782;0.0024434609804302454
01:00:0A:00:00:00:00;1726445117;16/09/24;00:05:17;1.011;0.018;0.116;0.00855211354792118;-0.010995574295520782;0.0024434609804302454
01:00:0A:00:00:00:00;1726445118;16/09/24;00:05:18;1.012;0.019;0.115;0.00855211354792118;-0.010995574295520782;0.0024434609804302454
01:00:0A:00:00:00:00;1726445119;16/09/24;00:05:19;1.014;0.017;0.116;0.00855211354792118;-0.00855211354792118;0.006108652334660292
01:00:0A:00:00:00:00;1726445120;16/09/24;00:05:20;1.016;0.019;0.13;0.0024434609804302454;-0.012217304669320583;0.018325956538319588
01:00:0A:00:00:00:00;1726445121;16/09/24;00:05:21;1.021;0.007;0.162;0.0;0.09773843735456467;0.028099799528717995
01:00:0A:00:00:00:00;1726445122;16/09/24;00:05:22;1.027;-0.026;0.071;0.09407324343919754;-0.042760565876960754;-0.051312677562236786
01:00:0A:00:00:00:00;1726445123;16/09/24;00:05:23;0.98;0.249;0.154;0.07330382615327835;0.09040805697441101;-0.2626720666885376
01:00:0A:00:00:00:00;1726445124;16/09/24;00:05:24;1.091;-0.282;-0.274;-0.16249015927314758;0.08429940044879913;-0.012217304669320583
01:00:0A:00:00:00:00;1726445125;16/09/24;00:05:25;0.997;0.28;-0.177;-0.32131510972976685;-0.9077457189559937;0.7440338730812073
01:00:0A:00:00:00:00;1726445126;16/09/24;00:05:26;0.897;-0.145;0.263;-0.7086036801338196;0.7428121566772461;0.16371189057826996
01:00:0A:00:00:00:00;1726445127;16/09/24;00:05:27;0.917;0.357;-0.201;-0.5497786998748779;-1.1264355182647705;0.17837265133857727
01:00:0A:00:00:00:00;1726445128;16/09/24;00:05:28;0.885;0.649;-0.004;-3.825237989425659;-0.6426302194595337;-0.7171557545661926
01:00:0A:00:00:00:00;1726445129;16/09/24;00:05:29;0.973;0.215;0.31;-2.596177339553833;1.0958921909332275;-1.6505578756332397
01:00:0A:00:00:00:00;1726445130;16/09/24;00:05:30;0.948;0.398;0.003;-1.8790215253829956;-0.3543018400669098;-1.0531316995620728
01:00:0A:00:00:00:00;1726445131;16/09/24;00:05:31;1.042;-0.001;0.27;-1.55892813205719;-0.8124507665634155;0.23457224667072296
01:00:0A:00:00:00:00;1726445132;16/09/24;00:05:32;0.932;0.24;-0.186;-1.6090190410614014;-0.4031710624694824;0.01710422709584236
01:00:0A:00:00:00:00;1726445133;16/09/24;00:05:33;0.95;-0.29;-0.197;-1.6835445165634155;0.36529743671417236;1.0091493129730225
01:00:0A:00:00:00:00;1726445134;16/09/24;00:05:34;0.908;-0.451;0.045;-2.954144239425659;1.411098599433899;-0.0354301817715168
01:00:0A:00:00:00:00;1726445135;16/09/24;00:05:35;0.873;-0.355;0.187;-1.6664402484893799;0.8491026759147644;-0.7562511563301086
01:00:0A:00:00:00:00;1726445136;16/09/24;00:05:36;0.994;0.198;0.248;-1.1606439352035522;-0.27488934993743896;-0.5754350423812866
01:00:0A:00:00:00:00;1726445137;16/09/24;00:05:37;0.99;-0.025;-0.324;-1.783726453781128;0.0354301817715168;0.62796950340271
01:00:0A:00:00:00:00;1726445138;16/09/24;00:05:38;1.067;-0.039;-0.059;-2.0671679973602295;0.5436700582504272;0.1563815027475357
01:00:0A:00:00:00:00;1726445139;16/09/24;00:05:39;1.054;-0.153;-0.011;-2.1954495906829834;-0.1270599663257599;-0.5216788649559021
01:00:0A:00:00:00:00;1726445140;16/09/24;00:05:40;0.964;-0.034;0.157;-2.7672195434570312;-0.5791001915931702;-0.28099802136421204
01:00:0A:00:00:00:00;1726445141;16/09/24;00:05:41;0.944;-0.142;0.177;-3.2730159759521484;0.2834414541721344;-0.24923302233219147
01:00:0A:00:00:00:00;1726445152;16/09/24;00:05:52;0.962;0.35;0.148;-2.660928964614868;-0.4043927788734436;-0.6047565937042236
01:00:0A:00:00:00:00;1726445153;16/09/24;00:05:53;0.953;-0.175;-0.246;-2.0134117603302;-0.14782939851284027;-1.1985175609588623
01:00:0A:00:00:00:00;1726445154;16/09/24;00:05:54;0.923;-0.341;0.262;-1.8277087211608887;0.12461651116609573;0.6792821884155273
01:00:0A:00:00:00:00;1726445155;16/09/24;00:05:55;0.949;0.122;-0.225;-0.8857545852661133;-0.10995574295520782;-0.6609562039375305
01:00:0A:00:00:00:00;1726445156;16/09/24;00:05:56;0.909;0.442;0.176;-1.4269812107086182;-0.2223549485206604;0.22357667982578278
01:00:0A:00:00:00:00;1726445157;16/09/24;00:05:57;0.966;0.341;-0.064;-1.489289402961731;-0.29565879702568054;-0.20525071024894714
01:00:0A:00:00:00:00;1726445158;16/09/24;00:05:58;1.038;-0.26;0.134;-1.4049899578094482;-0.19792033731937408;0.0708603635430336
01:00:0A:00:00:00:00;1726445159;16/09/24;00:05:59;1.036;-0.035;0.054;-0.9944885969161987;0.3017674386501312;-0.12828169763088226
01:00:0A:00:00:00:00;1726445160;16/09/24;00:06:00;1.006;-0.059;0.072;-0.5546656250953674;-0.1576032191514969;-0.3384193480014801
01:00:0A:00:00:00:00;1726445161;16/09/24;00:06:01;1.001;0.115;0.08;-0.5729915499687195;0.11239919811487198;-0.2773328125476837
01:00:0A:00:00:00:00;1726445162;16/09/24;00:06:02;0.728;0.215;0.792;-0.8894197940826416;1.016479730606079;-0.9676105380058289
01:00:0A:00:00:00:00;1726445163;16/09/24;00:06:03;1.016;-0.079;0.21;-1.940108060836792;-0.2773328125476837;-0.3543018400669098
01:00:0A:00:00:00:00;1726445164;16/09/24;00:06:04;0.976;0.051;0.256;-1.5784757137298584;0.5436700582504272;-0.5216788649559021
01:00:0A:00:00:00:00;1726445165;16/09/24;00:06:05;0.989;0.12;0.25;-2.0256290435791016;-1.451415777206421;-1.290147304534912
01:00:0A:00:00:00:00;1726445166;16/09/24;00:06:06;0.861;-0.258;0.617;-1.814269781112671;0.27611109614372253;-0.4043927788734436
01:00:0A:00:00:00:00;1726445167;16/09/24;00:06:07;0.598;0.037;1.017;-0.46181410551071167;0.13561207056045532;-0.9566149115562439
01:00:0A:00:00:00:00;1726445168;16/09/24;00:06:08;0.835;0.242;0.465;0.0354301817715168;-1.8093827962875366;-0.48380526900291443
01:00:0A:00:00:00:00;1726445169;16/09/24;00:06:09;0.671;-0.678;-0.492;-0.05375614017248154;0.9456194043159485;2.1099283695220947
01:00:0A:00:00:00:00;1726445170;16/09/24;00:06:10;0.658;-0.137;0.698;0.9346237778663635;-0.0659734457731247;-2.3664920330047607
01:00:0A:00:00:00:00;1726445171;16/09/24;00:06:11;1.024;0.236;0.003;-2.5668556690216064;-1.3267992734909058;-0.4031710624694824
01:00:0A:00:00:00:00;1726445172;16/09/24;00:06:12;0.984;-0.16;0.194;-0.7171557545661926;0.10751228034496307;0.4960225820541382
01:00:0A:00:00:00:00;1726445173;16/09/24;00:06:13;0.847;0.173;0.563;-0.19547687470912933;0.39828410744667053;-1.205847978591919
01:00:0A:00:00:00:00;1726445174;16/09/24;00:06:14;1.023;0.208;-0.219;-0.4996877610683441;-0.7709119319915771;-0.1417207270860672
01:00:0A:00:00:00:00;1726445175;16/09/24;00:06:15;0.835;-0.091;0.654;-0.6243042349815369;1.108109474182129;0.4190535545349121
01:00:0A:00:00:00:00;1726445176;16/09/24;00:06:16;1.01;0.046;-0.081;-0.16004669666290283;-0.30054569244384766;-0.16249015927314758
01:00:0A:00:00:00:00;1726445177;16/09/24;00:06:17;1.0;0.036;0.202;-0.22602014243602753;-0.09162978082895279;0.06475171446800232
01:00:0A:00:00:00:00;1726445178;16/09/24;00:06:18;1.021;-0.179;0.01;0.46181410551071167;-0.4312708377838135;-0.9737191796302795
01:00:0A:00:00:00:00;1726445179;16/09/24;00:06:19;0.655;0.54;0.529;-0.03176499158143997;0.5546656250953674;-0.5241223573684692
01:00:0A:00:00:00:00;1726445180;16/09/24;00:06:20;0.935;-0.189;-0.643;-1.6872097253799438;-0.18448130786418915;2.4752259254455566
01:00:0A:00:00:00:00;1726445181;16/09/24;00:06:21;0.704;-0.945;-0.252;-1.5063936710357666;1.4025466442108154;0.3298672139644623
01:00:0A:00:00:00:00;1726445182;16/09/24;00:06:22;0.809;-0.067;0.571;-1.1068878173828125;-0.4960225820541382;-0.41294488310813904
01:00:0A:00:00:00:00;1726445183;16/09/24;00:06:23;0.851;-0.02;0.511;-1.5552629232406616;-1.0152579545974731;0.6621779203414917
01:00:0A:00:00:00:00;1726445184;16/09/24;00:06:24;0.944;0.169;-0.394;-0.4703662395477295;-1.3524556159973145;-0.4544837474822998
01:00:0A:00:00:00:00;1726445185;16/09/24;00:06:25;0.77;0.41;-0.477;-1.4318681955337524;-0.8527678847312927;0.8381071090698242
01:00:0A:00:00:00:00;1726445186;16/09/24;00:06:26;0.952;0.212;-0.262;-2.395813465118408;-0.23457224667072296;1.2730430364608765
01:00:0A:00:00:00:00;1726445187;16/09/24;00:06:27;0.889;0.485;0.08;-2.7122416496276855;-0.4948008358478546;-0.11484266817569733
01:00:0A:00:00:00:00;1726445188;16/09/24;00:06:28;0.984;0.082;0.115;-2.0195205211639404;-0.16249015927314758;-1.0946705341339111
01:00:0A:00:00:00:00;1726445189;16/09/24;00:06:29;0.973;-0.217;0.114;-1.508837103843689;-0.6352998614311218;0.26145032048225403
01:00:0A:00:00:00:00;1726445190;16/09/24;00:06:30;0.584;0.93;-0.124;0.862541675567627;-0.21502456068992615;0.2528982162475586
01:00:0A:00:00:00:00;1726445191;16/09/24;00:06:31;0.96;0.127;-0.262;-0.44348815083503723;0.5546656250953674;0.35185837745666504
01:00:0A:00:00:00:00;1726445192;16/09/24;00:06:32;0.93;-0.112;0.374;0.21013763546943665;0.8405505418777466;0.09407324343919754
01:00:0A:00:00:00:00;1726445193;16/09/24;00:06:33;1.032;0.244;0.163;0.8429940342903137;-0.8222246170043945;-0.31154125928878784
01:00:0A:00:00:00:00;1726445194;16/09/24;00:06:34;0.976;0.168;-0.171;0.006108652334660292;-0.10873401165008545;0.5314527750015259
01:00:0A:00:00:00:00;1726445195;16/09/24;00:06:35;0.953;-0.171;0.11;0.10262535512447357;0.28099802136421204;-0.23335053026676178
01:00:0A:00:00:00:00;1726445196;16/09/24;00:06:36;0.989;0.036;0.153;0.4593706727027893;-0.4996877610683441;-0.11362093687057495
01:00:0A:00:00:00:00;1726445197;16/09/24;00:06:37;1.008;-0.121;-0.133;0.1918116807937622;0.24923302233219147;-0.0073303827084600925
01:00:0A:00:00:00:00;1726445198;16/09/24;00:06:38;1.004;0.015;0.289;0.294437050819397;-0.02076941914856434;-0.3066543638706207
01:00:0A:00:00:00:00;1726445199;16/09/24;00:06:39;0.935;0.252;-0.112;-0.05864306166768074;-0.48258352279663086;-0.1722639948129654
01:00:0A:00:00:00:00;1726445200;16/09/24;00:06:40;0.864;-0.144;0.447;-0.38606682419776917;0.3152064383029938;-1.7421876192092896
01:00:0A:00:00:00:00;1726445201;16/09/24;00:06:41;0.876;0.388;0.161;-1.5454890727996826;-1.1117748022079468;-0.8258897662162781
01:00:0A:00:00:00:00;1726445202;16/09/24;00:06:42;0.82;0.202;0.392;-2.174680233001709;-0.3323107063770294;-0.161268413066864
01:00:0A:00:00:00:00;1726445203;16/09/24;00:06:43;0.879;0.298;-0.165;-1.9987510442733765;-0.7721336483955383;-0.7880162000656128
01:00:0A:00:00:00:00;1726445204;16/09/24;00:06:44;0.97;0.172;0.102;-2.6560420989990234;-0.6377432942390442;-0.028099799528717995
01:00:0A:00:00:00:00;1726445205;16/09/24;00:06:45;0.878;-0.072;0.357;-1.810604453086853;1.0042624473571777;0.3897320330142975
01:00:0A:00:00:00:00;1726445206;16/09/24;00:06:46;0.929;0.355;0.235;-0.9077457189559937;-0.998153805732727;-1.3585643768310547
01:00:0A:00:00:00:00;1726445207;16/09/24;00:06:47;0.909;0.494;0.229;-1.891238808631897;-0.6927211880683899;-0.6291911602020264
01:00:0A:00:00:00:00;1726445208;16/09/24;00:06:48;0.948;0.435;0.151;-2.0366246700286865;-0.4300491213798523;-0.7354817390441895
01:00:0A:00:00:00:00;1726445209;16/09/24;00:06:49;0.715;-0.102;0.973;-2.085493803024292;1.7800612449645996;-0.0354301817715168
01:00:0A:00:00:00:00;1726445210;16/09/24;00:06:50;0.917;0.588;0.248;-1.2669343948364258;-0.7611380815505981;-0.8405505418777466
01:00:0A:00:00:00:00;1726445211;16/09/24;00:06:51;0.932;0.373;-0.306;-2.7476718425750732;-0.11850785464048386;0.7599163055419922
01:00:0A:00:00:00:00;1726445212;16/09/24;00:06:52;0.999;-0.182;-0.281;-2.78676700592041;-0.25534167885780334;0.7672467231750488
01:00:0A:00:00:00:00;1726445213;16/09/24;00:06:53;0.86;0.29;-0.434;-2.7488934993743896;-0.5510004162788391;1.1899654865264893
01:00:0A:00:00:00:00;1726445214;16/09/24;00:06:54;0.898;0.444;0.191;-2.2076668739318848;-0.8124507665634155;0.2981022298336029
01:00:0A:00:00:00:00;1726445215;16/09/24;00:06:55;0.951;0.182;-0.216;-2.233323335647583;-0.4813618063926697;-0.06352998316287994
01:00:0A:00:00:00:00;1726445216;16/09/24;00:06:56;0.901;-0.35;0.197;-1.8313740491867065;-0.13072516024112701;0.14538592100143433
01:00:0A:00:00:00:00;1726445217;16/09/24;00:06:57;0.926;0.17;0.287;-1.0311404466629028;0.8344419002532959;-0.5387831330299377
01:00:0A:00:00:00:00;1726445218;16/09/24;00:06:58;0.88;-0.214;0.488;-0.3689626157283783;-0.6939429044723511;-0.31642818450927734
01:00:0A:00:00:00:00;1726445219;16/09/24;00:06:59;0.995;0.139;-0.129;-0.7745770812034607;-0.49724429845809937;0.4092797040939331
01:00:0A:00:00:00:00;1726445220;16/09/24;00:07:00;1.003;0.246;0.133;-1.1325441598892212;-0.1869247555732727;0.3494149148464203
01:00:0A:00:00:00:00;1726445221;16/09/24;00:07:01;1.005;0.171;-0.05;-1.205847978591919;0.3530800938606262;-0.16493360698223114
01:00:0A:00:00:00:00;1726445222;16/09/24;00:07:02;0.984;-0.211;0.201;-0.9370672702789307;-0.20036379992961884;0.17104226350784302
01:00:0A:00:00:00:00;1726445223;16/09/24;00:07:03;0.911;-0.22;-0.205;-0.970054030418396;0.36529743671417236;0.9712756872177124
01:00:0A:00:00:00:00;1726445224;16/09/24;00:07:04;0.953;-0.213;-0.378;-1.0250318050384521;0.9553932547569275;0.13927726447582245
01:00:0A:00:00:00:00;1726445225;16/09/24;00:07:05;0.945;-0.425;-0.126;-0.6157521605491638;0.31642818450927734;0.20647244155406952
01:00:0A:00:00:00:00;1726445226;16/09/24;00:07:06;0.869;-0.444;0.341;0.028099799528717995;0.6084217429161072;-0.4911356568336487
01:00:0A:00:00:00:00;1726445227;16/09/24;00:07:07;0.977;0.26;0.115;-0.09773843735456467;-0.645073652267456;-0.17104226350784302
01:00:0A:00:00:00:00;1726445228;16/09/24;00:07:08;1.011;0.265;0.048;-0.37262779474258423;-0.21013763546943665;0.21991148591041565
01:00:0A:00:00:00:00;1726445229;16/09/24;00:07:09;0.981;0.31;0.03;-0.4703662395477295;0.2883284091949463;0.11239919811487198
01:00:0A:00:00:00:00;1726445230;16/09/24;00:07:10;0.975;-0.19;-0.016;-0.46181410551071167;-0.294437050819397;0.322536826133728
01:00:0A:00:00:00:00;1726445231;16/09/24;00:07:11;0.901;-0.522;0.2;-0.313984751701355;0.9443976283073425;-0.6719517707824707
01:00:0A:00:00:00:00;1726445232;16/09/24;00:07:12;0.905;0.313;0.302;-0.3176499307155609;0.1160643920302391;-0.006108652334660292
01:00:0A:00:00:00:00;1726445233;16/09/24;00:07:13;0.519;-0.868;0.54;-2.7965409755706787;0.5571090579032898;-0.8136724829673767
01:00:0A:00:00:00:00;1726445234;16/09/24;00:07:14;1.025;-0.098;0.223;-0.7586946487426758;0.1966986060142517;-1.253495454788208
01:00:0A:00:00:00:00;1726445235;16/09/24;00:07:15;0.789;0.4;0.579;-1.1508700847625732;-1.0604619979858398;0.19303341209888458
01:00:0A:00:00:00:00;1726445236;16/09/24;00:07:16;0.924;0.374;-0.174;-1.556484580039978;-0.1417207270860672;0.07819075137376785
01:00:0A:00:00:00:00;1726445237;16/09/24;00:07:17;1.013;-0.299;0.067;-1.6029103994369507;-0.5595525503158569;0.18570303916931152
01:00:0A:00:00:00:00;1726445238;16/09/24;00:07:18;1.004;0.137;-0.194;-1.49906325340271;0.4092797040939331;-0.2076941877603531
01:00:0A:00:00:00:00;1726445239;16/09/24;00:07:19;0.928;-0.274;0.362;-1.193630576133728;-0.45204028487205505;-0.2541199326515198
01:00:0A:00:00:00:00;1726445240;16/09/24;00:07:20;1.045;0.093;-0.04;-1.056796908378601;0.4105014204978943;0.06719517707824707
01:00:0A:00:00:00:00;1726445241;16/09/24;00:07:21;1.024;-0.04;0.254;-0.6108652353286743;-1.3561208248138428;-0.7770205736160278
01:00:0A:00:00:00:00;1726445242;16/09/24;00:07:22;0.839;0.568;-0.159;-1.4489723443984985;0.01710422709584236;0.44715335965156555
01:00:0A:00:00:00:00;1726445243;16/09/24;00:07:23;1.028;-0.145;0.071;-1.6945401430130005;0.35063666105270386;0.1417207270860672
01:00:0A:00:00:00:00;1726445244;16/09/24;00:07:24;0.92;-0.241;0.449;-0.9957103133201599;0.11484266817569733;-0.4715879559516907
01:00:0A:00:00:00:00;1726445245;16/09/24;00:07:25;1.009;0.009;0.193;-0.5167919993400574;-0.5265658497810364;-0.24678954482078552
01:00:0A:00:00:00:00;1726445246;16/09/24;00:07:26;0.999;-0.069;-0.134;-0.836885392665863;-0.0012217304902151227;0.1576032191514969
01:00:0A:00:00:00:00;1726445247;16/09/24;00:07:27;1.008;-0.04;0.127;-0.8454375267028809;0.10506881773471832;0.0036651913542300463
01:00:0A:00:00:00:00;1726445248;16/09/24;00:07:28;0.981;0.15;0.227;-0.6597344279289246;-0.21624629199504852;-0.4092797040939331
01:00:0A:00:00:00:00;1726445249;16/09/24;00:07:29;0.988;0.167;0.284;-1.0018190145492554;-0.1062905490398407;0.09407324343919754
01:00:0A:00:00:00:00;1726445250;16/09/24;00:07:30;1.03;-0.069;0.04;-0.9724974632263184;-0.045204028487205505;0.12095131725072861
01:00:0A:00:00:00:00;1726445251;16/09/24;00:07:31;1.016;0.049;0.114;-0.919963002204895;0.11728612333536148;-0.12950342893600464
01:00:0A:00:00:00:00;1726445252;16/09/24;00:07:32;0.983;-0.049;0.204;-0.35063666105270386;0.09651670604944229;-0.03787364438176155
01:00:0A:00:00:00:00;1726445253;16/09/24;00:07:33;0.984;0.096;0.171;-0.19547687470912933;-0.08552113175392151;-0.294437050819397
01:00:0A:00:00:00:00;1726445254;16/09/24;00:07:34;1.026;0.139;0.147;-0.48747044801712036;-0.10018189996480942;0.1869247555732727
01:00:0A:00:00:00:00;1726445255;16/09/24;00:07:35;1.057;-0.081;0.092;-0.3738495111465454;0.07941248267889023;-0.08796459436416626
01:00:0A:00:00:00:00;1726445256;16/09/24;00:07:36;0.998;0.125;0.276;-0.2675589621067047;0.1673770695924759;-0.2822197377681732
01:00:0A:00:00:00:00;1726445257;16/09/24;00:07:37;1.023;-0.076;0.028;-0.2687807083129883;-0.3017674386501312;0.11239919811487198
01:00:0A:00:00:00:00;1726445258;16/09/24;00:07:38;0.993;-0.041;0.129;-0.18081611394882202;0.20891590416431427;-0.13561207056045532
01:00:0A:00:00:00:00;1726445259;16/09/24;00:07:39;0.987;0.041;0.228;-0.09285151958465576;-0.1673770695924759;-0.01710422709584236
01:00:0A:00:00:00:00;1726445260;16/09/24;00:07:40;1.012;-0.022;0.1;-0.11972958594560623;-0.1466076523065567;0.08429940044879913
01:00:0A:00:00:00:00;1726445261;16/09/24;00:07:41;0.985;0.016;0.148;-0.13439035415649414;0.18570303916931152;-0.07819075137376785
01:00:0A:00:00:00:00;1726445262;16/09/24;00:07:42;0.955;0.015;0.145;-0.15027284622192383;-0.24434609711170197;0.11850785464048386
01:00:0A:00:00:00:00;1726445263;16/09/24;00:07:43;0.999;0.009;0.122;-0.2577851116657257;0.08429940044879913;0.00855211354792118
01:00:0A:00:00:00:00;1726445264;16/09/24;00:07:44;0.989;0.011;0.173;-0.2370157092809677;-0.03176499158143997;-0.08185594528913498
01:00:0A:00:00:00:00;1726445265;16/09/24;00:07:45;1.01;0.08;0.182;-0.26511549949645996;-0.11362093687057495;-0.042760565876960754
01:00:0A:00:00:00:00;1726445266;16/09/24;00:07:46;1.023;0.045;0.137;-0.3384193480014801;0.009773843921720982;-0.00855211354792118
01:00:0A:00:00:00:00;1726445267;16/09/24;00:07:47;1.039;-0.019;0.175;-0.2528982162475586;0.05009094998240471;-0.08307767659425735
01:00:0A:00:00:00:00;1726445268;16/09/24;00:07:48;1.049;0.056;0.167;-0.19914205372333527;0.018325956538319588;-0.10751228034496307
01:00:0A:00:00:00:00;1726445269;16/09/24;00:07:49;1.029;-0.002;0.09;-0.24556782841682434;0.00855211354792118;-0.0036651913542300463
01:00:0A:00:00:00:00;1726445270;16/09/24;00:07:50;0.977;0.006;0.125;-0.22113320231437683;0.1319468915462494;-0.06108652427792549
01:00:0A:00:00:00:00;1726445271;16/09/24;00:07:51;1.016;-0.015;0.203;-0.1270599663257599;-0.030543262138962746;-0.08552113175392151
01:00:0A:00:00:00:00;1726445272;16/09/24;00:07:52;1.001;0.042;0.181;-0.07941248267889023;-0.080634206533432;-0.05009094998240471
01:00:0A:00:00:00:00;1726445273;16/09/24;00:07:53;1.014;0.036;0.124;-0.14294245839118958;-0.024434609338641167;0.03420845419168472
01:00:0A:00:00:00:00;1726445274;16/09/24;00:07:54;0.998;0.068;0.198;-0.13561207056045532;0.0073303827084600925;-0.04764748737215996
01:00:0A:00:00:00:00;1726445275;16/09/24;00:07:55;0.99;0.043;0.245;-0.2015855312347412;0.08796459436416626;0.02687807008624077
01:00:0A:00:00:00:00;1726445276;16/09/24;00:07:56;0.986;0.006;0.276;-0.10873401165008545;0.05619959905743599;0.039095375686883926
01:00:0A:00:00:00:00;1726445277;16/09/24;00:07:57;0.998;0.048;0.214;0.0036651913542300463;-0.0354301817715168;-0.07452555745840073
01:00:0A:00:00:00:00;1726445278;16/09/24;00:07:58;0.998;0.052;0.204;0.004886921960860491;0.028099799528717995;0.02932153083384037
01:00:0A:00:00:00:00;1726445279;16/09/24;00:07:59;1.006;0.001;0.155;0.028099799528717995;-0.013439035043120384;-0.0036651913542300463
01:00:0A:00:00:00:00;1726445280;16/09/24;00:08:00;0.999;0.021;0.207;-0.05497787147760391;0.045204028487205505;0.02932153083384037
01:00:0A:00:00:00:00;1726445281;16/09/24;00:08:01;0.999;0.036;0.207;0.0036651913542300463;-0.00855211354792118;-0.04642575979232788
01:00:0A:00:00:00:00;1726445282;16/09/24;00:08:02;0.998;0.106;0.2;0.05375614017248154;-0.02932153083384037;-0.03176499158143997
01:00:0A:00:00:00:00;1726445283;16/09/24;00:08:03;1.0;0.042;0.168;-0.013439035043120384;-0.1319468915462494;0.1368338167667389
01:00:0A:00:00:00:00;1726445284;16/09/24;00:08:04;1.005;0.0;0.161;0.07330382615327835;-0.04153883829712868;-0.010995574295520782
01:00:0A:00:00:00:00;1726445285;16/09/24;00:08:05;1.007;0.008;0.159;-0.028099799528717995;-0.030543262138962746;-0.0073303827084600925
01:00:0A:00:00:00:00;1726445286;16/09/24;00:08:06;1.003;0.05;0.18;0.02687807008624077;0.021991148591041565;-0.07330382615327835
01:00:0A:00:00:00:00;1726445287;16/09/24;00:08:07;1.002;0.066;0.165;0.0012217304902151227;0.013439035043120384;0.01710422709584236
01:00:0A:00:00:00:00;1726445288;16/09/24;00:08:08;1.003;0.015;0.185;0.09040805697441101;0.009773843921720982;-0.040317103266716
01:00:0A:00:00:00:00;1726445289;16/09/24;00:08:09;1.006;0.04;0.161;0.11362093687057495;-0.05497787147760391;-0.03787364438176155
01:00:0A:00:00:00:00;1726445290;16/09/24;00:08:10;1.007;0.027;0.152;0.051312677562236786;0.0354301817715168;0.006108652334660292
01:00:0A:00:00:00:00;1726445291;16/09/24;00:08:11;1.007;0.022;0.148;0.03787364438176155;-0.05009094998240471;0.006108652334660292
01:00:0A:00:00:00:00;1726445292;16/09/24;00:08:12;1.007;0.021;0.142;-0.0024434609804302454;0.03176499158143997;0.028099799528717995
01:00:0A:00:00:00:00;1726445293;16/09/24;00:08:13;1.004;-0.013;0.189;-0.028099799528717995;0.03298672288656235;0.015882495790719986
01:00:0A:00:00:00:00;1726445294;16/09/24;00:08:14;1.002;-0.007;0.194;-0.06230825558304787;0.019547687843441963;0.02076941914856434
01:00:0A:00:00:00:00;1726445295;16/09/24;00:08:15;0.994;-0.014;0.231;-0.06108652427792549;-0.05864306166768074;0.02076941914856434
01:00:0A:00:00:00:00;1726445296;16/09/24;00:08:16;1.005;0.026;0.179;-0.02687807008624077;-0.04886921867728233;-0.07696902006864548
01:00:0A:00:00:00:00;1726445297;16/09/24;00:08:17;1.005;0.05;0.156;-0.09773843735456467;-0.006108652334660292;0.021991148591041565
01:00:0A:00:00:00:00;1726445298;16/09/24;00:08:18;1.008;0.005;0.157;-0.10384709388017654;0.00855211354792118;0.02076941914856434
01:00:0A:00:00:00:00;1726445299;16/09/24;00:08:19;1.003;0.005;0.178;-0.1111774742603302;0.030543262138962746;-0.012217304669320583
01:00:0A:00:00:00:00;1726445300;16/09/24;00:08:20;1.002;-0.004;0.195;-0.07819075137376785;-0.019547687843441963;-0.03420845419168472
01:00:0A:00:00:00:00;1726445301;16/09/24;00:08:21;0.992;0.04;0.21;-0.00855211354792118;-0.028099799528717995;-0.02687807008624077
01:00:0A:00:00:00:00;1726445302;16/09/24;00:08:22;1.003;0.006;0.18;-0.00855211354792118;-0.08185594528913498;0.04398229718208313
01:00:0A:00:00:00:00;1726445303;16/09/24;00:08:23;1.007;-0.029;0.163;-0.009773843921720982;-0.03420845419168472;-0.014660765416920185
01:00:0A:00:00:00:00;1726445304;16/09/24;00:08:24;1.01;0.006;0.147;-0.06230825558304787;-0.04764748737215996;0.01710422709584236
01:00:0A:00:00:00:00;1726445305;16/09/24;00:08:25;1.012;0.024;0.123;-0.09040805697441101;-0.028099799528717995;0.05253440886735916
01:00:0A:00:00:00:00;1726445306;16/09/24;00:08:26;1.008;0.027;0.148;-0.07941248267889023;-0.01710422709584236;0.02932153083384037
01:00:0A:00:00:00:00;1726445307;16/09/24;00:08:27;1.012;-0.014;0.126;-0.17104226350784302;-0.030543262138962746;0.015882495790719986
01:00:0A:00:00:00:00;1726445308;16/09/24;00:08:28;1.012;0.0;0.134;-0.19914205372333527;0.0073303827084600925;-0.0708603635430336
01:00:0A:00:00:00:00;1726445309;16/09/24;00:08:29;1.009;0.013;0.139;-0.2590068578720093;-0.03176499158143997;-0.021991148591041565
01:00:0A:00:00:00:00;1726445310;16/09/24;00:08:30;1.01;0.01;0.139;-0.21502456068992615;-0.004886921960860491;-0.05253440886735916
01:00:0A:00:00:00:00;1726445311;16/09/24;00:08:31;1.003;0.056;0.154;-0.26145032048225403;-0.02687807008624077;-0.0036651913542300463
01:00:0A:00:00:00:00;1726445312;16/09/24;00:08:32;1.01;0.036;0.14;-0.313984751701355;-0.02321287989616394;-0.04398229718208313
01:00:0A:00:00:00:00;1726445313;16/09/24;00:08:33;1.004;0.033;0.164;-0.3481931686401367;0.03176499158143997;-0.03176499158143997
01:00:0A:00:00:00:00;1726445314;16/09/24;00:08:34;1.004;0.017;0.163;-0.3188716471195221;-0.02687807008624077;-0.04153883829712868
01:00:0A:00:00:00:00;1726445315;16/09/24;00:08:35;1.009;0.017;0.134;-0.29565879702568054;-0.04764748737215996;-0.015882495790719986
01:00:0A:00:00:00:00;1726445316;16/09/24;00:08:36;1.008;0.011;0.142;-0.31031954288482666;0.0;-0.036651913076639175
01:00:0A:00:00:00:00;1726445317;16/09/24;00:08:37;1.003;0.029;0.185;-0.37262779474258423;-0.004886921960860491;-0.07452555745840073
01:00:0A:00:00:00:00;1726445318;16/09/24;00:08:38;1.007;0.025;0.157;-0.4251621961593628;-0.02321287989616394;-0.021991148591041565
01:00:0A:00:00:00:00;1726445319;16/09/24;00:08:39;1.003;0.002;0.16;-0.3628539443016052;-0.051312677562236786;-0.040317103266716
01:00:0A:00:00:00:00;1726445320;16/09/24;00:08:40;0.995;0.033;0.128;-0.33108896017074585;-0.05497787147760391;-0.05253440886735916
01:00:0A:00:00:00:00;1726445321;16/09/24;00:08:41;1.01;0.029;0.147;-0.36651912331581116;-0.03298672288656235;0.021991148591041565
01:00:0A:00:00:00:00;1726445322;16/09/24;00:08:42;1.027;0.0;0.159;-0.2919935882091522;-0.05375614017248154;-0.08185594528913498
01:00:0A:00:00:00:00;1726445323;16/09/24;00:08:43;1.033;0.053;0.148;-0.3176499307155609;-0.00855211354792118;-0.05253440886735916
01:00:0A:00:00:00:00;1726445324;16/09/24;00:08:44;1.014;0.0;0.16;-0.3286454975605011;-0.004886921960860491;-0.0036651913542300463
01:00:0A:00:00:00:00;1726445325;16/09/24;00:08:45;1.006;0.014;0.14;-0.2590068578720093;-0.010995574295520782;-0.09162978082895279
01:00:0A:00:00:00:00;1726445326;16/09/24;00:08:46;0.999;0.027;0.151;-0.28466320037841797;-0.012217304669320583;-0.019547687843441963
01:00:0A:00:00:00:00;1726445327;16/09/24;00:08:47;1.003;0.0;0.143;-0.2675589621067047;-0.039095375686883926;-0.018325956538319588
01:00:0A:00:00:00:00;1726445328;16/09/24;00:08:48;0.992;0.013;0.136;-0.2528982162475586;0.0036651913542300463;-0.03176499158143997
01:00:0A:00:00:00:00;1726445329;16/09/24;00:08:49;0.983;0.02;0.14;-0.2480112910270691;-0.045204028487205505;-0.004886921960860491
01:00:0A:00:00:00:00;1726445330;16/09/24;00:08:50;1.001;0.019;0.139;-0.2321287840604782;-0.07330382615327835;-0.009773843921720982
01:00:0A:00:00:00:00;1726445331;16/09/24;00:08:51;1.018;0.016;0.144;-0.22846359014511108;-0.025656338781118393;-0.015882495790719986
01:00:0A:00:00:00:00;1726445332;16/09/24;00:08:52;1.03;0.023;0.162;-0.21991148591041565;-0.0012217304902151227;-0.02076941914856434
01:00:0A:00:00:00:00;1726445333;16/09/24;00:08:53;1.025;0.016;0.146;-0.19914205372333527;-0.02687807008624077;-0.02076941914856434
01:00:0A:00:00:00:00;1726445334;16/09/24;00:08:54;1.018;0.032;0.14;-0.20525071024894714;0.010995574295520782;-0.03298672288656235
01:00:0A:00:00:00:00;1726445335;16/09/24;00:08:55;1.009;0.008;0.155;-0.19792033731937408;0.012217304669320583;-0.02687807008624077
01:00:0A:00:00:00:00;1726445336;16/09/24;00:08:56;1.006;0.015;0.129;-0.17470745742321014;-0.025656338781118393;-0.045204028487205505
01:00:0A:00:00:00:00;1726445337;16/09/24;00:08:57;0.986;0.011;0.132;-0.2028072476387024;-0.006108652334660292;0.0012217304902151227
01:00:0A:00:00:00:00;1726445338;16/09/24;00:08:58;0.977;0.013;0.145;-0.1820378452539444;-0.04153883829712868;-0.02076941914856434
01:00:0A:00:00:00:00;1726445339;16/09/24;00:08:59;0.997;0.023;0.143;-0.18936821818351746;-0.05864306166768074;0.0012217304902151227
01:00:0A:00:00:00:00;1726445340;16/09/24;00:09:00;1.01;0.015;0.144;-0.1918116807937622;-0.03420845419168472;-0.012217304669320583
01:00:0A:00:00:00:00;1726445341;16/09/24;00:09:01;1.021;0.029;0.161;-0.18814648687839508;-0.02932153083384037;-0.021991148591041565
01:00:0A:00:00:00:00;1726445342;16/09/24;00:09:02;1.024;0.02;0.152;-0.19058994948863983;-0.01710422709584236;-0.021991148591041565
01:00:0A:00:00:00:00;1726445343;16/09/24;00:09:03;1.018;0.026;0.162;-0.19058994948863983;-0.0024434609804302454;-0.03176499158143997
01:00:0A:00:00:00:00;1726445344;16/09/24;00:09:04;1.015;0.024;0.155;-0.19914205372333527;0.006108652334660292;-0.019547687843441963
01:00:0A:00:00:00:00;1726445345;16/09/24;00:09:05;1.011;0.021;0.149;-0.18325956165790558;0.006108652334660292;-0.03787364438176155
01:00:0A:00:00:00:00;1726445346;16/09/24;00:09:06;1.001;0.021;0.143;-0.18081611394882202;-0.0012217304902151227;-0.03176499158143997
01:00:0A:00:00:00:00;1726445347;16/09/24;00:09:07;0.997;0.005;0.139;-0.17470745742321014;-0.021991148591041565;-0.012217304669320583
01:00:0A:00:00:00:00;1726445348;16/09/24;00:09:08;0.996;0.016;0.149;-0.16493360698223114;-0.02932153083384037;-0.004886921960860491
01:00:0A:00:00:00:00;1726445349;16/09/24;00:09:09;1.01;0.022;0.152;-0.15515977144241333;-0.05009094998240471;-0.004886921960860491
01:00:0A:00:00:00:00;1726445350;16/09/24;00:09:10;1.015;0.023;0.153;-0.15515977144241333;-0.00855211354792118;-0.010995574295520782
01:00:0A:00:00:00:00;1726445351;16/09/24;00:09:11;1.018;0.013;0.155;-0.1417207270860672;-0.006108652334660292;-0.02076941914856434
01:00:0A:00:00:00:00;1726445352;16/09/24;00:09:12;1.016;0.026;0.152;-0.14049901068210602;-0.0036651913542300463;-0.012217304669320583
01:00:0A:00:00:00:00;1726445353;16/09/24;00:09:13;1.015;0.016;0.148;-0.14538592100143433;0.0036651913542300463;-0.0036651913542300463
01:00:0A:00:00:00:00;1726445354;16/09/24;00:09:14;1.012;0.025;0.149;-0.13072516024112701;0.004886921960860491;-0.025656338781118393
01:00:0A:00:00:00:00;1726445355;16/09/24;00:09:15;1.005;0.02;0.144;-0.1417207270860672;-0.0012217304902151227;-0.0024434609804302454
01:00:0A:00:00:00:00;1726445356;16/09/24;00:09:16;1.004;0.02;0.14;-0.13561207056045532;-0.012217304669320583;-0.012217304669320583
01:00:0A:00:00:00:00;1726445357;16/09/24;00:09:17;1.01;0.023;0.144;-0.1368338167667389;-0.015882495790719986;-0.004886921960860491
01:00:0A:00:00:00:00;1726445358;16/09/24;00:09:18;1.013;0.021;0.151;-0.13072516024112701;-0.010995574295520782;-0.024434609338641167
01:00:0A:00:00:00:00;1726445359;16/09/24;00:09:19;1.01;0.021;0.143;-0.12828169763088226;-0.01710422709584236;-0.02932153083384037
01:00:0A:00:00:00:00;1726445360;16/09/24;00:09:20;1.007;0.015;0.144;-0.13927726447582245;-0.0073303827084600925;-0.00855211354792118
01:00:0A:00:00:00:00;1726445361;16/09/24;00:09:21;1.007;0.021;0.146;-0.12828169763088226;-0.025656338781118393;-0.024434609338641167
01:00:0A:00:00:00:00;1726445362;16/09/24;00:09:22;1.008;0.024;0.143;-0.14416420459747314;-0.013439035043120384;-0.00855211354792118
01:00:0A:00:00:00:00;1726445363;16/09/24;00:09:23;1.006;0.021;0.146;-0.1417207270860672;-0.01710422709584236;-0.025656338781118393
01:00:0A:00:00:00:00;1726445364;16/09/24;00:09:24;1.001;0.024;0.148;-0.1466076523065567;-0.021991148591041565;-0.021991148591041565
01:00:0A:00:00:00:00;1726445365;16/09/24;00:09:25;1.003;0.023;0.149;-0.15393804013729095;-0.021991148591041565;-0.013439035043120384
01:00:0A:00:00:00:00;1726445366;16/09/24;00:09:26;1.016;0.025;0.151;-0.1576032191514969;-0.006108652334660292;-0.014660765416920185
01:00:0A:00:00:00:00;1726445367;16/09/24;00:09:27;1.016;0.025;0.152;-0.15027284622192383;-0.006108652334660292;-0.02932153083384037
01:00:0A:00:00:00:00;1726445368;16/09/24;00:09:28;1.012;0.024;0.149;-0.14538592100143433;-0.0024434609804302454;-0.03787364438176155
01:00:0A:00:00:00:00;1726445369;16/09/24;00:09:29;1.004;0.011;0.147;-0.14782939851284027;-0.012217304669320583;-0.015882495790719986
01:00:0A:00:00:00:00;1726445370;16/09/24;00:09:30;1.004;0.015;0.144;-0.14049901068210602;-0.02687807008624077;-0.009773843921720982
01:00:0A:00:00:00:00;1726445371;16/09/24;00:09:31;1.01;0.023;0.148;-0.14049901068210602;-0.02076941914856434;-0.0036651913542300463
01:00:0A:00:00:00:00;1726445372;16/09/24;00:09:32;1.008;0.022;0.146;-0.1319468915462494;-0.01710422709584236;-0.02321287989616394
01:00:0A:00:00:00:00;1726445373;16/09/24;00:09:33;1.004;0.015;0.146;-0.13072516024112701;-0.006108652334660292;-0.019547687843441963
01:00:0A:00:00:00:00;1726445374;16/09/24;00:09:34;1.003;0.015;0.144;-0.11972958594560623;-0.03420845419168472;-0.01710422709584236
01:00:0A:00:00:00:00;1726445375;16/09/24;00:09:35;1.012;0.018;0.145;-0.12950342893600464;-0.030543262138962746;0.009773843921720982
01:00:0A:00:00:00:00;1726445376;16/09/24;00:09:36;1.015;0.017;0.152;-0.1160643920302391;-0.0036651913542300463;-0.015882495790719986
01:00:0A:00:00:00:00;1726445377;16/09/24;00:09:37;1.009;0.022;0.145;-0.10995574295520782;-0.0073303827084600925;-0.021991148591041565
01:00:0A:00:00:00:00;1726445378;16/09/24;00:09:38;1.005;0.014;0.141;-0.11850785464048386;-0.010995574295520782;0.0012217304902151227
01:00:0A:00:00:00:00;1726445379;16/09/24;00:09:39;1.011;0.016;0.146;-0.10018189996480942;-0.03420845419168472;-0.019547687843441963
01:00:0A:00:00:00:00;1726445380;16/09/24;00:09:40;1.021;0.028;0.147;-0.10751228034496307;-0.015882495790719986;-0.010995574295520782
01:00:0A:00:00:00:00;1726445381;16/09/24;00:09:41;1.022;0.021;0.106;-0.1514945775270462;0.006108652334660292;-0.025656338781118393
01:00:0A:00:00:00:00;1726445382;16/09/24;00:09:42;1.007;0.022;0.15;-0.18814648687839508;0.04886921867728233;-0.018325956538319588
01:00:0A:00:00:00:00;1726445383;16/09/24;00:09:43;1.001;0.01;0.152;-0.1563815027475357;-0.05253440886735916;-0.02321287989616394
01:00:0A:00:00:00:00;1726445384;16/09/24;00:09:44;1.006;0.029;0.122;-0.16493360698223114;-0.036651913076639175;-0.02687807008624077
01:00:0A:00:00:00:00;1726445385;16/09/24;00:09:45;1.009;0.022;0.152;-0.2028072476387024;0.013439035043120384;0.004886921960860491
01:00:0A:00:00:00:00;1726445386;16/09/24;00:09:46;1.007;0.012;0.155;-0.161268413066864;-0.028099799528717995;-0.02932153083384037
01:00:0A:00:00:00:00;1726445387;16/09/24;00:09:47;1.002;0.025;0.137;-0.1563815027475357;-0.03298672288656235;-0.02687807008624077
01:00:0A:00:00:00:00;1726445388;16/09/24;00:09:48;1.005;0.106;0.134;-0.2125810980796814;-0.02321287989616394;-0.1258382350206375
01:00:0A:00:00:00:00;1726445389;16/09/24;00:09:49;0.996;0.127;0.19;-0.4398229718208313;0.019547687843441963;-0.07696902006864548
01:00:0A:00:00:00:00;1726445390;16/09/24;00:09:50;1.001;0.081;0.231;-0.5583308339118958;-0.042760565876960754;-0.06719517707824707
01:00:0A:00:00:00:00;1726445391;16/09/24;00:09:51;1.0;0.004;0.204;-0.5729915499687195;-0.05497787147760391;-0.021991148591041565
01:00:0A:00:00:00:00;1726445392;16/09/24;00:09:52;1.007;-0.019;0.178;-0.4593706727027893;-0.006108652334660292;-0.09407324343919754
01:00:0A:00:00:00:00;1726445393;16/09/24;00:09:53;1.001;0.019;0.196;-0.3701843321323395;0.0;-0.09162978082895279
01:00:0A:00:00:00:00;1726445394;16/09/24;00:09:54;0.998;0.0;0.218;-0.2626720666885376;-0.009773843921720982;-0.01710422709584236
01:00:0A:00:00:00:00;1726445395;16/09/24;00:09:55;1.001;-0.016;0.195;-0.0354301817715168;-0.045204028487205505;-0.02076941914856434
01:00:0A:00:00:00:00;1726445396;16/09/24;00:09:56;1.007;-0.006;0.155;0.019547687843441963;-0.04764748737215996;0.0073303827084600925
01:00:0A:00:00:00:00;1726445397;16/09/24;00:09:57;1.009;0.006;0.146;0.019547687843441963;-0.004886921960860491;-0.030543262138962746
01:00:0A:00:00:00:00;1726445398;16/09/24;00:09:58;1.006;0.018;0.162;-0.030543262138962746;0.0024434609804302454;0.015882495790719986
01:00:0A:00:00:00:00;1726445399;16/09/24;00:09:59;1.006;-0.008;0.169;0.028099799528717995;-0.0024434609804302454;0.021991148591041565
01:00:0A:00:00:00:00;1726445400;16/09/24;00:10:00;1.002;-0.006;0.187;0.07330382615327835;0.010995574295520782;0.006108652334660292
01:00:0A:00:00:00:00;1726445401;16/09/24;00:10:01;1.0;0.006;0.203;0.1062905490398407;-0.013439035043120384;0.009773843921720982
01:00:0A:00:00:00:00;1726445402;16/09/24;00:10:02;1.001;0.042;0.19;0.1576032191514969;-0.030543262138962746;0.0012217304902151227
01:00:0A:00:00:00:00;1726445403;16/09/24;00:10:03;1.005;0.035;0.156;0.12461651116609573;-0.025656338781118393;0.04764748737215996
01:00:0A:00:00:00:00;1726445404;16/09/24;00:10:04;1.008;0.0;0.146;0.09651670604944229;0.006108652334660292;0.025656338781118393
01:00:0A:00:00:00:00;1726445405;16/09/24;00:10:05;1.004;0.003;0.18;0.10018189996480942;0.03420845419168472;-0.0036651913542300463
01:00:0A:00:00:00:00;1726445406;16/09/24;00:10:06;0.997;0.034;0.213;0.12828169763088226;-0.02076941914856434;-0.0024434609804302454
01:00:0A:00:00:00:00;1726445407;16/09/24;00:10:07;0.998;0.048;0.205;0.15271630883216858;-0.0073303827084600925;0.019547687843441963
01:00:0A:00:00:00:00;1726445408;16/09/24;00:10:08;1.003;0.041;0.181;0.14416420459747314;-0.024434609338641167;0.04886921867728233
01:00:0A:00:00:00:00;1726445409;16/09/24;00:10:09;1.004;0.034;0.173;0.15271630883216858;0.0024434609804302454;0.015882495790719986
01:00:0A:00:00:00:00;1726445410;16/09/24;00:10:10;1.003;0.046;0.17;0.13561207056045532;-0.0012217304902151227;0.009773843921720982
01:00:0A:00:00:00:00;1726445411;16/09/24;00:10:11;1.003;0.052;0.174;0.10751228034496307;0.004886921960860491;0.004886921960860491
01:00:0A:00:00:00:00;1726445412;16/09/24;00:10:12;1.002;0.057;0.18;0.08185594528913498;-0.010995574295520782;0.021991148591041565
01:00:0A:00:00:00:00;1726445413;16/09/24;00:10:13;1.002;0.017;0.19;0.030543262138962746;0.010995574295520782;0.04153883829712868
01:00:0A:00:00:00:00;1726445414;16/09/24;00:10:14;1.001;0.004;0.196;0.05253440886735916;-0.02932153083384037;0.0036651913542300463
01:00:0A:00:00:00:00;1726445415;16/09/24;00:10:15;1.004;0.022;0.17;0.02687807008624077;-0.019547687843441963;-0.0073303827084600925
01:00:0A:00:00:00:00;1726445416;16/09/24;00:10:16;1.005;0.046;0.168;0.006108652334660292;-0.018325956538319588;-0.01710422709584236
01:00:0A:00:00:00:00;1726445417;16/09/24;00:10:17;1.005;0.048;0.156;-0.018325956538319588;-0.006108652334660292;0.010995574295520782
01:00:0A:00:00:00:00;1726445418;16/09/24;00:10:18;1.002;0.029;0.188;-0.019547687843441963;0.009773843921720982;0.02687807008624077
01:00:0A:00:00:00:00;1726445419;16/09/24;00:10:19;1.004;0.015;0.184;0.025656338781118393;-0.02076941914856434;0.0
01:00:0A:00:00:00:00;1726445420;16/09/24;00:10:20;1.003;0.034;0.176;0.025656338781118393;-0.00855211354792118;0.0012217304902151227
01:00:0A:00:00:00:00;1726445421;16/09/24;00:10:21;1.006;0.035;0.163;0.03787364438176155;-0.03176499158143997;0.0
01:00:0A:00:00:00:00;1726445422;16/09/24;00:10:22;1.005;0.039;0.164;0.0024434609804302454;0.0012217304902151227;0.0024434609804302454
01:00:0A:00:00:00:00;1726445423;16/09/24;00:10:23;1.003;0.022;0.177;0.018325956538319588;-0.014660765416920185;0.004886921960860491
01:00:0A:00:00:00:00;1726445424;16/09/24;00:10:24;1.002;0.05;0.175;0.036651913076639175;-0.02076941914856434;-0.0354301817715168
01:00:0A:00:00:00:00;1726445425;16/09/24;00:10:25;1.003;0.065;0.165;-0.00855211354792118;-0.014660765416920185;0.0073303827084600925
01:00:0A:00:00:00:00;1726445426;16/09/24;00:10:26;1.003;0.053;0.169;-0.019547687843441963;-0.010995574295520782;0.0073303827084600925
01:00:0A:00:00:00:00;1726445427;16/09/24;00:10:27;1.005;0.038;0.166;-0.018325956538319588;-0.009773843921720982;0.028099799528717995
01:00:0A:00:00:00:00;1726445428;16/09/24;00:10:28;1.005;0.026;0.17;0.025656338781118393;-0.0073303827084600925;-0.012217304669320583
01:00:0A:00:00:00:00;1726445429;16/09/24;00:10:29;1.005;0.054;0.157;0.02932153083384037;-0.02932153083384037;-0.013439035043120384
01:00:0A:00:00:00:00;1726445430;16/09/24;00:10:30;1.004;0.063;0.158;-0.012217304669320583;0.0073303827084600925;0.0073303827084600925
01:00:0A:00:00:00:00;1726445431;16/09/24;00:10:31;1.003;0.044;0.17;-0.013439035043120384;-0.009773843921720982;0.02321287989616394
01:00:0A:00:00:00:00;1726445432;16/09/24;00:10:32;1.005;0.015;0.179;-0.006108652334660292;0.00855211354792118;0.028099799528717995
01:00:0A:00:00:00:00;1726445433;16/09/24;00:10:33;1.003;0.01;0.187;0.04642575979232788;-0.025656338781118393;-0.0036651913542300463
01:00:0A:00:00:00:00;1726445434;16/09/24;00:10:34;1.005;0.034;0.163;0.019547687843441963;-0.018325956538319588;-0.018325956538319588
01:00:0A:00:00:00:00;1726445435;16/09/24;00:10:35;1.004;0.044;0.168;-0.00855211354792118;-0.0073303827084600925;0.006108652334660292
01:00:0A:00:00:00:00;1726445436;16/09/24;00:10:36;1.005;0.04;0.169;0.0073303827084600925;-0.0073303827084600925;0.0073303827084600925
01:00:0A:00:00:00:00;1726445437;16/09/24;00:10:37;1.004;0.031;0.181;0.0073303827084600925;0.006108652334660292;0.018325956538319588
01:00:0A:00:00:00:00;1726445438;16/09/24;00:10:38;1.004;0.035;0.176;0.018325956538319588;-0.028099799528717995;-0.006108652334660292
01:00:0A:00:00:00:00;1726445439;16/09/24;00:10:39;1.004;0.047;0.165;-0.019547687843441963;-0.00855211354792118;0.0012217304902151227
01:00:0A:00:00:00:00;1726445440;16/09/24;00:10:40;1.006;0.027;0.169;-0.012217304669320583;-0.00855211354792118;0.015882495790719986
01:00:0A:00:00:00:00;1726445441;16/09/24;00:10:41;1.005;0.022;0.172;0.010995574295520782;-0.013439035043120384;0.0
01:00:0A:00:00:00:00;1726445442;16/09/24;00:10:42;1.005;0.024;0.174;0.02321287989616394;-0.019547687843441963;-0.004886921960860491
01:00:0A:00:00:00:00;1726445443;16/09/24;00:10:43;1.005;0.045;0.159;0.04398229718208313;-0.028099799528717995;-0.024434609338641167
01:00:0A:00:00:00:00;1726445444;16/09/24;00:10:44;1.007;0.057;0.152;-0.014660765416920185;-0.006108652334660292;0.02321287989616394
01:00:0A:00:00:00:00;1726445445;16/09/24;00:10:45;1.006;0.034;0.162;-0.0036651913542300463;0.0012217304902151227;0.018325956538319588
01:00:0A:00:00:00:00;1726445446;16/09/24;00:10:46;1.005;0.023;0.166;0.00855211354792118;-0.012217304669320583;0.010995574295520782
01:00:0A:00:00:00:00;1726445447;16/09/24;00:10:47;1.006;0.021;0.167;0.02687807008624077;-0.013439035043120384;-0.009773843921720982
01:00:0A:00:00:00:00;1726445448;16/09/24;00:10:48;1.006;0.045;0.16;0.03787364438176155;-0.028099799528717995;-0.019547687843441963
01:00:0A:00:00:00:00;1726445449;16/09/24;00:10:49;1.007;0.045;0.153;-0.015882495790719986;0.0036651913542300463;0.014660765416920185
01:00:0A:00:00:00:00;1726445450;16/09/24;00:10:50;1.005;0.032;0.169;-0.0012217304902151227;-0.013439035043120384;0.012217304669320583
01:00:0A:00:00:00:00;1726445451;16/09/24;00:10:51;1.006;0.022;0.162;0.009773843921720982;-0.009773843921720982;0.0036651913542300463
01:00:0A:00:00:00:00;1726445452;16/09/24;00:10:52;1.006;0.029;0.166;0.025656338781118393;-0.019547687843441963;-0.010995574295520782
01:00:0A:00:00:00:00;1726445453;16/09/24;00:10:53;1.008;0.04;0.151;0.021991148591041565;-0.02076941914856434;-0.0024434609804302454
01:00:0A:00:00:00:00;1726445454;16/09/24;00:10:54;1.004;0.036;0.163;0.0;0.012217304669320583;0.019547687843441963
01:00:0A:00:00:00:00;1726445455;16/09/24;00:10:55;1.006;0.019;0.168;0.02076941914856434;-0.014660765416920185;0.010995574295520782
01:00:0A:00:00:00:00;1726445456;16/09/24;00:10:56;1.006;0.03;0.166;-0.0036651913542300463;-0.004886921960860491;-0.0036651913542300463
01:00:0A:00:00:00:00;1726445457;16/09/24;00:10:57;1.007;0.035;0.16;0.004886921960860491;-0.025656338781118393;-0.006108652334660292
01:00:0A:00:00:00:00;1726445458;16/09/24;00:10:58;1.007;0.043;0.152;-0.014660765416920185;-0.0036651913542300463;0.0036651913542300463
01:00:0A:00:00:00:00;1726445459;16/09/24;00:10:59;1.006;0.022;0.163;-0.02321287989616394;-0.0024434609804302454;0.024434609338641167
01:00:0A:00:00:00:00;1726445460;16/09/24;00:11:00;1.006;0.018;0.169;0.01710422709584236;-0.012217304669320583;-0.012217304669320583
01:00:0A:00:00:00:00;1726445461;16/09/24;00:11:01;1.006;0.027;0.162;0.012217304669320583;-0.018325956538319588;0.0
01:00:0A:00:00:00:00;1726445462;16/09/24;00:11:02;1.005;0.04;0.159;0.024434609338641167;-0.01710422709584236;-0.010995574295520782
01:00:0A:00:00:00:00;1726445463;16/09/24;00:11:03;1.007;0.042;0.154;-0.0012217304902151227;-0.006108652334660292;0.02076941914856434
01:00:0A:00:00:00:00;1726445464;16/09/24;00:11:04;1.005;0.018;0.166;0.004886921960860491;0.0012217304902151227;0.014660765416920185
01:00:0A:00:00:00:00;1726445465;16/09/24;00:11:05;1.005;0.021;0.166;0.02687807008624077;-0.025656338781118393;-0.0036651913542300463
01:00:0A:00:00:00:00;1726445466;16/09/24;00:11:06;1.007;0.031;0.159;0.02321287989616394;-0.009773843921720982;-0.0073303827084600925
01:00:0A:00:00:00:00;1726445467;16/09/24;00:11:07;1.007;0.04;0.156;-0.0036651913542300463;-0.02076941914856434;-0.0012217304902151227
01:00:0A:00:00:00:00;1726445468;16/09/24;00:11:08;1.007;0.034;0.156;-0.02076941914856434;0.004886921960860491;0.015882495790719986
01:00:0A:00:00:00:00;1726445469;16/09/24;00:11:09;1.005;0.019;0.169;0.0;-0.013439035043120384;0.0024434609804302454
01:00:0A:00:00:00:00;1726445470;16/09/24;00:11:10;1.008;0.028;0.157;0.01710422709584236;-0.024434609338641167;-0.012217304669320583
01:00:0A:00:00:00:00;1726445471;16/09/24;00:11:11;1.007;0.04;0.154;0.0073303827084600925;-0.014660765416920185;-0.0012217304902151227
01:00:0A:00:00:00:00;1726445472;16/09/24;00:11:12;1.008;0.038;0.152;0.004886921960860491;-0.010995574295520782;0.006108652334660292
01:00:0A:00:00:00:00;1726445473;16/09/24;00:11:13;1.006;0.027;0.16;-0.010995574295520782;0.0073303827084600925;0.021991148591041565
01:00:0A:00:00:00:00;1726445474;16/09/24;00:11:14;1.006;0.017;0.165;0.018325956538319588;-0.01710422709584236;0.0
01:00:0A:00:00:00:00;1726445475;16/09/24;00:11:15;1.006;0.036;0.153;0.02687807008624077;-0.015882495790719986;-0.012217304669320583
01:00:0A:00:00:00:00;1726445476;16/09/24;00:11:16;1.006;0.04;0.151;0.012217304669320583;-0.014660765416920185;0.006108652334660292
01:00:0A:00:00:00:00;1726445477;16/09/24;00:11:17;1.007;0.036;0.152;0.009773843921720982;-0.006108652334660292;0.0073303827084600925
01:00:0A:00:00:00:00;1726445478;16/09/24;00:11:18;1.007;0.02;0.162;0.0;-0.0012217304902151227;0.018325956538319588
01:00:0A:00:00:00:00;1726445479;16/09/24;00:11:19;1.006;0.022;0.163;0.030543262138962746;-0.019547687843441963;-0.012217304669320583
01:00:0A:00:00:00:00;1726445480;16/09/24;00:11:20;1.007;0.04;0.153;-0.010995574295520782;-0.01710422709584236;-0.0036651913542300463
01:00:0A:00:00:00:00;1726445481;16/09/24;00:11:21;1.007;0.036;0.153;-0.009773843921720982;-0.00855211354792118;0.0024434609804302454
01:00:0A:00:00:00:00;1726445482;16/09/24;00:11:22;1.006;0.033;0.157;-0.010995574295520782;-0.012217304669320583;0.010995574295520782
01:00:0A:00:00:00:00;1726445483;16/09/24;00:11:23;1.007;0.018;0.161;-0.0024434609804302454;-0.0073303827084600925;0.004886921960860491
01:00:0A:00:00:00:00;1726445484;16/09/24;00:11:24;1.007;0.03;0.157;0.02076941914856434;-0.025656338781118393;-0.014660765416920185
01:00:0A:00:00:00:00;1726445485;16/09/24;00:11:25;1.008;0.041;0.144;0.0012217304902151227;-0.00855211354792118;0.0036651913542300463
01:00:0A:00:00:00:00;1726445486;16/09/24;00:11:26;1.007;0.035;0.154;-0.0012217304902151227;-0.006108652334660292;0.009773843921720982
01:00:0A:00:00:00:00;1726445487;16/09/24;00:11:27;1.009;0.023;0.154;-0.0012217304902151227;-0.006108652334660292;0.012217304669320583
01:00:0A:00:00:00:00;1726445488;16/09/24;00:11:28;1.005;0.022;0.163;0.014660765416920185;-0.013439035043120384;-0.0024434609804302454
01:00:0A:00:00:00:00;1726445489;16/09/24;00:11:29;1.009;0.033;0.149;0.028099799528717995;-0.028099799528717995;-0.013439035043120384
01:00:0A:00:00:00:00;1726445490;16/09/24;00:11:30;1.007;0.041;0.149;0.0036651913542300463;-0.0036651913542300463;0.006108652334660292
01:00:0A:00:00:00:00;1726445491;16/09/24;00:11:31;1.007;0.027;0.153;0.0012217304902151227;-0.012217304669320583;0.015882495790719986
01:00:0A:00:00:00:00;1726445492;16/09/24;00:11:32;1.007;0.024;0.157;0.0036651913542300463;0.0;0.006108652334660292
01:00:0A:00:00:00:00;1726445493;16/09/24;00:11:33;1.007;0.022;0.157;0.015882495790719986;-0.019547687843441963;-0.0036651913542300463
01:00:0A:00:00:00:00;1726445494;16/09/24;00:11:34;1.007;0.04;0.148;0.018325956538319588;-0.014660765416920185;-0.009773843921720982
01:00:0A:00:00:00:00;1726445495;16/09/24;00:11:35;1.008;0.035;0.15;-0.0073303827084600925;-0.004886921960860491;0.018325956538319588
01:00:0A:00:00:00:00;1726445496;16/09/24;00:11:36;1.007;0.022;0.158;0.006108652334660292;-0.006108652334660292;0.004886921960860491
01:00:0A:00:00:00:00;1726445497;16/09/24;00:11:37;1.006;0.021;0.158;0.0036651913542300463;-0.012217304669320583;0.00855211354792118
01:00:0A:00:00:00:00;1726445498;16/09/24;00:11:38;1.007;0.029;0.154;0.021991148591041565;-0.015882495790719986;-0.014660765416920185
01:00:0A:00:00:00:00;1726445499;16/09/24;00:11:39;1.006;0.041;0.144;0.004886921960860491;-0.015882495790719986;0.0036651913542300463
01:00:0A:00:00:00:00;1726445500;16/09/24;00:11:40;1.007;0.03;0.153;-0.0073303827084600925;0.0024434609804302454;0.013439035043120384
01:00:0A:00:00:00:00;1726445501;16/09/24;00:11:41;1.006;0.021;0.16;0.004886921960860491;-0.013439035043120384;0.006108652334660292
01:00:0A:00:00:00:00;1726445502;16/09/24;00:11:42;1.006;0.021;0.156;0.00855211354792118;-0.0073303827084600925;0.0012217304902151227
01:00:0A:00:00:00:00;1726445503;16/09/24;00:11:43;1.007;0.034;0.153;0.018325956538319588;-0.02321287989616394;-0.006108652334660292
01:00:0A:00:00:00:00;1726445504;16/09/24;00:11:44;1.009;0.039;0.144;0.0;-0.006108652334660292;0.0073303827084600925
01:00:0A:00:00:00:00;1726445505;16/09/24;00:11:45;1.007;0.024;0.158;-0.0036651913542300463;-0.004886921960860491;0.013439035043120384
01:00:0A:00:00:00:00;1726445506;16/09/24;00:11:46;1.007;0.019;0.158;0.012217304669320583;-0.015882495790719986;-0.0012217304902151227
01:00:0A:00:00:00:00;1726445507;16/09/24;00:11:47;1.009;0.028;0.157;0.013439035043120384;-0.013439035043120384;-0.006108652334660292
01:00:0A:00:00:00:00;1726445508;16/09/24;00:11:48;1.008;0.035;0.149;0.014660765416920185;-0.021991148591041565;-0.004886921960860491
01:00:0A:00:00:00:00;1726445509;16/09/24;00:11:49;1.007;0.035;0.15;-0.006108652334660292;-0.0012217304902151227;0.013439035043120384
01:00:0A:00:00:00:00;1726445510;16/09/24;00:11:50;1.007;0.019;0.16;0.0012217304902151227;-0.009773843921720982;0.009773843921720982
01:00:0A:00:00:00:00;1726445511;16/09/24;00:11:51;1.007;0.022;0.157;0.015882495790719986;-0.014660765416920185;-0.006108652334660292
01:00:0A:00:00:00:00;1726445512;16/09/24;00:11:52;1.006;0.032;0.154;0.012217304669320583;-0.01710422709584236;-0.0024434609804302454
01:00:0A:00:00:00:00;1726445513;16/09/24;00:11:53;1.007;0.037;0.147;0.010995574295520782;-0.012217304669320583;-0.0036651913542300463
01:00:0A:00:00:00:00;1726445514;16/09/24;00:11:54;1.008;0.028;0.155;-0.009773843921720982;-0.0012217304902151227;0.019547687843441963
01:00:0A:00:00:00:00;1726445515;16/09/24;00:11:55;1.007;0.016;0.162;0.010995574295520782;-0.009773843921720982;0.0012217304902151227
01:00:0A:00:00:00:00;1726445516;16/09/24;00:11:56;1.006;0.028;0.155;0.015882495790719986;-0.015882495790719986;-0.0036651913542300463
01:00:0A:00:00:00:00;1726445517;16/09/24;00:11:57;1.007;0.032;0.151;0.013439035043120384;-0.013439035043120384;-0.0036651913542300463
01:00:0A:00:00:00:00;1726445518;16/09/24;00:11:58;1.007;0.037;0.152;0.004886921960860491;-0.012217304669320583;0.004886921960860491
01:00:0A:00:00:00:00;1726445519;16/09/24;00:11:59;1.007;0.02;0.157;-0.004886921960860491;0.0;0.014660765416920185
01:00:0A:00:00:00:00;1726445520;16/09/24;00:12:00;1.005;0.018;0.163;0.015882495790719986;-0.015882495790719986;-0.0024434609804302454
01:00:0A:00:00:00:00;1726445521;16/09/24;00:12:01;1.008;0.029;0.152;0.013439035043120384;-0.013439035043120384;-0.0024434609804302454
01:00:0A:00:00:00:00;1726445522;16/09/24;00:12:02;1.006;0.036;0.153;0.00855211354792118;-0.010995574295520782;0.0012217304902151227
01:00:0A:00:00:00:00;1726445523;16/09/24;00:12:03;1.007;0.029;0.15;-0.0024434609804302454;-0.00855211354792118;0.013439035043120384
01:00:0A:00:00:00:00;1726445524;16/09/24;00:12:04;1.006;0.019;0.163;0.0012217304902151227;-0.0024434609804302454;0.00855211354792118
01:00:0A:00:00:00:00;1726445525;16/09/24;00:12:05;1.007;0.021;0.157;0.021991148591041565;-0.02321287989616394;-0.00855211354792118
01:00:0A:00:00:00:00;1726445526;16/09/24;00:12:06;1.008;0.034;0.152;0.010995574295520782;-0.009773843921720982;-0.0024434609804302454
01:00:0A:00:00:00:00;1726445527;16/09/24;00:12:07;1.007;0.032;0.152;0.0036651913542300463;-0.013439035043120384;0.00855211354792118
01:00:0A:00:00:00:00;1726445528;16/09/24;00:12:08;1.007;0.027;0.156;-0.0012217304902151227;-0.0012217304902151227;0.009773843921720982
01:00:0A:00:00:00:00;1726445529;16/09/24;00:12:09;1.005;0.016;0.162;0.004886921960860491;-0.013439035043120384;0.0073303827084600925
01:00:0A:00:00:00:00;1726445530;16/09/24;00:12:10;1.007;0.027;0.156;0.02321287989616394;-0.01710422709584236;-0.012217304669320583
01:00:0A:00:00:00:00;1726445531;16/09/24;00:12:11;1.007;0.034;0.15;0.0036651913542300463;-0.012217304669320583;0.006108652334660292
01:00:0A:00:00:00:00;1726445532;16/09/24;00:12:12;1.008;0.029;0.154;0.0036651913542300463;-0.006108652334660292;0.004886921960860491
01:00:0A:00:00:00:00;1726445533;16/09/24;00:12:13;1.007;0.023;0.158;-0.0024434609804302454;-0.006108652334660292;0.013439035043120384
01:00:0A:00:00:00:00;1726445534;16/09/24;00:12:14;1.007;0.019;0.162;0.015882495790719986;-0.012217304669320583;-0.006108652334660292
01:00:0A:00:00:00:00;1726445535;16/09/24;00:12:15;1.008;0.032;0.152;0.01710422709584236;-0.021991148591041565;-0.006108652334660292
01:00:0A:00:00:00:00;1726445536;16/09/24;00:12:16;1.007;0.033;0.152;0.0012217304902151227;-0.004886921960860491;0.006108652334660292
01:00:0A:00:00:00:00;1726445537;16/09/24;00:12:17;1.006;0.026;0.158;0.0012217304902151227;-0.009773843921720982;0.00855211354792118
01:00:0A:00:00:00:00;1726445538;16/09/24;00:12:18;1.007;0.018;0.159;0.0012217304902151227;-0.004886921960860491;0.0073303827084600925
01:00:0A:00:00:00:00;1726445539;16/09/24;00:12:19;1.006;0.023;0.161;0.018325956538319588;-0.018325956538319588;-0.0073303827084600925
01:00:0A:00:00:00:00;1726445540;16/09/24;00:12:20;1.007;0.035;0.15;0.010995574295520782;-0.014660765416920185;-0.0024434609804302454
01:00:0A:00:00:00:00;1726445541;16/09/24;00:12:21;1.006;0.031;0.154;-0.0024434609804302454;-0.004886921960860491;0.010995574295520782
01:00:0A:00:00:00:00;1726445542;16/09/24;00:12:22;1.007;0.022;0.158;0.0024434609804302454;-0.009773843921720982;0.0073303827084600925
01:00:0A:00:00:00:00;1726445543;16/09/24;00:12:23;1.007;0.02;0.161;0.00855211354792118;-0.00855211354792118;0.0012217304902151227
01:00:0A:00:00:00:00;1726445544;16/09/24;00:12:24;1.007;0.027;0.157;0.019547687843441963;-0.021991148591041565;-0.0073303827084600925
01:00:0A:00:00:00:00;1726445545;16/09/24;00:12:25;1.008;0.037;0.15;0.006108652334660292;-0.00855211354792118;0.0012217304902151227
01:00:0A:00:00:00:00;1726445546;16/09/24;00:12:26;1.008;0.027;0.156;-0.0024434609804302454;-0.0073303827084600925;0.013439035043120384
01:00:0A:00:00:00:00;1726445547;16/09/24;00:12:27;1.007;0.022;0.159;0.0073303827084600925;-0.009773843921720982;0.0024434609804302454
01:00:0A:00:00:00:00;1726445548;16/09/24;00:12:28;1.006;0.022;0.159;0.010995574295520782;-0.014660765416920185;0.0
01:00:0A:00:00:00:00;1726445549;16/09/24;00:12:29;1.007;0.032;0.153;0.018325956538319588;-0.018325956538319588;-0.00855211354792118
01:00:0A:00:00:00:00;1726445550;16/09/24;00:12:30;1.008;0.036;0.151;-0.0024434609804302454;-0.006108652334660292;0.012217304669320583
01:00:0A:00:00:00:00;1726445551;16/09/24;00:12:31;1.006;0.023;0.159;0.0012217304902151227;-0.004886921960860491;0.00855211354792118
01:00:0A:00:00:00:00;1726445552;16/09/24;00:12:32;1.007;0.023;0.159;0.009773843921720982;-0.013439035043120384;0.0024434609804302454
01:00:0A:00:00:00:00;1726445553;16/09/24;00:12:33;1.007;0.026;0.157;0.015882495790719986;-0.014660765416920185;-0.004886921960860491
01:00:0A:00:00:00:00;1726445554;16/09/24;00:12:34;1.007;0.036;0.153;0.014660765416920185;-0.01710422709584236;-0.0036651913542300463
01:00:0A:00:00:00:00;1726445555;16/09/24;00:12:35;1.007;0.031;0.153;-0.0036651913542300463;-0.0024434609804302454;0.013439035043120384
01:00:0A:00:00:00:00;1726445556;16/09/24;00:12:36;1.006;0.022;0.162;0.004886921960860491;-0.00855211354792118;0.006108652334660292
01:00:0A:00:00:00:00;1726445557;16/09/24;00:12:37;1.008;0.024;0.157;0.012217304669320583;-0.013439035043120384;-0.0012217304902151227
01:00:0A:00:00:00:00;1726445558;16/09/24;00:12:38;1.008;0.032;0.157;0.014660765416920185;-0.013439035043120384;-0.004886921960860491
01:00:0A:00:00:00:00;1726445559;16/09/24;00:12:39;1.006;0.037;0.15;0.004886921960860491;-0.013439035043120384;0.004886921960860491
01:00:0A:00:00:00:00;1726445560;16/09/24;00:12:40;1.006;0.029;0.158;-0.0036651913542300463;0.0012217304902151227;0.012217304669320583
01:00:0A:00:00:00:00;1726445561;16/09/24;00:12:41;1.005;0.02;0.161;0.010995574295520782;-0.015882495790719986;0.0024434609804302454
01:00:0A:00:00:00:00;1726445562;16/09/24;00:12:42;1.007;0.029;0.157;0.014660765416920185;-0.012217304669320583;-0.004886921960860491
01:00:0A:00:00:00:00;1726445563;16/09/24;00:12:43;1.007;0.033;0.153;0.010995574295520782;-0.01710422709584236;0.0
01:00:0A:00:00:00:00;1726445564;16/09/24;00:12:44;1.007;0.036;0.152;0.0024434609804302454;-0.004886921960860491;0.006108652334660292
01:00:0A:00:00:00:00;1726445565;16/09/24;00:12:45;1.007;0.023;0.16;-0.0036651913542300463;-0.006108652334660292;0.014660765416920185
01:00:0A:00:00:00:00;1726445566;16/09/24;00:12:46;1.006;0.023;0.161;0.01710422709584236;-0.013439035043120384;-0.006108652334660292
01:00:0A:00:00:00:00;1726445567;16/09/24;00:12:47;1.007;0.032;0.155;0.012217304669320583;-0.01710422709584236;0.0
01:00:0A:00:00:00:00;1726445568;16/09/24;00:12:48;1.008;0.035;0.154;0.009773843921720982;-0.010995574295520782;0.0
01:00:0A:00:00:00:00;1726445569;16/09/24;00:12:49;1.007;0.032;0.155;-0.0024434609804302454;-0.006108652334660292;0.013439035043120384
01:00:0A:00:00:00:00;1726445570;16/09/24;00:12:50;1.006;0.021;0.162;0.006108652334660292;-0.006108652334660292;0.004886921960860491
01:00:0A:00:00:00:00;1726445571;16/09/24;00:12:51;1.006;0.028;0.158;0.018325956538319588;-0.019547687843441963;-0.006108652334660292
01:00:0A:00:00:00:00;1726445572;16/09/24;00:12:52;1.007;0.036;0.153;0.010995574295520782;-0.012217304669320583;-0.0012217304902151227
01:00:0A:00:00:00:00;1726445573;16/09/24;00:12:53;1.007;0.035;0.154;0.004886921960860491;-0.012217304669320583;0.004886921960860491
01:00:0A:00:00:00:00;1726445574;16/09/24;00:12:54;1.007;0.028;0.155;-0.0012217304902151227;-0.0036651913542300463;0.010995574295520782
01:00:0A:00:00:00:00;1726445575;16/09/24;00:12:55;1.007;0.022;0.162;0.010995574295520782;-0.012217304669320583;0.0012217304902151227
01:00:0A:00:00:00:00;1726445576;16/09/24;00:12:56;1.007;0.03;0.155;0.015882495790719986;-0.019547687843441963;-0.004886921960860491
01:00:0A:00:00:00:00;1726445577;16/09/24;00:12:57;1.007;0.038;0.153;0.004886921960860491;-0.00855211354792118;0.0024434609804302454
01:00:0A:00:00:00:00;1726445578;16/09/24;00:12:58;1.007;0.033;0.153;0.0024434609804302454;-0.009773843921720982;0.00855211354792118
01:00:0A:00:00:00:00;1726445579;16/09/24;00:12:59;1.007;0.024;0.159;0.0;-0.0036651913542300463;0.00855211354792118
01:00:0A:00:00:00:00;1726445580;16/09/24;00:13:00;1.007;0.024;0.16;0.013439035043120384;-0.01710422709584236;-0.0024434609804302454
01:00:0A:00:00:00:00;1726445581;16/09/24;00:13:01;1.008;0.034;0.152;0.014660765416920185;-0.014660765416920185;-0.006108652334660292
01:00:0A:00:00:00:00;1726445582;16/09/24;00:13:02;1.007;0.036;0.153;0.0012217304902151227;-0.009773843921720982;0.00855211354792118
01:00:0A:00:00:00:00;1726445583;16/09/24;00:13:03;1.008;0.029;0.155;0.0024434609804302454;-0.0073303827084600925;0.0073303827084600925
01:00:0A:00:00:00:00;1726445584;16/09/24;00:13:04;1.005;0.023;0.161;0.0036651913542300463;-0.00855211354792118;0.0073303827084600925
01:00:0A:00:00:00:00;1726445585;16/09/24;00:13:05;1.006;0.027;0.157;0.01710422709584236;-0.018325956538319588;-0.0073303827084600925
01:00:0A:00:00:00:00;1726445586;16/09/24;00:13:06;1.007;0.038;0.152;0.0073303827084600925;-0.013439035043120384;0.0024434609804302454
01:00:0A:00:00:00:00;1726445587;16/09/24;00:13:07;1.007;0.032;0.154;0.0;-0.006108652334660292;0.00855211354792118
01:00:0A:00:00:00:00;1726445588;16/09/24;00:13:08;1.006;0.027;0.157;0.0024434609804302454;-0.00855211354792118;0.00855211354792118
01:00:0A:00:00:00:00;1726445589;16/09/24;00:13:09;1.007;0.023;0.159;0.009773843921720982;-0.010995574295520782;0.0012217304902151227
01:00:0A:00:00:00:00;1726445590;16/09/24;00:13:10;1.007;0.031;0.156;0.018325956538319588;-0.019547687843441963;-0.0073303827084600925
01:00:0A:00:00:00:00;1726445591;16/09/24;00:13:11;1.008;0.037;0.149;0.0036651913542300463;-0.009773843921720982;0.006108652334660292
01:00:0A:00:00:00:00;1726445592;16/09/24;00:13:12;1.006;0.03;0.157;0.0012217304902151227;-0.006108652334660292;0.00855211354792118
01:00:0A:00:00:00:00;1726445593;16/09/24;00:13:13;1.006;0.023;0.157;0.004886921960860491;-0.009773843921720982;0.006108652334660292
01:00:0A:00:00:00:00;1726445594;16/09/24;00:13:14;1.007;0.025;0.159;0.013439035043120384;-0.012217304669320583;-0.0024434609804302454
01:00:0A:00:00:00:00;1726445595;16/09/24;00:13:15;1.008;0.035;0.15;0.013439035043120384;-0.018325956538319588;-0.0036651913542300463
01:00:0A:00:00:00:00;1726445596;16/09/24;00:13:16;1.008;0.035;0.151;0.0;-0.0036651913542300463;0.0073303827084600925
01:00:0A:00:00:00:00;1726445597;16/09/24;00:13:17;1.006;0.023;0.158;0.0012217304902151227;-0.009773843921720982;0.009773843921720982
01:00:0A:00:00:00:00;1726445598;16/09/24;00:13:18;1.007;0.026;0.159;0.00855211354792118;-0.00855211354792118;0.0012217304902151227
01:00:0A:00:00:00:00;1726445599;16/09/24;00:13:19;1.007;0.028;0.157;0.012217304669320583;-0.018325956538319588;-0.0012217304902151227
01:00:0A:00:00:00:00;1726445600;16/09/24;00:13:20;1.007;0.037;0.151;0.009773843921720982;-0.012217304669320583;-0.0012217304902151227
01:00:0A:00:00:00:00;1726445601;16/09/24;00:13:21;1.006;0.031;0.153;-0.0036651913542300463;-0.006108652334660292;0.013439035043120384
01:00:0A:00:00:00:00;1726445602;16/09/24;00:13:22;1.007;0.022;0.159;0.0073303827084600925;-0.00855211354792118;0.0036651913542300463
01:00:0A:00:00:00:00;1726445603;16/09/24;00:13:23;1.006;0.026;0.156;0.009773843921720982;-0.013439035043120384;0.0012217304902151227
01:00:0A:00:00:00:00;1726445604;16/09/24;00:13:24;1.006;0.031;0.154;0.013439035043120384;-0.014660765416920185;-0.004886921960860491
01:00:0A:00:00:00:00;1726445605;16/09/24;00:13:25;1.009;0.036;0.15;0.0024434609804302454;-0.010995574295520782;0.006108652334660292
01:00:0A:00:00:00:00;1726445606;16/09/24;00:13:26;1.008;0.027;0.157;-0.0012217304902151227;-0.0036651913542300463;0.009773843921720982
01:00:0A:00:00:00:00;1726445607;16/09/24;00:13:27;1.007;0.024;0.159;0.009773843921720982;-0.013439035043120384;0.0012217304902151227
01:00:0A:00:00:00:00;1726445608;16/09/24;00:13:28;1.006;0.027;0.155;0.012217304669320583;-0.013439035043120384;-0.0024434609804302454
01:00:0A:00:00:00:00;1726445609;16/09/24;00:13:29;1.006;0.034;0.154;0.010995574295520782;-0.015882495790719986;-0.0012217304902151227
01:00:0A:00:00:00:00;1726445610;16/09/24;00:13:30;1.008;0.033;0.151;0.0;-0.0073303827084600925;0.00855211354792118
01:00:0A:00:00:00:00;1726445611;16/09/24;00:13:31;1.006;0.024;0.16;0.0012217304902151227;-0.006108652334660292;0.0073303827084600925
01:00:0A:00:00:00:00;1726445612;16/09/24;00:13:32;1.007;0.024;0.158;0.012217304669320583;-0.015882495790719986;-0.0012217304902151227
01:00:0A:00:00:00:00;1726445613;16/09/24;00:13:33;1.008;0.032;0.154;0.010995574295520782;-0.012217304669320583;-0.0024434609804302454
01:00:0A:00:00:00:00;1726445614;16/09/24;00:13:34;1.008;0.034;0.152;0.0073303827084600925;-0.014660765416920185;0.0024434609804302454
01:00:0A:00:00:00:00;1726445615;16/09/24;00:13:35;1.008;0.031;0.154;-0.0012217304902151227;-0.0036651913542300463;0.009773843921720982
01:00:0A:00:00:00:00;1726445616;16/09/24;00:13:36;1.006;0.023;0.16;0.006108652334660292;-0.010995574295520782;0.004886921960860491
01:00:0A:00:00:00:00;1726445617;16/09/24;00:13:37;1.007;0.026;0.156;0.014660765416920185;-0.014660765416920185;-0.004886921960860491
01:00:0A:00:00:00:00;1726445618;16/09/24;00:13:38;1.008;0.033;0.152;0.00855211354792118;-0.013439035043120384;0.0012217304902151227
01:00:0A:00:00:00:00;1726445619;16/09/24;00:13:39;1.007;0.034;0.152;0.004886921960860491;-0.009773843921720982;0.0036651913542300463
01:00:0A:00:00:00:00;1726445620;16/09/24;00:13:40;1.007;0.026;0.157;-0.0012217304902151227;-0.006108652334660292;0.010995574295520782
01:00:0A:00:00:00:00;1726445621;16/09/24;00:13:41;1.006;0.023;0.16;0.010995574295520782;-0.012217304669320583;0.0
01:00:0A:00:00:00:00;1726445622;16/09/24;00:13:42;1.006;0.031;0.155;0.013439035043120384;-0.015882495790719986;-0.0024434609804302454
01:00:0A:00:00:00:00;1726445623;16/09/24;00:13:43;1.007;0.034;0.152;0.006108652334660292;-0.010995574295520782;0.0024434609804302454
01:00:0A:00:00:00:00;1726445624;16/09/24;00:13:44;1.007;0.033;0.154;0.0024434609804302454;-0.00855211354792118;0.0073303827084600925
01:00:0A:00:00:00:00;1726445625;16/09/24;00:13:45;1.007;0.024;0.158;0.0012217304902151227;-0.0073303827084600925;0.00855211354792118
01:00:0A:00:00:00:00;1726445626;16/09/24;00:13:46;1.008;0.025;0.16;0.014660765416920185;-0.014660765416920185;-0.0036651913542300463
01:00:0A:00:00:00:00;1726445627;16/09/24;00:13:47;1.007;0.033;0.152;0.009773843921720982;-0.014660765416920185;-0.0012217304902151227
01:00:0A:00:00:00:00;1726445628;16/09/24;00:13:48;1.006;0.033;0.152;0.0036651913542300463;-0.00855211354792118;0.0036651913542300463
01:00:0A:00:00:00:00;1726445629;16/09/24;00:13:49;1.007;0.028;0.154;0.0012217304902151227;-0.00855211354792118;0.009773843921720982
01:00:0A:00:00:00:00;1726445630;16/09/24;00:13:50;1.007;0.023;0.159;0.006108652334660292;-0.0073303827084600925;0.0024434609804302454
01:00:0A:00:00:00:00;1726445631;16/09/24;00:13:51;1.008;0.028;0.156;0.014660765416920185;-0.019547687843441963;-0.0036651913542300463
01:00:0A:00:00:00:00;1726445632;16/09/24;00:13:52;1.007;0.036;0.151;0.0073303827084600925;-0.009773843921720982;0.0
01:00:0A:00:00:00:00;1726445633;16/09/24;00:13:53;1.007;0.031;0.154;0.0012217304902151227;-0.009773843921720982;0.00855211354792118
01:00:0A:00:00:00:00;1726445634;16/09/24;00:13:54;1.006;0.026;0.157;0.0024434609804302454;-0.006108652334660292;0.006108652334660292
01:00:0A:00:00:00:00;1726445635;16/09/24;00:13:55;1.006;0.024;0.159;0.00855211354792118;-0.013439035043120384;0.0024434609804302454
01:00:0A:00:00:00:00;1726445636;16/09/24;00:13:56;1.008;0.031;0.154;0.015882495790719986;-0.015882495790719986;-0.006108652334660292
01:00:0A:00:00:00:00;1726445637;16/09/24;00:13:57;1.007;0.035;0.152;0.0024434609804302454;-0.010995574295520782;0.006108652334660292
01:00:0A:00:00:00:00;1726445638;16/09/24;00:13:58;1.006;0.027;0.156;0.0024434609804302454;-0.0073303827084600925;0.006108652334660292
01:00:0A:00:00:00:00;1726445639;16/09/24;00:13:59;1.006;0.026;0.159;0.0036651913542300463;-0.009773843921720982;0.004886921960860491
01:00:0A:00:00:00:00;1726445640;16/09/24;00:14:00;1.007;0.025;0.157;0.013439035043120384;-0.013439035043120384;-0.0036651913542300463
01:00:0A:00:00:00:00;1726445641;16/09/24;00:14:01;1.008;0.034;0.152;0.010995574295520782;-0.015882495790719986;-0.0012217304902151227
01:00:0A:00:00:00:00;1726445642;16/09/24;00:14:02;1.007;0.032;0.152;0.0;-0.006108652334660292;0.00855211354792118
01:00:0A:00:00:00:00;1726445643;16/09/24;00:14:03;1.006;0.025;0.157;0.0036651913542300463;-0.009773843921720982;0.006108652334660292
01:00:0A:00:00:00:00;1726445644;16/09/24;00:14:04;1.007;0.023;0.159;0.0073303827084600925;-0.010995574295520782;0.0024434609804302454
01:00:0A:00:00:00:00;1726445645;16/09/24;00:14:05;1.007;0.029;0.155;0.014660765416920185;-0.015882495790719986;-0.0036651913542300463
01:00:0A:00:00:00:00;1726445646;16/09/24;00:14:06;1.009;0.034;0.151;0.0073303827084600925;-0.012217304669320583;0.0024434609804302454
01:00:0A:00:00:00:00;1726445647;16/09/24;00:14:07;1.008;0.029;0.156;-0.0012217304902151227;-0.004886921960860491;0.00855211354792118
01:00:0A:00:00:00:00;1726445648;16/09/24;00:14:08;1.006;0.023;0.158;0.006108652334660292;-0.010995574295520782;0.004886921960860491
01:00:0A:00:00:00:00;1726445649;16/09/24;00:14:09;1.008;0.026;0.158;0.010995574295520782;-0.012217304669320583;-0.0012217304902151227
01:00:0A:00:00:00:00;1726445650;16/09/24;00:14:10;1.007;0.032;0.155;0.012217304669320583;-0.01710422709584236;-0.0024434609804302454
01:00:0A:00:00:00:00;1726445651;16/09/24;00:14:11;1.008;0.035;0.152;0.0036651913542300463;-0.00855211354792118;0.0036651913542300463
01:00:0A:00:00:00:00;1726445652;16/09/24;00:14:12;1.007;0.026;0.157;0.0;-0.0073303827084600925;0.009773843921720982
01:00:0A:00:00:00:00;1726445653;16/09/24;00:14:13;1.008;0.023;0.158;0.009773843921720982;-0.012217304669320583;0.0012217304902151227
01:00:0A:00:00:00:00;1726445654;16/09/24;00:14:14;1.008;0.028;0.157;0.010995574295520782;-0.014660765416920185;-0.0012217304902151227
01:00:0A:00:00:00:00;1726445655;16/09/24;00:14:15;1.008;0.033;0.152;0.009773843921720982;-0.013439035043120384;-0.0012217304902151227
01:00:0A:00:00:00:00;1726445656;16/09/24;00:14:16;1.008;0.032;0.154;-0.0012217304902151227;-0.0073303827084600925;0.00855211354792118
01:00:0A:00:00:00:00;1726445657;16/09/24;00:14:17;1.007;0.022;0.158;0.0036651913542300463;-0.00855211354792118;0.0073303827084600925
01:00:0A:00:00:00:00;1726445658;16/09/24;00:14:18;1.007;0.025;0.158;0.010995574295520782;-0.013439035043120384;-0.0012217304902151227
01:00:0A:00:00:00:00;1726445659;16/09/24;00:14:19;1.007;0.03;0.155;0.010995574295520782;-0.013439035043120384;-0.0012217304902151227
01:00:0A:00:00:00:00;1726445660;16/09/24;00:14:20;1.007;0.034;0.153;0.0073303827084600925;-0.012217304669320583;0.0012217304902151227
01:00:0A:00:00:00:00;1726445661;16/09/24;00:14:21;1.007;0.027;0.156;-0.0012217304902151227;-0.006108652334660292;0.009773843921720982
01:00:0A:00:00:00:00;1726445662;16/09/24;00:14:22;1.006;0.022;0.16;0.00855211354792118;-0.009773843921720982;0.0024434609804302454
01:00:0A:00:00:00:00;1726445663;16/09/24;00:14:23;1.008;0.026;0.157;0.013439035043120384;-0.014660765416920185;-0.0012217304902151227
01:00:0A:00:00:00:00;1726445664;16/09/24;00:14:24;1.006;0.032;0.154;0.010995574295520782;-0.010995574295520782;-0.0012217304902151227
01:00:0A:00:00:00:00;1726445665;16/09/24;00:14:25;1.008;0.032;0.153;0.004886921960860491;-0.010995574295520782;0.006108652334660292
01:00:0A:00:00:00:00;1726445666;16/09/24;00:14:26;1.006;0.026;0.159;0.0024434609804302454;-0.004886921960860491;0.0073303827084600925
01:00:0A:00:00:00:00;1726445667;16/09/24;00:14:27;1.006;0.024;0.159;0.013439035043120384;-0.015882495790719986;0.0
01:00:0A:00:00:00:00;1726445668;16/09/24;00:14:28;1.007;0.031;0.155;0.014660765416920185;-0.012217304669320583;-0.0036651913542300463
01:00:0A:00:00:00:00;1726445669;16/09/24;00:14:29;1.007;0.032;0.154;0.0073303827084600925;-0.012217304669320583;0.0036651913542300463
01:00:0A:00:00:00:00;1726445670;16/09/24;00:14:30;1.007;0.03;0.154;0.0036651913542300463;-0.0073303827084600925;0.006108652334660292
01:00:0A:00:00:00:00;1726445671;16/09/24;00:14:31;1.006;0.024;0.16;0.004886921960860491;-0.00855211354792118;0.0073303827084600925
01:00:0A:00:00:00:00;1726445672;16/09/24;00:14:32;1.008;0.026;0.157;0.015882495790719986;-0.014660765416920185;-0.0036651913542300463
01:00:0A:00:00:00:00;1726445673;16/09/24;00:14:33;1.007;0.034;0.154;0.009773843921720982;-0.013439035043120384;0.0
01:00:0A:00:00:00:00;1726445674;16/09/24;00:14:34;1.007;0.032;0.153;0.006108652334660292;-0.009773843921720982;0.004886921960860491
01:00:0A:00:00:00:00;1726445675;16/09/24;00:14:35;1.008;0.029;0.156;0.0024434609804302454;-0.0073303827084600925;0.00855211354792118
01:00:0A:00:00:00:00;1726445676;16/09/24;00:14:36;1.007;0.023;0.159;0.00855211354792118;-0.010995574295520782;0.0024434609804302454
01:00:0A:00:00:00:00;1726445677;16/09/24;00:14:37;1.007;0.029;0.157;0.014660765416920185;-0.01710422709584236;-0.0036651913542300463
01:00:0A:00:00:00:00;1726445678;16/09/24;00:14:38;1.007;0.034;0.152;0.0073303827084600925;-0.010995574295520782;0.0024434609804302454
01:00:0A:00:00:00:00;1726445679;16/09/24;00:14:39;1.006;0.031;0.155;0.0036651913542300463;-0.00855211354792118;0.006108652334660292
01:00:0A:00:00:00:00;1726445680;16/09/24;00:14:40;1.006;0.027;0.156;0.0036651913542300463;-0.00855211354792118;0.0073303827084600925
01:00:0A:00:00:00:00;1726445681;16/09/24;00:14:41;1.007;0.026;0.159;0.012217304669320583;-0.013439035043120384;0.0
01:00:0A:00:00:00:00;1726445682;16/09/24;00:14:42;1.006;0.032;0.154;0.012217304669320583;-0.015882495790719986;-0.0024434609804302454
01:00:0A:00:00:00:00;1726445683;16/09/24;00:14:43;1.007;0.035;0.153;0.0036651913542300463;-0.00855211354792118;0.004886921960860491
01:00:0A:00:00:00:00;1726445684;16/09/24;00:14:44;1.007;0.029;0.156;0.0024434609804302454;-0.009773843921720982;0.0073303827084600925
01:00:0A:00:00:00:00;1726445685;16/09/24;00:14:45;1.007;0.026;0.158;0.006108652334660292;-0.00855211354792118;0.0036651913542300463
01:00:0A:00:00:00:00;1726445686;16/09/24;00:14:46;1.007;0.027;0.158;0.013439035043120384;-0.015882495790719986;-0.0012217304902151227
01:00:0A:00:00:00:00;1726445687;16/09/24;00:14:47;1.007;0.034;0.153;0.010995574295520782;-0.013439035043120384;-0.0012217304902151227
01:00:0A:00:00:00:00;1726445688;16/09/24;00:14:48;1.007;0.032;0.155;0.0024434609804302454;-0.00855211354792118;0.00855211354792118
01:00:0A:00:00:00:00;1726445689;16/09/24;00:14:49;1.006;0.027;0.157;0.006108652334660292;-0.00855211354792118;0.004886921960860491
01:00:0A:00:00:00:00;1726445690;16/09/24;00:14:50;1.006;0.026;0.16;0.00855211354792118;-0.012217304669320583;0.0024434609804302454
01:00:0A:00:00:00:00;1726445691;16/09/24;00:14:51;1.008;0.029;0.156;0.014660765416920185;-0.015882495790719986;-0.0024434609804302454
01:00:0A:00:00:00:00;1726445692;16/09/24;00:14:52;1.007;0.035;0.152;0.006108652334660292;-0.010995574295520782;0.0036651913542300463
01:00:0A:00:00:00:00;1726445693;16/09/24;00:14:53;1.007;0.029;0.155;0.0024434609804302454;-0.0073303827084600925;0.00855211354792118
01:00:0A:00:00:00:00;1726445694;16/09/24;00:14:54;1.007;0.027;0.158;0.0073303827084600925;-0.010995574295520782;0.0036651913542300463
01:00:0A:00:00:00:00;1726445695;16/09/24;00:14:55;1.007;0.027;0.158;0.010995574295520782;-0.013439035043120384;0.0
01:00:0A:00:00:00:00;1726445696;16/09/24;00:14:56;1.007;0.033;0.156;0.013439035043120384;-0.014660765416920185;-0.0024434609804302454
01:00:0A:00:00:00:00;1726445697;16/09/24;00:14:57;1.007;0.033;0.153;-0.0012217304902151227;-0.009773843921720982;0.006108652334660292
01:00:0A:00:00:00:00;1726445698;16/09/24;00:14:58;1.006;0.028;0.159;0.0012217304902151227;-0.0073303827084600925;0.006108652334660292
01:00:0A:00:00:00:00;1726445699;16/09/24;00:14:59;1.007;0.025;0.157;0.00855211354792118;-0.013439035043120384;0.0024434609804302454
01:00:0A:00:00:00:00;1726445700;16/09/24;00:15:00;1.006;0.029;0.158;0.012217304669320583;-0.013439035043120384;-0.0024434609804302454
01:00:0A:00:00:00:00;1726445701;16/09/24;00:15:01;1.007;0.034;0.152;0.009773843921720982;-0.014660765416920185;0.0012217304902151227
01:00:0A:00:00:00:00;1726445702;16/09/24;00:15:02;1.007;0.032;0.155;0.0024434609804302454;-0.006108652334660292;0.0073303827084600925
01:00:0A:00:00:00:00;1726445703;16/09/24;00:15:03;1.006;0.025;0.159;0.0073303827084600925;-0.010995574295520782;0.006108652334660292
01:00:0A:00:00:00:00;1726445704;16/09/24;00:15:04;1.006;0.027;0.159;0.013439035043120384;-0.012217304669320583;-0.0012217304902151227
