Source;Epoch timestamp (UTC);Date;Time (UTC);Accel X (G);Accel Y (G);Accel Z (G);Gyro X (rad/s);Gyro Y (rad/s);Gyro Z (rad/s)
01:00:0A:00:00:00:00;1723248003;10/08/24;00:00:03;0.985;-0.022;0.114;-0.19425514340400696;0.045204028487205505;-0.03176499158143997
01:00:0A:00:00:00:00;1723248004;10/08/24;00:00:04;0.98;-0.019;0.123;-0.21135938167572021;-0.059864792972803116;-0.03420845419168472
01:00:0A:00:00:00:00;1723248005;10/08/24;00:00:05;1.003;-0.022;0.094;-0.20525071024894714;-0.021991148591041565;-0.02687807008624077
01:00:0A:00:00:00:00;1723248006;10/08/24;00:00:06;1.017;-0.032;0.122;-0.19547687470912933;-0.01710422709584236;-0.028099799528717995
01:00:0A:00:00:00:00;1723248007;10/08/24;00:00:07;1.037;-0.033;0.131;-0.18814648687839508;-0.030543262138962746;-0.024434609338641167
01:00:0A:00:00:00:00;1723248008;10/08/24;00:00:08;1.031;-0.02;0.105;-0.18325956165790558;0.0073303827084600925;-0.013439035043120384
01:00:0A:00:00:00:00;1723248009;10/08/24;00:00:09;1.016;-0.041;0.12;-0.17959438264369965;0.039095375686883926;0.015882495790719986
01:00:0A:00:00:00:00;1723248010;10/08/24;00:00:10;0.993;-0.022;0.109;-0.17104226350784302;-0.03298672288656235;-0.013439035043120384
01:00:0A:00:00:00:00;1723248011;10/08/24;00:00:11;0.982;-0.009;0.1;-0.17470745742321014;-0.025656338781118393;-0.010995574295520782
01:00:0A:00:00:00:00;1723248012;10/08/24;00:00:12;0.988;-0.028;0.112;-0.1722639948129654;-0.02321287989616394;-0.018325956538319588
01:00:0A:00:00:00:00;1723248013;10/08/24;00:00:13;1.006;-0.035;0.119;-0.1563815027475357;-0.05742133408784866;-0.05864306166768074
01:00:0A:00:00:00:00;1723248014;10/08/24;00:00:14;1.038;-0.016;0.118;-0.17470745742321014;-0.036651913076639175;0.012217304669320583
01:00:0A:00:00:00:00;1723248015;10/08/24;00:00:15;1.051;-0.049;0.128;-0.16493360698223114;0.004886921960860491;0.02932153083384037
01:00:0A:00:00:00:00;1723248016;10/08/24;00:00:16;1.044;0.0;0.122;-0.15393804013729095;0.024434609338641167;0.01710422709584236
01:00:0A:00:00:00:00;1723248017;10/08/24;00:00:17;1.001;0.002;0.106;-0.16004669666290283;0.02932153083384037;0.006108652334660292
01:00:0A:00:00:00:00;1723248018;10/08/24;00:00:18;0.974;0.0;0.099;-0.13805554807186127;0.030543262138962746;-0.05497787147760391
01:00:0A:00:00:00:00;1723248019;10/08/24;00:00:19;0.97;-0.013;0.098;-0.13805554807186127;-0.0036651913542300463;-0.06719517707824707
01:00:0A:00:00:00:00;1723248020;10/08/24;00:00:20;0.993;-0.034;0.084;-0.15271630883216858;-0.04398229718208313;-0.045204028487205505
01:00:0A:00:00:00:00;1723248021;10/08/24;00:00:21;1.037;-0.04;0.089;-0.14538592100143433;-0.05619959905743599;-0.02321287989616394
01:00:0A:00:00:00:00;1723248022;10/08/24;00:00:22;1.043;-0.027;0.131;-0.16249015927314758;-0.08185594528913498;0.006108652334660292
01:00:0A:00:00:00:00;1723248023;10/08/24;00:00:23;1.031;-0.033;0.124;-0.16004669666290283;-0.04398229718208313;0.02321287989616394
01:00:0A:00:00:00:00;1723248024;10/08/24;00:00:24;1.0;-0.018;0.142;-0.13805554807186127;0.0708603635430336;0.004886921960860491
01:00:0A:00:00:00:00;1723248025;10/08/24;00:00:25;0.997;-0.021;0.132;-0.14538592100143433;0.04153883829712868;0.004886921960860491
01:00:0A:00:00:00:00;1723248026;10/08/24;00:00:26;1.006;-0.02;0.088;-0.13316862285137177;0.018325956538319588;-0.012217304669320583
01:00:0A:00:00:00:00;1723248027;10/08/24;00:00:27;1.01;-0.017;0.088;-0.1270599663257599;0.0036651913542300463;-0.006108652334660292
01:00:0A:00:00:00:00;1723248028;10/08/24;00:00:28;1.003;-0.021;0.1;-0.13072516024112701;-0.06475171446800232;-0.0073303827084600925
01:00:0A:00:00:00:00;1723248029;10/08/24;00:00:29;0.991;-0.019;0.099;-0.1160643920302391;-0.05864306166768074;-0.03176499158143997
01:00:0A:00:00:00:00;1723248030;10/08/24;00:00:30;0.999;-0.027;0.132;-0.11728612333536148;-0.04886921867728233;-0.030543262138962746
01:00:0A:00:00:00:00;1723248031;10/08/24;00:00:31;1.022;-0.032;0.134;-0.12339477241039276;-0.02687807008624077;-0.015882495790719986
01:00:0A:00:00:00:00;1723248032;10/08/24;00:00:32;1.054;-0.021;0.116;-0.1258382350206375;0.03298672288656235;0.036651913076639175
01:00:0A:00:00:00:00;1723248033;10/08/24;00:00:33;1.04;-0.01;0.118;-0.12339477241039276;0.059864792972803116;0.02687807008624077
01:00:0A:00:00:00:00;1723248034;10/08/24;00:00:34;1.01;-0.002;0.088;-0.1160643920302391;0.013439035043120384;-0.010995574295520782
01:00:0A:00:00:00:00;1723248035;10/08/24;00:00:35;0.947;-0.015;0.091;-0.1014036238193512;0.018325956538319588;-0.03176499158143997
01:00:0A:00:00:00:00;1723248036;10/08/24;00:00:36;0.948;-0.016;0.09;-0.09285151958465576;-0.08552113175392151;-0.080634206533432
01:00:0A:00:00:00:00;1723248037;10/08/24;00:00:37;1.009;-0.023;0.09;-0.11239919811487198;-0.028099799528717995;0.028099799528717995
01:00:0A:00:00:00:00;1723248038;10/08/24;00:00:38;1.045;-0.051;0.131;-0.07696902006864548;-0.09407324343919754;-0.06719517707824707
01:00:0A:00:00:00:00;1723248039;10/08/24;00:00:39;1.076;0.027;0.096;-0.10018189996480942;-0.010995574295520782;0.024434609338641167
01:00:0A:00:00:00:00;1723248040;10/08/24;00:00:40;1.052;-0.102;0.161;-0.07696902006864548;0.07208210229873657;0.08552113175392151
01:00:0A:00:00:00:00;1723248041;10/08/24;00:00:41;0.989;0.05;0.081;-0.03176499158143997;-0.04764748737215996;-0.17959438264369965
01:00:0A:00:00:00:00;1723248042;10/08/24;00:00:42;0.95;-0.05;0.104;-0.15515977144241333;0.08552113175392151;0.26633724570274353
01:00:0A:00:00:00:00;1723248043;10/08/24;00:00:43;0.974;-0.058;0.113;0.05742133408784866;-0.14905111491680145;-0.3640756905078888
01:00:0A:00:00:00:00;1723248044;10/08/24;00:00:44;1.027;0.106;0.071;-0.1563815027475357;0.02321287989616394;0.2638937830924988
01:00:0A:00:00:00:00;1723248045;10/08/24;00:00:45;1.031;-0.211;0.147;-0.0073303827084600925;-0.03176499158143997;-0.07819075137376785
01:00:0A:00:00:00:00;1723248046;10/08/24;00:00:46;1.04;0.133;0.098;0.019547687843441963;-0.04886921867728233;-0.18936821818351746
01:00:0A:00:00:00:00;1723248047;10/08/24;00:00:47;1.021;-0.098;0.115;-0.11850785464048386;0.05619959905743599;0.24923302233219147
01:00:0A:00:00:00:00;1723248048;10/08/24;00:00:48;0.975;-0.031;0.114;0.06841690838336945;0.025656338781118393;-0.20647244155406952
01:00:0A:00:00:00:00;1723248049;10/08/24;00:00:49;0.967;0.012;0.084;-0.059864792972803116;-0.04886921867728233;0.09040805697441101
01:00:0A:00:00:00:00;1723248050;10/08/24;00:00:50;1.001;-0.067;0.089;-0.02076941914856434;-0.0073303827084600925;0.010995574295520782
01:00:0A:00:00:00:00;1723248051;10/08/24;00:00:51;1.038;-0.033;0.135;0.030543262138962746;-0.0708603635430336;-0.07696902006864548
01:00:0A:00:00:00:00;1723248052;10/08/24;00:00:52;1.043;0.032;0.092;-0.028099799528717995;-0.03176499158143997;0.030543262138962746
01:00:0A:00:00:00:00;1723248053;10/08/24;00:00:53;1.021;-0.079;0.132;-0.014660765416920185;0.05619959905743599;0.080634206533432
01:00:0A:00:00:00:00;1723248054;10/08/24;00:00:54;1.007;0.001;0.118;0.0354301817715168;-0.014660765416920185;-0.09896016865968704
01:00:0A:00:00:00:00;1723248055;10/08/24;00:00:55;0.997;-0.001;0.095;-0.05619959905743599;-0.015882495790719986;0.09162978082895279
01:00:0A:00:00:00:00;1723248056;10/08/24;00:00:56;0.997;-0.058;0.118;-0.018325956538319588;-0.004886921960860491;0.021991148591041565
01:00:0A:00:00:00:00;1723248057;10/08/24;00:00:57;1.01;-0.001;0.124;0.0073303827084600925;-0.059864792972803116;-0.06963863223791122
01:00:0A:00:00:00:00;1723248058;10/08/24;00:00:58;1.02;0.012;0.102;-0.04642575979232788;-0.010995574295520782;0.02932153083384037
01:00:0A:00:00:00:00;1723248059;10/08/24;00:00:59;1.017;-0.062;0.123;-0.015882495790719986;0.03787364438176155;-0.01710422709584236
01:00:0A:00:00:00:00;1723248060;10/08/24;00:01:00;1.016;-0.015;0.112;0.0;-0.010995574295520782;-0.06230825558304787
01:00:0A:00:00:00:00;1723248061;10/08/24;00:01:01;1.016;-0.019;0.085;-0.06108652427792549;-0.018325956538319588;0.0659734457731247
01:00:0A:00:00:00:00;1723248062;10/08/24;00:01:02;1.003;-0.048;0.109;-0.0354301817715168;-0.004886921960860491;0.03420845419168472
01:00:0A:00:00:00:00;1723248063;10/08/24;00:01:03;0.993;0.0;0.117;-0.01710422709584236;-0.05009094998240471;-0.045204028487205505
01:00:0A:00:00:00:00;1723248064;10/08/24;00:01:04;0.998;-0.004;0.112;-0.06963863223791122;-0.045204028487205505;0.05009094998240471
01:00:0A:00:00:00:00;1723248065;10/08/24;00:01:05;1.012;-0.054;0.126;-0.02687807008624077;-0.02321287989616394;-0.04886921867728233
01:00:0A:00:00:00:00;1723248066;10/08/24;00:01:06;1.035;-0.006;0.128;-0.03420845419168472;-0.004886921960860491;-0.02932153083384037
01:00:0A:00:00:00:00;1723248067;10/08/24;00:01:07;1.041;-0.023;0.106;-0.06963863223791122;-0.00855211354792118;0.039095375686883926
01:00:0A:00:00:00:00;1723248068;10/08/24;00:01:08;1.014;-0.045;0.117;-0.045204028487205505;0.02932153083384037;0.018325956538319588
01:00:0A:00:00:00:00;1723248069;10/08/24;00:01:09;0.989;-0.006;0.109;-0.036651913076639175;-0.02076941914856434;-0.040317103266716
01:00:0A:00:00:00:00;1723248070;10/08/24;00:01:10;0.99;-0.018;0.105;-0.07696902006864548;-0.018325956538319588;0.036651913076639175
01:00:0A:00:00:00:00;1723248071;10/08/24;00:01:11;1.01;-0.043;0.116;-0.039095375686883926;-0.02321287989616394;-0.04642575979232788
01:00:0A:00:00:00:00;1723248072;10/08/24;00:01:12;1.024;-0.011;0.126;-0.05375614017248154;-0.042760565876960754;-0.019547687843441963
01:00:0A:00:00:00:00;1723248073;10/08/24;00:01:13;1.026;-0.032;0.114;-0.0757472887635231;0.004886921960860491;0.040317103266716
01:00:0A:00:00:00:00;1723248074;10/08/24;00:01:14;1.012;-0.033;0.122;-0.04764748737215996;0.045204028487205505;0.0
01:00:0A:00:00:00:00;1723248075;10/08/24;00:01:15;0.993;-0.006;0.106;-0.05375614017248154;-0.006108652334660292;-0.014660765416920185
01:00:0A:00:00:00:00;1723248076;10/08/24;00:01:16;0.993;-0.019;0.091;-0.07330382615327835;-0.025656338781118393;0.02321287989616394
01:00:0A:00:00:00:00;1723248077;10/08/24;00:01:17;1.016;-0.038;0.107;-0.04153883829712868;-0.059864792972803116;-0.04886921867728233
01:00:0A:00:00:00:00;1723248078;10/08/24;00:01:18;1.034;-0.014;0.133;-0.05375614017248154;-0.04764748737215996;-0.00855211354792118
01:00:0A:00:00:00:00;1723248079;10/08/24;00:01:19;1.034;-0.039;0.129;-0.06230825558304787;-0.0036651913542300463;0.02076941914856434
01:00:0A:00:00:00:00;1723248080;10/08/24;00:01:20;1.014;-0.04;0.126;-0.039095375686883926;0.05009094998240471;0.012217304669320583
01:00:0A:00:00:00:00;1723248081;10/08/24;00:01:21;1.0;-0.016;0.116;-0.05253440886735916;0.025656338781118393;0.02687807008624077
01:00:0A:00:00:00:00;1723248082;10/08/24;00:01:22;0.993;-0.019;0.094;-0.06352998316287994;-0.014660765416920185;0.03420845419168472
01:00:0A:00:00:00:00;1723248083;10/08/24;00:01:23;0.999;-0.017;0.1;-0.03176499158143997;-0.012217304669320583;-0.042760565876960754
01:00:0A:00:00:00:00;1723248084;10/08/24;00:01:24;1.013;-0.008;0.114;-0.04764748737215996;-0.05009094998240471;-0.030543262138962746
01:00:0A:00:00:00:00;1723248085;10/08/24;00:01:25;1.021;-0.035;0.11;-0.05742133408784866;-0.036651913076639175;0.0012217304902151227
01:00:0A:00:00:00:00;1723248086;10/08/24;00:01:26;1.017;-0.034;0.12;-0.03787364438176155;0.006108652334660292;-0.010995574295520782
01:00:0A:00:00:00:00;1723248087;10/08/24;00:01:27;1.017;-0.014;0.122;-0.05253440886735916;0.0012217304902151227;0.024434609338641167
01:00:0A:00:00:00:00;1723248088;10/08/24;00:01:28;1.017;-0.024;0.102;-0.051312677562236786;0.0024434609804302454;0.018325956538319588
01:00:0A:00:00:00:00;1723248089;10/08/24;00:01:29;1.016;-0.018;0.106;-0.030543262138962746;0.0024434609804302454;-0.021991148591041565
01:00:0A:00:00:00:00;1723248090;10/08/24;00:01:30;1.009;-0.013;0.112;-0.04398229718208313;-0.02687807008624077;-0.010995574295520782
01:00:0A:00:00:00:00;1723248091;10/08/24;00:01:31;1.0;-0.037;0.104;-0.042760565876960754;-0.03176499158143997;0.0
01:00:0A:00:00:00:00;1723248092;10/08/24;00:01:32;0.999;-0.035;0.118;-0.024434609338641167;-0.014660765416920185;-0.02076941914856434
01:00:0A:00:00:00:00;1723248093;10/08/24;00:01:33;1.013;-0.027;0.127;-0.04398229718208313;-0.05253440886735916;0.018325956538319588
01:00:0A:00:00:00:00;1723248094;10/08/24;00:01:34;1.028;-0.03;0.115;-0.036651913076639175;-0.006108652334660292;0.02687807008624077
01:00:0A:00:00:00:00;1723248095;10/08/24;00:01:35;1.028;-0.021;0.124;-0.02076941914856434;0.021991148591041565;0.004886921960860491
01:00:0A:00:00:00:00;1723248096;10/08/24;00:01:36;1.016;-0.013;0.12;-0.030543262138962746;-0.0012217304902151227;0.0024434609804302454
01:00:0A:00:00:00:00;1723248097;10/08/24;00:01:37;1.006;-0.027;0.104;-0.024434609338641167;-0.0024434609804302454;-0.0024434609804302454
01:00:0A:00:00:00:00;1723248098;10/08/24;00:01:38;0.988;-0.03;0.114;-0.012217304669320583;-0.0012217304902151227;-0.024434609338641167
01:00:0A:00:00:00:00;1723248099;10/08/24;00:01:39;0.99;-0.03;0.112;-0.030543262138962746;-0.05253440886735916;0.006108652334660292
01:00:0A:00:00:00:00;1723248100;10/08/24;00:01:40;1.018;-0.037;0.107;-0.019547687843441963;-0.030543262138962746;-0.0024434609804302454
01:00:0A:00:00:00:00;1723248101;10/08/24;00:01:41;1.033;-0.027;0.131;-0.018325956538319588;-0.013439035043120384;0.014660765416920185
01:00:0A:00:00:00:00;1723248102;10/08/24;00:01:42;1.033;-0.023;0.119;-0.025656338781118393;-0.004886921960860491;0.021991148591041565
01:00:0A:00:00:00:00;1723248103;10/08/24;00:01:43;1.009;-0.026;0.106;-0.019547687843441963;0.009773843921720982;0.010995574295520782
01:00:0A:00:00:00:00;1723248104;10/08/24;00:01:44;0.995;-0.022;0.114;-0.01710422709584236;0.004886921960860491;-0.004886921960860491
01:00:0A:00:00:00:00;1723248105;10/08/24;00:01:45;0.993;-0.027;0.117;-0.02687807008624077;-0.04153883829712868;0.0
01:00:0A:00:00:00:00;1723248106;10/08/24;00:01:46;1.004;-0.031;0.112;-0.019547687843441963;-0.021991148591041565;-0.004886921960860491
01:00:0A:00:00:00:00;1723248107;10/08/24;00:01:47;1.021;-0.028;0.127;-0.02076941914856434;-0.01710422709584236;0.0036651913542300463
01:00:0A:00:00:00:00;1723248108;10/08/24;00:01:48;1.027;-0.029;0.122;-0.02687807008624077;-0.010995574295520782;0.01710422709584236
01:00:0A:00:00:00:00;1723248109;10/08/24;00:01:49;1.026;-0.025;0.113;-0.021991148591041565;0.00855211354792118;0.018325956538319588
01:00:0A:00:00:00:00;1723248110;10/08/24;00:01:50;1.01;-0.017;0.116;-0.021991148591041565;0.009773843921720982;0.0012217304902151227
01:00:0A:00:00:00:00;1723248111;10/08/24;00:01:51;1.003;-0.021;0.104;-0.02687807008624077;-0.009773843921720982;-0.0012217304902151227
01:00:0A:00:00:00:00;1723248112;10/08/24;00:01:52;0.997;-0.023;0.105;-0.018325956538319588;-0.014660765416920185;-0.01710422709584236
01:00:0A:00:00:00:00;1723248113;10/08/24;00:01:53;0.999;-0.023;0.113;-0.021991148591041565;-0.02932153083384037;-0.021991148591041565
01:00:0A:00:00:00:00;1723248114;10/08/24;00:01:54;1.014;-0.032;0.114;-0.028099799528717995;-0.03787364438176155;-0.014660765416920185
01:00:0A:00:00:00:00;1723248115;10/08/24;00:01:55;1.024;-0.037;0.113;-0.028099799528717995;-0.013439035043120384;0.00855211354792118
01:00:0A:00:00:00:00;1723248116;10/08/24;00:01:56;1.027;-0.026;0.123;-0.036651913076639175;-0.009773843921720982;0.02687807008624077
01:00:0A:00:00:00:00;1723248117;10/08/24;00:01:57;1.022;-0.019;0.114;-0.039095375686883926;-0.014660765416920185;0.02321287989616394
01:00:0A:00:00:00:00;1723248118;10/08/24;00:01:58;1.01;-0.013;0.119;-0.03176499158143997;0.012217304669320583;0.0012217304902151227
01:00:0A:00:00:00:00;1723248119;10/08/24;00:01:59;1.003;-0.017;0.119;-0.03176499158143997;0.00855211354792118;-0.015882495790719986
01:00:0A:00:00:00:00;1723248120;10/08/24;00:02:00;1.007;-0.022;0.106;-0.03298672288656235;-0.0012217304902151227;-0.015882495790719986
01:00:0A:00:00:00:00;1723248121;10/08/24;00:02:01;1.011;-0.03;0.108;-0.03298672288656235;-0.0012217304902151227;0.0
01:00:0A:00:00:00:00;1723248122;10/08/24;00:02:02;1.011;-0.03;0.114;-0.036651913076639175;-0.019547687843441963;0.010995574295520782
01:00:0A:00:00:00:00;1723248123;10/08/24;00:02:03;1.01;-0.021;0.106;-0.0354301817715168;-0.030543262138962746;0.014660765416920185
01:00:0A:00:00:00:00;1723248124;10/08/24;00:02:04;1.008;-0.019;0.114;-0.028099799528717995;-0.013439035043120384;0.0036651913542300463
01:00:0A:00:00:00:00;1723248125;10/08/24;00:02:05;1.011;-0.02;0.119;-0.02321287989616394;-0.02076941914856434;-0.019547687843441963
01:00:0A:00:00:00:00;1723248126;10/08/24;00:02:06;1.019;-0.022;0.114;-0.021991148591041565;-0.012217304669320583;-0.014660765416920185
01:00:0A:00:00:00:00;1723248127;10/08/24;00:02:07;1.028;-0.03;0.119;-0.02321287989616394;0.015882495790719986;0.0024434609804302454
01:00:0A:00:00:00:00;1723248128;10/08/24;00:02:08;1.014;-0.028;0.113;-0.025656338781118393;0.0036651913542300463;0.018325956538319588
01:00:0A:00:00:00:00;1723248129;10/08/24;00:02:09;0.997;-0.021;0.107;-0.025656338781118393;-0.006108652334660292;0.012217304669320583
01:00:0A:00:00:00:00;1723248130;10/08/24;00:02:10;0.983;-0.019;0.111;-0.025656338781118393;-0.02076941914856434;-0.0012217304902151227
01:00:0A:00:00:00:00;1723248131;10/08/24;00:02:11;0.996;-0.024;0.114;-0.025656338781118393;-0.042760565876960754;-0.00855211354792118
01:00:0A:00:00:00:00;1723248132;10/08/24;00:02:12;1.036;-0.026;0.117;-0.02321287989616394;-0.028099799528717995;-0.0024434609804302454
01:00:0A:00:00:00:00;1723248133;10/08/24;00:02:13;1.048;-0.027;0.127;-0.024434609338641167;-0.004886921960860491;0.015882495790719986
01:00:0A:00:00:00:00;1723248134;10/08/24;00:02:14;1.033;-0.022;0.121;-0.021991148591041565;0.02076941914856434;0.012217304669320583
01:00:0A:00:00:00:00;1723248135;10/08/24;00:02:15;1.007;-0.014;0.111;-0.019547687843441963;0.03420845419168472;0.012217304669320583
01:00:0A:00:00:00:00;1723248136;10/08/24;00:02:16;0.968;-0.014;0.096;-0.019547687843441963;-0.0073303827084600925;-0.009773843921720982
01:00:0A:00:00:00:00;1723248137;10/08/24;00:02:17;0.983;-0.02;0.096;-0.021991148591041565;-0.042760565876960754;-0.021991148591041565
01:00:0A:00:00:00:00;1723248138;10/08/24;00:02:18;1.012;-0.028;0.105;-0.025656338781118393;-0.04886921867728233;-0.009773843921720982
01:00:0A:00:00:00:00;1723248139;10/08/24;00:02:19;1.045;-0.03;0.122;-0.028099799528717995;-0.0354301817715168;0.0073303827084600925
01:00:0A:00:00:00:00;1723248140;10/08/24;00:02:20;1.048;-0.024;0.124;-0.02932153083384037;-0.004886921960860491;0.021991148591041565
01:00:0A:00:00:00:00;1723248141;10/08/24;00:02:21;1.02;-0.022;0.124;-0.028099799528717995;0.03176499158143997;0.014660765416920185
01:00:0A:00:00:00:00;1723248142;10/08/24;00:02:22;0.997;-0.021;0.111;-0.02687807008624077;0.024434609338641167;0.004886921960860491
01:00:0A:00:00:00:00;1723248143;10/08/24;00:02:23;0.981;-0.024;0.103;-0.025656338781118393;-0.0073303827084600925;-0.0073303827084600925
01:00:0A:00:00:00:00;1723248144;10/08/24;00:02:24;0.991;-0.023;0.103;-0.03420845419168472;-0.03420845419168472;0.0012217304902151227
01:00:0A:00:00:00:00;1723248145;10/08/24;00:02:25;1.019;-0.031;0.111;-0.03176499158143997;-0.04886921867728233;-0.010995574295520782
01:00:0A:00:00:00:00;1723248146;10/08/24;00:02:26;1.034;-0.026;0.127;-0.03176499158143997;-0.019547687843441963;0.0073303827084600925
01:00:0A:00:00:00:00;1723248147;10/08/24;00:02:27;1.029;-0.024;0.129;-0.036651913076639175;0.004886921960860491;0.018325956538319588
01:00:0A:00:00:00:00;1723248148;10/08/24;00:02:28;1.01;-0.025;0.119;-0.03176499158143997;0.02321287989616394;0.006108652334660292
01:00:0A:00:00:00:00;1723248149;10/08/24;00:02:29;1.003;-0.019;0.11;-0.028099799528717995;0.014660765416920185;-0.009773843921720982
01:00:0A:00:00:00:00;1723248150;10/08/24;00:02:30;0.999;-0.024;0.104;-0.03420845419168472;-0.014660765416920185;0.0012217304902151227
01:00:0A:00:00:00:00;1723248151;10/08/24;00:02:31;1.006;-0.029;0.103;-0.03176499158143997;-0.03176499158143997;-0.0036651913542300463
01:00:0A:00:00:00:00;1723248152;10/08/24;00:02:32;1.014;-0.022;0.113;-0.030543262138962746;-0.030543262138962746;-0.006108652334660292
01:00:0A:00:00:00:00;1723248153;10/08/24;00:02:33;1.019;-0.023;0.119;-0.03420845419168472;-0.012217304669320583;0.006108652334660292
01:00:0A:00:00:00:00;1723248154;10/08/24;00:02:34;1.02;-0.028;0.116;-0.02932153083384037;-0.0036651913542300463;0.0
01:00:0A:00:00:00:00;1723248155;10/08/24;00:02:35;1.014;-0.019;0.112;-0.02687807008624077;0.00855211354792118;0.0
01:00:0A:00:00:00:00;1723248156;10/08/24;00:02:36;1.007;-0.022;0.106;-0.03420845419168472;-0.0024434609804302454;0.009773843921720982
01:00:0A:00:00:00:00;1723248157;10/08/24;00:02:37;1.005;-0.027;0.104;-0.02687807008624077;-0.01710422709584236;-0.004886921960860491
01:00:0A:00:00:00:00;1723248158;10/08/24;00:02:38;1.006;-0.024;0.11;-0.02687807008624077;-0.025656338781118393;-0.0036651913542300463
01:00:0A:00:00:00:00;1723248159;10/08/24;00:02:39;1.014;-0.028;0.114;-0.030543262138962746;-0.024434609338641167;0.0073303827084600925
01:00:0A:00:00:00:00;1723248160;10/08/24;00:02:40;1.015;-0.028;0.113;-0.02321287989616394;-0.0073303827084600925;0.0012217304902151227
01:00:0A:00:00:00:00;1723248161;10/08/24;00:02:41;1.016;-0.02;0.115;-0.025656338781118393;-0.004886921960860491;0.006108652334660292
01:00:0A:00:00:00:00;1723248162;10/08/24;00:02:42;1.016;-0.024;0.11;-0.02687807008624077;-0.009773843921720982;0.010995574295520782
01:00:0A:00:00:00:00;1723248163;10/08/24;00:02:43;1.016;-0.024;0.111;-0.018325956538319588;-0.006108652334660292;-0.006108652334660292
01:00:0A:00:00:00:00;1723248164;10/08/24;00:02:44;1.011;-0.02;0.113;-0.02076941914856434;-0.009773843921720982;0.0012217304902151227
01:00:0A:00:00:00:00;1723248165;10/08/24;00:02:45;1.01;-0.028;0.11;-0.021991148591041565;-0.010995574295520782;0.0073303827084600925
01:00:0A:00:00:00:00;1723248166;10/08/24;00:02:46;1.01;-0.026;0.107;-0.013439035043120384;-0.0073303827084600925;-0.006108652334660292
01:00:0A:00:00:00:00;1723248167;10/08/24;00:02:47;1.011;-0.02;0.11;-0.019547687843441963;-0.018325956538319588;0.004886921960860491
01:00:0A:00:00:00:00;1723248168;10/08/24;00:02:48;1.014;-0.026;0.108;-0.02076941914856434;-0.025656338781118393;0.006108652334660292
01:00:0A:00:00:00:00;1723248169;10/08/24;00:02:49;1.016;-0.025;0.114;-0.010995574295520782;-0.013439035043120384;-0.00855211354792118
01:00:0A:00:00:00:00;1723248170;10/08/24;00:02:50;1.021;-0.021;0.121;-0.018325956538319588;-0.006108652334660292;0.0073303827084600925
01:00:0A:00:00:00:00;1723248171;10/08/24;00:02:51;1.013;-0.029;0.113;-0.019547687843441963;0.0024434609804302454;0.01710422709584236
01:00:0A:00:00:00:00;1723248172;10/08/24;00:02:52;1.002;-0.023;0.112;-0.009773843921720982;0.010995574295520782;0.0024434609804302454
01:00:0A:00:00:00:00;1723248173;10/08/24;00:02:53;0.996;-0.019;0.111;-0.01710422709584236;-0.02076941914856434;0.0073303827084600925
01:00:0A:00:00:00:00;1723248174;10/08/24;00:02:54;1.002;-0.027;0.108;-0.013439035043120384;-0.03420845419168472;-0.0073303827084600925
01:00:0A:00:00:00:00;1723248175;10/08/24;00:02:55;1.022;-0.027;0.121;-0.006108652334660292;-0.02321287989616394;-0.00855211354792118
01:00:0A:00:00:00:00;1723248176;10/08/24;00:02:56;1.029;-0.025;0.126;-0.013439035043120384;-0.0073303827084600925;0.006108652334660292
01:00:0A:00:00:00:00;1723248177;10/08/24;00:02:57;1.022;-0.033;0.113;-0.010995574295520782;0.0073303827084600925;0.012217304669320583
01:00:0A:00:00:00:00;1723248178;10/08/24;00:02:58;1.01;-0.024;0.114;-0.0024434609804302454;0.014660765416920185;0.0036651913542300463
01:00:0A:00:00:00:00;1723248179;10/08/24;00:02:59;0.994;-0.021;0.112;-0.012217304669320583;-0.01710422709584236;0.009773843921720982
01:00:0A:00:00:00:00;1723248180;10/08/24;00:03:00;0.994;-0.027;0.11;-0.0073303827084600925;-0.03176499158143997;-0.009773843921720982
01:00:0A:00:00:00:00;1723248181;10/08/24;00:03:01;1.008;-0.025;0.117;-0.0024434609804302454;-0.02932153083384037;-0.014660765416920185
01:00:0A:00:00:00:00;1723248182;10/08/24;00:03:02;1.028;-0.026;0.124;-0.012217304669320583;-0.019547687843441963;0.00855211354792118
01:00:0A:00:00:00:00;1723248183;10/08/24;00:03:03;1.031;-0.032;0.116;-0.0073303827084600925;-0.0036651913542300463;0.013439035043120384
01:00:0A:00:00:00:00;1723248184;10/08/24;00:03:04;1.015;-0.022;0.115;0.0;0.009773843921720982;0.0
01:00:0A:00:00:00:00;1723248185;10/08/24;00:03:05;1.001;-0.026;0.113;-0.010995574295520782;-0.015882495790719986;0.014660765416920185
01:00:0A:00:00:00:00;1723248186;10/08/24;00:03:06;0.995;-0.031;0.108;-0.0024434609804302454;-0.025656338781118393;-0.004886921960860491
01:00:0A:00:00:00:00;1723248187;10/08/24;00:03:07;1.004;-0.025;0.119;0.0;-0.018325956538319588;-0.0012217304902151227
01:00:0A:00:00:00:00;1723248188;10/08/24;00:03:08;1.023;-0.026;0.124;-0.009773843921720982;-0.014660765416920185;0.013439035043120384
01:00:0A:00:00:00:00;1723248189;10/08/24;00:03:09;1.028;-0.028;0.112;-0.0024434609804302454;0.0036651913542300463;0.006108652334660292
01:00:0A:00:00:00:00;1723248190;10/08/24;00:03:10;1.017;-0.017;0.115;0.0012217304902151227;0.0073303827084600925;-0.0024434609804302454
01:00:0A:00:00:00:00;1723248191;10/08/24;00:03:11;1.001;-0.027;0.114;-0.0073303827084600925;-0.01710422709584236;0.0073303827084600925
01:00:0A:00:00:00:00;1723248192;10/08/24;00:03:12;0.997;-0.032;0.111;0.0012217304902151227;-0.018325956538319588;-0.00855211354792118
01:00:0A:00:00:00:00;1723248193;10/08/24;00:03:13;1.0;-0.027;0.117;0.0;-0.021991148591041565;-0.0024434609804302454
01:00:0A:00:00:00:00;1723248194;10/08/24;00:03:14;1.012;-0.03;0.118;-0.00855211354792118;-0.028099799528717995;0.014660765416920185
01:00:0A:00:00:00:00;1723248195;10/08/24;00:03:15;1.027;-0.03;0.118;0.0012217304902151227;-0.004886921960860491;0.00855211354792118
01:00:0A:00:00:00:00;1723248196;10/08/24;00:03:16;1.027;-0.018;0.122;0.0;0.0036651913542300463;0.0073303827084600925
01:00:0A:00:00:00:00;1723248197;10/08/24;00:03:17;1.015;-0.025;0.113;-0.004886921960860491;-0.0036651913542300463;0.010995574295520782
01:00:0A:00:00:00:00;1723248198;10/08/24;00:03:18;1.001;-0.027;0.11;0.004886921960860491;-0.006108652334660292;-0.006108652334660292
01:00:0A:00:00:00:00;1723248199;10/08/24;00:03:19;0.999;-0.024;0.115;-0.0012217304902151227;-0.009773843921720982;0.0012217304902151227
01:00:0A:00:00:00:00;1723248200;10/08/24;00:03:20;1.006;-0.028;0.112;-0.0073303827084600925;-0.021991148591041565;0.012217304669320583
01:00:0A:00:00:00:00;1723248201;10/08/24;00:03:21;1.012;-0.023;0.107;0.0012217304902151227;-0.014660765416920185;-0.0012217304902151227
01:00:0A:00:00:00:00;1723248202;10/08/24;00:03:22;1.018;-0.014;0.113;-0.004886921960860491;-0.018325956538319588;0.0024434609804302454
01:00:0A:00:00:00:00;1723248203;10/08/24;00:03:23;1.021;-0.026;0.112;-0.0073303827084600925;-0.02076941914856434;0.004886921960860491
01:00:0A:00:00:00:00;1723248204;10/08/24;00:03:24;1.016;-0.026;0.115;-0.0012217304902151227;-0.006108652334660292;-0.006108652334660292
01:00:0A:00:00:00:00;1723248205;10/08/24;00:03:25;1.008;-0.021;0.117;-0.009773843921720982;0.0;0.010995574295520782
01:00:0A:00:00:00:00;1723248206;10/08/24;00:03:26;1.006;-0.028;0.11;-0.012217304669320583;-0.010995574295520782;0.014660765416920185
01:00:0A:00:00:00:00;1723248207;10/08/24;00:03:27;1.007;-0.021;0.11;-0.004886921960860491;-0.0024434609804302454;-0.0036651913542300463
01:00:0A:00:00:00:00;1723248208;10/08/24;00:03:28;1.01;-0.018;0.114;-0.015882495790719986;-0.013439035043120384;0.006108652334660292
01:00:0A:00:00:00:00;1723248209;10/08/24;00:03:29;1.012;-0.026;0.108;-0.014660765416920185;-0.024434609338641167;0.0012217304902151227
01:00:0A:00:00:00:00;1723248210;10/08/24;00:03:30;1.01;-0.02;0.112;-0.00855211354792118;-0.009773843921720982;-0.009773843921720982
01:00:0A:00:00:00:00;1723248211;10/08/24;00:03:31;1.012;-0.023;0.116;-0.018325956538319588;-0.021991148591041565;0.004886921960860491
01:00:0A:00:00:00:00;1723248212;10/08/24;00:03:32;1.016;-0.029;0.111;-0.015882495790719986;-0.021991148591041565;0.0024434609804302454
01:00:0A:00:00:00:00;1723248213;10/08/24;00:03:33;1.017;-0.021;0.115;-0.012217304669320583;-0.0036651913542300463;-0.0012217304902151227
01:00:0A:00:00:00:00;1723248214;10/08/24;00:03:34;1.016;-0.022;0.117;-0.02076941914856434;-0.010995574295520782;0.00855211354792118
01:00:0A:00:00:00:00;1723248215;10/08/24;00:03:35;1.016;-0.027;0.11;-0.01710422709584236;-0.00855211354792118;0.0012217304902151227
01:00:0A:00:00:00:00;1723248216;10/08/24;00:03:36;1.01;-0.023;0.112;-0.013439035043120384;0.0;-0.0024434609804302454
01:00:0A:00:00:00:00;1723248217;10/08/24;00:03:37;1.007;-0.023;0.115;-0.02321287989616394;-0.015882495790719986;0.010995574295520782
01:00:0A:00:00:00:00;1723248218;10/08/24;00:03:38;1.007;-0.025;0.109;-0.01710422709584236;-0.014660765416920185;0.0
01:00:0A:00:00:00:00;1723248219;10/08/24;00:03:39;1.01;-0.018;0.115;-0.01710422709584236;-0.006108652334660292;-0.004886921960860491
01:00:0A:00:00:00:00;1723248220;10/08/24;00:03:40;1.014;-0.023;0.116;-0.024434609338641167;-0.021991148591041565;0.0012217304902151227
01:00:0A:00:00:00:00;1723248221;10/08/24;00:03:41;1.016;-0.026;0.107;-0.018325956538319588;-0.018325956538319588;-0.0036651913542300463
01:00:0A:00:00:00:00;1723248222;10/08/24;00:03:42;1.016;-0.023;0.117;-0.019547687843441963;-0.0073303827084600925;0.0036651913542300463
01:00:0A:00:00:00:00;1723248223;10/08/24;00:03:43;1.016;-0.024;0.116;-0.02687807008624077;-0.012217304669320583;0.014660765416920185
01:00:0A:00:00:00:00;1723248224;10/08/24;00:03:44;1.016;-0.025;0.109;-0.02076941914856434;-0.0012217304902151227;0.0073303827084600925
01:00:0A:00:00:00:00;1723248225;10/08/24;00:03:45;1.01;-0.019;0.114;-0.02076941914856434;0.0036651913542300463;0.0012217304902151227
01:00:0A:00:00:00:00;1723248226;10/08/24;00:03:46;1.009;-0.021;0.11;-0.025656338781118393;-0.013439035043120384;0.0012217304902151227
01:00:0A:00:00:00:00;1723248227;10/08/24;00:03:47;1.003;-0.022;0.108;-0.018325956538319588;-0.006108652334660292;-0.00855211354792118
01:00:0A:00:00:00:00;1723248228;10/08/24;00:03:48;1.003;-0.024;0.113;-0.021991148591041565;-0.013439035043120384;-0.0036651913542300463
01:00:0A:00:00:00:00;1723248229;10/08/24;00:03:49;1.014;-0.028;0.112;-0.02687807008624077;-0.036651913076639175;-0.0012217304902151227
01:00:0A:00:00:00:00;1723248230;10/08/24;00:03:50;1.02;-0.025;0.114;-0.021991148591041565;-0.015882495790719986;-0.0012217304902151227
01:00:0A:00:00:00:00;1723248231;10/08/24;00:03:51;1.026;-0.023;0.124;-0.024434609338641167;0.0024434609804302454;0.012217304669320583
01:00:0A:00:00:00:00;1723248232;10/08/24;00:03:52;1.022;-0.026;0.115;-0.025656338781118393;-0.0012217304902151227;0.009773843921720982
01:00:0A:00:00:00:00;1723248233;10/08/24;00:03:53;1.005;-0.022;0.109;-0.02076941914856434;0.004886921960860491;0.0024434609804302454
01:00:0A:00:00:00:00;1723248234;10/08/24;00:03:54;0.995;-0.023;0.112;-0.025656338781118393;-0.015882495790719986;0.0036651913542300463
01:00:0A:00:00:00:00;1723248235;10/08/24;00:03:55;0.998;-0.026;0.111;-0.025656338781118393;-0.03176499158143997;-0.006108652334660292
01:00:0A:00:00:00:00;1723248236;10/08/24;00:03:56;1.016;-0.026;0.115;-0.021991148591041565;-0.021991148591041565;-0.00855211354792118
01:00:0A:00:00:00:00;1723248237;10/08/24;00:03:57;1.025;-0.027;0.125;-0.02687807008624077;-0.01710422709584236;0.0024434609804302454
01:00:0A:00:00:00:00;1723248238;10/08/24;00:03:58;1.027;-0.029;0.118;-0.02687807008624077;-0.004886921960860491;0.009773843921720982
01:00:0A:00:00:00:00;1723248239;10/08/24;00:03:59;1.017;-0.025;0.115;-0.025656338781118393;0.012217304669320583;0.00855211354792118
01:00:0A:00:00:00:00;1723248240;10/08/24;00:04:00;1.0;-0.023;0.113;-0.030543262138962746;-0.0012217304902151227;0.013439035043120384
01:00:0A:00:00:00:00;1723248241;10/08/24;00:04:01;0.999;-0.023;0.108;-0.02687807008624077;-0.03176499158143997;-0.009773843921720982
01:00:0A:00:00:00:00;1723248242;10/08/24;00:04:02;1.006;-0.021;0.111;-0.025656338781118393;-0.02076941914856434;-0.012217304669320583
01:00:0A:00:00:00:00;1723248243;10/08/24;00:04:03;1.022;-0.029;0.123;-0.030543262138962746;-0.019547687843441963;-0.0036651913542300463
01:00:0A:00:00:00:00;1723248244;10/08/24;00:04:04;1.027;-0.03;0.117;-0.030543262138962746;-0.0073303827084600925;-0.0012217304902151227
01:00:0A:00:00:00:00;1723248245;10/08/24;00:04:05;1.018;-0.025;0.114;-0.03176499158143997;0.009773843921720982;0.012217304669320583
01:00:0A:00:00:00:00;1723248246;10/08/24;00:04:06;1.008;-0.026;0.115;-0.036651913076639175;-0.0012217304902151227;0.013439035043120384
01:00:0A:00:00:00:00;1723248247;10/08/24;00:04:07;0.999;-0.021;0.109;-0.03298672288656235;-0.015882495790719986;-0.0012217304902151227
01:00:0A:00:00:00:00;1723248248;10/08/24;00:04:08;0.999;-0.019;0.115;-0.03420845419168472;-0.010995574295520782;-0.0024434609804302454
01:00:0A:00:00:00:00;1723248249;10/08/24;00:04:09;1.015;-0.025;0.12;-0.0354301817715168;-0.025656338781118393;-0.010995574295520782
01:00:0A:00:00:00:00;1723248250;10/08/24;00:04:10;1.025;-0.027;0.113;-0.03420845419168472;-0.012217304669320583;-0.006108652334660292
01:00:0A:00:00:00:00;1723248251;10/08/24;00:04:11;1.023;-0.026;0.117;-0.03787364438176155;0.0036651913542300463;0.0073303827084600925
01:00:0A:00:00:00:00;1723248252;10/08/24;00:04:12;1.012;-0.027;0.116;-0.040317103266716;-0.004886921960860491;0.013439035043120384
01:00:0A:00:00:00:00;1723248253;10/08/24;00:04:13;1.005;-0.02;0.111;-0.03787364438176155;-0.010995574295520782;0.004886921960860491
01:00:0A:00:00:00:00;1723248254;10/08/24;00:04:14;1.002;-0.019;0.112;-0.039095375686883926;-0.009773843921720982;0.0
01:00:0A:00:00:00:00;1723248255;10/08/24;00:04:15;1.004;-0.024;0.115;-0.03787364438176155;-0.019547687843441963;-0.010995574295520782
01:00:0A:00:00:00:00;1723248256;10/08/24;00:04:16;1.016;-0.023;0.112;-0.03787364438176155;-0.014660765416920185;-0.006108652334660292
01:00:0A:00:00:00:00;1723248257;10/08/24;00:04:17;1.019;-0.025;0.113;-0.040317103266716;-0.00855211354792118;0.006108652334660292
01:00:0A:00:00:00:00;1723248258;10/08/24;00:04:18;1.017;-0.027;0.115;-0.039095375686883926;-0.012217304669320583;0.0036651913542300463
01:00:0A:00:00:00:00;1723248259;10/08/24;00:04:19;1.01;-0.021;0.111;-0.039095375686883926;-0.012217304669320583;0.0024434609804302454
01:00:0A:00:00:00:00;1723248260;10/08/24;00:04:20;1.009;-0.023;0.115;-0.042760565876960754;-0.006108652334660292;0.00855211354792118
01:00:0A:00:00:00:00;1723248261;10/08/24;00:04:21;1.008;-0.025;0.114;-0.036651913076639175;-0.013439035043120384;-0.0073303827084600925
01:00:0A:00:00:00:00;1723248262;10/08/24;00:04:22;1.011;-0.019;0.109;-0.03787364438176155;-0.0073303827084600925;-0.006108652334660292
01:00:0A:00:00:00:00;1723248263;10/08/24;00:04:23;1.015;-0.027;0.111;-0.040317103266716;-0.012217304669320583;0.0
01:00:0A:00:00:00:00;1723248264;10/08/24;00:04:24;1.016;-0.026;0.111;-0.036651913076639175;-0.02076941914856434;-0.0073303827084600925
01:00:0A:00:00:00:00;1723248265;10/08/24;00:04:25;1.016;-0.02;0.112;-0.040317103266716;-0.014660765416920185;0.0036651913542300463
01:00:0A:00:00:00:00;1723248266;10/08/24;00:04:26;1.013;-0.026;0.115;-0.04153883829712868;-0.010995574295520782;0.006108652334660292
01:00:0A:00:00:00:00;1723248267;10/08/24;00:04:27;1.014;-0.022;0.115;-0.0354301817715168;-0.010995574295520782;-0.0073303827084600925
01:00:0A:00:00:00:00;1723248268;10/08/24;00:04:28;1.012;-0.02;0.112;-0.040317103266716;-0.004886921960860491;0.004886921960860491
01:00:0A:00:00:00:00;1723248269;10/08/24;00:04:29;1.012;-0.026;0.112;-0.040317103266716;-0.00855211354792118;0.006108652334660292
01:00:0A:00:00:00:00;1723248270;10/08/24;00:04:30;1.011;-0.022;0.111;-0.03420845419168472;-0.015882495790719986;-0.00855211354792118
01:00:0A:00:00:00:00;1723248271;10/08/24;00:04:31;1.009;-0.022;0.112;-0.040317103266716;-0.014660765416920185;0.0024434609804302454
01:00:0A:00:00:00:00;1723248272;10/08/24;00:04:32;1.011;-0.029;0.115;-0.03787364438176155;-0.012217304669320583;0.0012217304902151227
01:00:0A:00:00:00:00;1723248273;10/08/24;00:04:33;1.013;-0.023;0.115;-0.03420845419168472;-0.013439035043120384;-0.0073303827084600925
01:00:0A:00:00:00:00;1723248274;10/08/24;00:04:34;1.017;-0.021;0.114;-0.040317103266716;-0.006108652334660292;0.0073303827084600925
01:00:0A:00:00:00:00;1723248275;10/08/24;00:04:35;1.015;-0.028;0.112;-0.0354301817715168;-0.004886921960860491;0.0012217304902151227
01:00:0A:00:00:00:00;1723248276;10/08/24;00:04:36;1.01;-0.021;0.111;-0.03298672288656235;-0.010995574295520782;-0.006108652334660292
01:00:0A:00:00:00:00;1723248277;10/08/24;00:04:37;1.011;-0.021;0.113;-0.040317103266716;-0.013439035043120384;0.00855211354792118
01:00:0A:00:00:00:00;1723248278;10/08/24;00:04:38;1.012;-0.027;0.115;-0.03420845419168472;-0.00855211354792118;0.0
01:00:0A:00:00:00:00;1723248279;10/08/24;00:04:39;1.013;-0.02;0.113;-0.03298672288656235;-0.0073303827084600925;-0.0036651913542300463
01:00:0A:00:00:00:00;1723248280;10/08/24;00:04:40;1.013;-0.023;0.111;-0.040317103266716;-0.00855211354792118;0.010995574295520782
01:00:0A:00:00:00:00;1723248281;10/08/24;00:04:41;1.014;-0.027;0.11;-0.03298672288656235;-0.009773843921720982;-0.0036651913542300463
01:00:0A:00:00:00:00;1723248282;10/08/24;00:04:42;1.014;-0.019;0.113;-0.03420845419168472;-0.013439035043120384;-0.006108652334660292
01:00:0A:00:00:00:00;1723248283;10/08/24;00:04:43;1.011;-0.025;0.113;-0.040317103266716;-0.015882495790719986;0.0073303827084600925
01:00:0A:00:00:00:00;1723248284;10/08/24;00:04:44;1.01;-0.029;0.113;-0.03298672288656235;-0.0073303827084600925;-0.0024434609804302454
01:00:0A:00:00:00:00;1723248285;10/08/24;00:04:45;1.012;-0.021;0.115;-0.0354301817715168;-0.0073303827084600925;0.0036651913542300463
01:00:0A:00:00:00:00;1723248286;10/08/24;00:04:46;1.014;-0.024;0.111;-0.040317103266716;-0.010995574295520782;0.013439035043120384
01:00:0A:00:00:00:00;1723248287;10/08/24;00:04:47;1.013;-0.022;0.108;-0.03176499158143997;-0.006108652334660292;-0.004886921960860491
01:00:0A:00:00:00:00;1723248288;10/08/24;00:04:48;1.01;-0.017;0.113;-0.0354301817715168;-0.01710422709584236;-0.006108652334660292
01:00:0A:00:00:00:00;1723248289;10/08/24;00:04:49;1.011;-0.025;0.11;-0.039095375686883926;-0.019547687843441963;0.0
01:00:0A:00:00:00:00;1723248290;10/08/24;00:04:50;1.012;-0.027;0.113;-0.03176499158143997;-0.009773843921720982;-0.009773843921720982
01:00:0A:00:00:00:00;1723248291;10/08/24;00:04:51;1.012;-0.021;0.117;-0.03787364438176155;-0.010995574295520782;0.004886921960860491
01:00:0A:00:00:00:00;1723248292;10/08/24;00:04:52;1.014;-0.025;0.109;-0.040317103266716;-0.010995574295520782;0.009773843921720982
01:00:0A:00:00:00:00;1723248293;10/08/24;00:04:53;1.016;-0.021;0.11;-0.03176499158143997;-0.0073303827084600925;-0.0073303827084600925
01:00:0A:00:00:00:00;1723248294;10/08/24;00:04:54;1.014;-0.018;0.114;-0.03787364438176155;-0.015882495790719986;-0.0024434609804302454
01:00:0A:00:00:00:00;1723248295;10/08/24;00:04:55;1.012;-0.029;0.11;-0.03787364438176155;-0.01710422709584236;0.0
01:00:0A:00:00:00:00;1723248296;10/08/24;00:04:56;1.01;-0.026;0.113;-0.03176499158143997;-0.004886921960860491;-0.0073303827084600925
01:00:0A:00:00:00:00;1723248297;10/08/24;00:04:57;1.01;-0.024;0.116;-0.040317103266716;-0.015882495790719986;0.009773843921720982
01:00:0A:00:00:00:00;1723248298;10/08/24;00:04:58;1.014;-0.027;0.11;-0.039095375686883926;-0.012217304669320583;0.00855211354792118
01:00:0A:00:00:00:00;1723248299;10/08/24;00:04:59;1.015;-0.02;0.113;-0.03298672288656235;-0.0012217304902151227;-0.0024434609804302454
01:00:0A:00:00:00:00;1723248300;10/08/24;00:05:00;1.014;-0.018;0.115;-0.039095375686883926;-0.014660765416920185;0.0
01:00:0A:00:00:00:00;1723248301;10/08/24;00:05:01;1.012;-0.026;0.109;-0.0354301817715168;-0.010995574295520782;-0.0073303827084600925
01:00:0A:00:00:00:00;1723248302;10/08/24;00:05:02;1.011;-0.026;0.113;-0.03176499158143997;-0.0036651913542300463;-0.004886921960860491
01:00:0A:00:00:00:00;1723248303;10/08/24;00:05:03;1.01;-0.028;0.114;-0.040317103266716;-0.02076941914856434;0.00855211354792118
01:00:0A:00:00:00:00;1723248304;10/08/24;00:05:04;1.012;-0.027;0.109;-0.036651913076639175;-0.014660765416920185;0.00855211354792118
01:00:0A:00:00:00:00;1723248305;10/08/24;00:05:05;1.014;-0.02;0.117;-0.03420845419168472;-0.0073303827084600925;0.004886921960860491
01:00:0A:00:00:00:00;1723248306;10/08/24;00:05:06;1.016;-0.022;0.117;-0.03787364438176155;-0.01710422709584236;0.0024434609804302454
01:00:0A:00:00:00:00;1723248307;10/08/24;00:05:07;1.015;-0.024;0.109;-0.03176499158143997;-0.006108652334660292;-0.0036651913542300463
01:00:0A:00:00:00:00;1723248308;10/08/24;00:05:08;1.01;-0.024;0.115;-0.030543262138962746;0.0012217304902151227;-0.0036651913542300463
01:00:0A:00:00:00:00;1723248309;10/08/24;00:05:09;1.008;-0.026;0.112;-0.036651913076639175;-0.02076941914856434;0.006108652334660292
01:00:0A:00:00:00:00;1723248310;10/08/24;00:05:10;1.011;-0.025;0.108;-0.03176499158143997;-0.010995574295520782;0.0036651913542300463
01:00:0A:00:00:00:00;1723248311;10/08/24;00:05:11;1.015;-0.021;0.117;-0.03176499158143997;-0.006108652334660292;0.0024434609804302454
01:00:0A:00:00:00:00;1723248312;10/08/24;00:05:12;1.014;-0.023;0.114;-0.03298672288656235;-0.019547687843441963;0.0
01:00:0A:00:00:00:00;1723248313;10/08/24;00:05:13;1.013;-0.024;0.11;-0.028099799528717995;-0.004886921960860491;-0.006108652334660292
01:00:0A:00:00:00:00;1723248314;10/08/24;00:05:14;1.012;-0.024;0.115;-0.028099799528717995;-0.004886921960860491;-0.0024434609804302454
01:00:0A:00:00:00:00;1723248315;10/08/24;00:05:15;1.012;-0.026;0.111;-0.030543262138962746;-0.024434609338641167;0.0012217304902151227
01:00:0A:00:00:00:00;1723248316;10/08/24;00:05:16;1.012;-0.024;0.109;-0.02687807008624077;-0.010995574295520782;0.0024434609804302454
01:00:0A:00:00:00:00;1723248317;10/08/24;00:05:17;1.014;-0.024;0.119;-0.028099799528717995;-0.010995574295520782;0.004886921960860491
01:00:0A:00:00:00:00;1723248318;10/08/24;00:05:18;1.016;-0.024;0.113;-0.028099799528717995;-0.018325956538319588;0.0
01:00:0A:00:00:00:00;1723248319;10/08/24;00:05:19;1.014;-0.022;0.11;-0.02321287989616394;0.0012217304902151227;0.0
01:00:0A:00:00:00:00;1723248320;10/08/24;00:05:20;1.008;-0.025;0.115;-0.024434609338641167;-0.0036651913542300463;0.0
01:00:0A:00:00:00:00;1723248321;10/08/24;00:05:21;1.008;-0.025;0.108;-0.024434609338641167;-0.019547687843441963;-0.004886921960860491
01:00:0A:00:00:00:00;1723248322;10/08/24;00:05:22;1.01;-0.023;0.108;-0.02321287989616394;-0.00855211354792118;0.0024434609804302454
01:00:0A:00:00:00:00;1723248323;10/08/24;00:05:23;1.014;-0.024;0.118;-0.024434609338641167;-0.01710422709584236;0.0024434609804302454
01:00:0A:00:00:00:00;1723248324;10/08/24;00:05:24;1.016;-0.024;0.112;-0.021991148591041565;-0.019547687843441963;-0.0012217304902151227
01:00:0A:00:00:00:00;1723248325;10/08/24;00:05:25;1.016;-0.023;0.113;-0.021991148591041565;0.0;0.004886921960860491
01:00:0A:00:00:00:00;1723248326;10/08/24;00:05:26;1.012;-0.026;0.117;-0.021991148591041565;-0.0073303827084600925;0.0036651913542300463
01:00:0A:00:00:00:00;1723248327;10/08/24;00:05:27;1.013;-0.021;0.108;-0.02076941914856434;-0.01710422709584236;-0.0024434609804302454
01:00:0A:00:00:00:00;1723248328;10/08/24;00:05:28;1.014;-0.021;0.112;-0.021991148591041565;-0.004886921960860491;0.0073303827084600925
01:00:0A:00:00:00:00;1723248329;10/08/24;00:05:29;1.012;-0.026;0.117;-0.02076941914856434;-0.013439035043120384;0.0024434609804302454
01:00:0A:00:00:00:00;1723248330;10/08/24;00:05:30;1.013;-0.021;0.111;-0.019547687843441963;-0.014660765416920185;-0.0012217304902151227
01:00:0A:00:00:00:00;1723248331;10/08/24;00:05:31;1.011;-0.022;0.112;-0.02076941914856434;0.0012217304902151227;0.0073303827084600925
01:00:0A:00:00:00:00;1723248332;10/08/24;00:05:32;1.008;-0.026;0.114;-0.019547687843441963;-0.013439035043120384;-0.0012217304902151227
01:00:0A:00:00:00:00;1723248333;10/08/24;00:05:33;1.009;-0.022;0.108;-0.018325956538319588;-0.02076941914856434;-0.0036651913542300463
01:00:0A:00:00:00:00;1723248334;10/08/24;00:05:34;1.012;-0.025;0.113;-0.02076941914856434;-0.010995574295520782;0.00855211354792118
01:00:0A:00:00:00:00;1723248335;10/08/24;00:05:35;1.017;-0.027;0.118;-0.018325956538319588;-0.018325956538319588;0.0
01:00:0A:00:00:00:00;1723248336;10/08/24;00:05:36;1.019;-0.02;0.112;-0.01710422709584236;-0.012217304669320583;0.0012217304902151227
01:00:0A:00:00:00:00;1723248337;10/08/24;00:05:37;1.014;-0.025;0.116;-0.019547687843441963;0.0024434609804302454;0.010995574295520782
01:00:0A:00:00:00:00;1723248338;10/08/24;00:05:38;1.007;-0.026;0.113;-0.01710422709584236;-0.010995574295520782;0.0
01:00:0A:00:00:00:00;1723248339;10/08/24;00:05:39;1.006;-0.019;0.106;-0.01710422709584236;-0.013439035043120384;0.0
01:00:0A:00:00:00:00;1723248340;10/08/24;00:05:40;1.009;-0.024;0.111;-0.019547687843441963;-0.010995574295520782;0.0073303827084600925
01:00:0A:00:00:00:00;1723248341;10/08/24;00:05:41;1.012;-0.026;0.115;-0.014660765416920185;-0.02076941914856434;-0.006108652334660292
01:00:0A:00:00:00:00;1723248342;10/08/24;00:05:42;1.016;-0.021;0.11;-0.01710422709584236;-0.013439035043120384;0.0024434609804302454
01:00:0A:00:00:00:00;1723248343;10/08/24;00:05:43;1.014;-0.027;0.115;-0.019547687843441963;-0.0036651913542300463;0.010995574295520782
01:00:0A:00:00:00:00;1723248344;10/08/24;00:05:44;1.01;-0.025;0.112;-0.013439035043120384;-0.012217304669320583;-0.0036651913542300463
01:00:0A:00:00:00:00;1723248345;10/08/24;00:05:45;1.01;-0.02;0.109;-0.015882495790719986;-0.012217304669320583;0.0012217304902151227
01:00:0A:00:00:00:00;1723248346;10/08/24;00:05:46;1.012;-0.027;0.113;-0.018325956538319588;-0.010995574295520782;0.004886921960860491
01:00:0A:00:00:00:00;1723248347;10/08/24;00:05:47;1.016;-0.025;0.115;-0.013439035043120384;-0.01710422709584236;-0.006108652334660292
01:00:0A:00:00:00:00;1723248348;10/08/24;00:05:48;1.019;-0.02;0.112;-0.01710422709584236;-0.00855211354792118;0.0036651913542300463
01:00:0A:00:00:00:00;1723248349;10/08/24;00:05:49;1.014;-0.029;0.115;-0.01710422709584236;0.0;0.009773843921720982
01:00:0A:00:00:00:00;1723248350;10/08/24;00:05:50;1.009;-0.023;0.112;-0.012217304669320583;-0.009773843921720982;-0.0036651913542300463
01:00:0A:00:00:00:00;1723248351;10/08/24;00:05:51;1.003;-0.019;0.108;-0.018325956538319588;-0.012217304669320583;0.006108652334660292
01:00:0A:00:00:00:00;1723248352;10/08/24;00:05:52;1.006;-0.026;0.112;-0.01710422709584236;-0.013439035043120384;0.0036651913542300463
01:00:0A:00:00:00:00;1723248353;10/08/24;00:05:53;1.013;-0.024;0.113;-0.012217304669320583;-0.02321287989616394;-0.009773843921720982
01:00:0A:00:00:00:00;1723248354;10/08/24;00:05:54;1.019;-0.021;0.113;-0.018325956538319588;-0.012217304669320583;0.0073303827084600925
01:00:0A:00:00:00:00;1723248355;10/08/24;00:05:55;1.019;-0.03;0.117;-0.01710422709584236;-0.004886921960860491;0.00855211354792118
01:00:0A:00:00:00:00;1723248356;10/08/24;00:05:56;1.014;-0.022;0.114;-0.012217304669320583;-0.0073303827084600925;-0.0036651913542300463
01:00:0A:00:00:00:00;1723248357;10/08/24;00:05:57;1.01;-0.021;0.111;-0.019547687843441963;-0.006108652334660292;0.009773843921720982
01:00:0A:00:00:00:00;1723248358;10/08/24;00:05:58;1.007;-0.029;0.113;-0.015882495790719986;-0.0073303827084600925;0.0024434609804302454
01:00:0A:00:00:00:00;1723248359;10/08/24;00:05:59;1.01;-0.022;0.111;-0.012217304669320583;-0.01710422709584236;-0.006108652334660292
01:00:0A:00:00:00:00;1723248360;10/08/24;00:06:00;1.015;-0.022;0.111;-0.019547687843441963;-0.010995574295520782;0.009773843921720982
01:00:0A:00:00:00:00;1723248361;10/08/24;00:06:01;1.015;-0.03;0.114;-0.014660765416920185;-0.00855211354792118;0.0024434609804302454
01:00:0A:00:00:00:00;1723248362;10/08/24;00:06:02;1.012;-0.019;0.112;-0.012217304669320583;-0.013439035043120384;-0.0024434609804302454
01:00:0A:00:00:00:00;1723248363;10/08/24;00:06:03;1.009;-0.022;0.112;-0.019547687843441963;-0.012217304669320583;0.012217304669320583
01:00:0A:00:00:00:00;1723248364;10/08/24;00:06:04;1.009;-0.027;0.115;-0.012217304669320583;-0.010995574295520782;-0.0024434609804302454
01:00:0A:00:00:00:00;1723248365;10/08/24;00:06:05;1.013;-0.021;0.114;-0.012217304669320583;-0.014660765416920185;-0.006108652334660292
01:00:0A:00:00:00:00;1723248366;10/08/24;00:06:06;1.016;-0.024;0.112;-0.018325956538319588;-0.009773843921720982;0.009773843921720982
01:00:0A:00:00:00:00;1723248367;10/08/24;00:06:07;1.017;-0.029;0.113;-0.012217304669320583;-0.0073303827084600925;0.0012217304902151227
01:00:0A:00:00:00:00;1723248368;10/08/24;00:06:08;1.016;-0.018;0.113;-0.013439035043120384;-0.009773843921720982;0.0
01:00:0A:00:00:00:00;1723248369;10/08/24;00:06:09;1.009;-0.025;0.111;-0.018325956538319588;-0.00855211354792118;0.012217304669320583
01:00:0A:00:00:00:00;1723248370;10/08/24;00:06:10;1.008;-0.026;0.112;-0.00855211354792118;-0.00855211354792118;-0.004886921960860491
01:00:0A:00:00:00:00;1723248371;10/08/24;00:06:11;1.008;-0.019;0.113;-0.012217304669320583;-0.015882495790719986;-0.0012217304902151227
01:00:0A:00:00:00:00;1723248372;10/08/24;00:06:12;1.013;-0.025;0.109;-0.01710422709584236;-0.012217304669320583;0.010995574295520782
01:00:0A:00:00:00:00;1723248373;10/08/24;00:06:13;1.015;-0.026;0.112;-0.0073303827084600925;-0.010995574295520782;-0.006108652334660292
01:00:0A:00:00:00:00;1723248374;10/08/24;00:06:14;1.014;-0.019;0.113;-0.012217304669320583;-0.015882495790719986;0.0
01:00:0A:00:00:00:00;1723248375;10/08/24;00:06:15;1.013;-0.025;0.112;-0.015882495790719986;-0.013439035043120384;0.010995574295520782
01:00:0A:00:00:00:00;1723248376;10/08/24;00:06:16;1.014;-0.026;0.115;-0.0073303827084600925;-0.00855211354792118;-0.004886921960860491
01:00:0A:00:00:00:00;1723248377;10/08/24;00:06:17;1.012;-0.019;0.115;-0.013439035043120384;-0.010995574295520782;0.0036651913542300463
01:00:0A:00:00:00:00;1723248378;10/08/24;00:06:18;1.013;-0.027;0.11;-0.014660765416920185;-0.00855211354792118;0.010995574295520782
01:00:0A:00:00:00:00;1723248379;10/08/24;00:06:19;1.013;-0.025;0.112;-0.0073303827084600925;-0.0073303827084600925;-0.004886921960860491
01:00:0A:00:00:00:00;1723248380;10/08/24;00:06:20;1.012;-0.019;0.112;-0.013439035043120384;-0.015882495790719986;0.004886921960860491
01:00:0A:00:00:00:00;1723248381;10/08/24;00:06:21;1.012;-0.026;0.112;-0.014660765416920185;-0.012217304669320583;0.0073303827084600925
01:00:0A:00:00:00:00;1723248382;10/08/24;00:06:22;1.01;-0.023;0.114;-0.006108652334660292;-0.00855211354792118;-0.0073303827084600925
01:00:0A:00:00:00:00;1723248383;10/08/24;00:06:23;1.012;-0.02;0.115;-0.013439035043120384;-0.013439035043120384;0.006108652334660292
01:00:0A:00:00:00:00;1723248384;10/08/24;00:06:24;1.014;-0.027;0.111;-0.012217304669320583;-0.009773843921720982;0.0073303827084600925
01:00:0A:00:00:00:00;1723248385;10/08/24;00:06:25;1.015;-0.023;0.113;-0.006108652334660292;-0.0073303827084600925;-0.006108652334660292
01:00:0A:00:00:00:00;1723248386;10/08/24;00:06:26;1.014;-0.021;0.112;-0.013439035043120384;-0.015882495790719986;0.0073303827084600925
01:00:0A:00:00:00:00;1723248387;10/08/24;00:06:27;1.012;-0.028;0.11;-0.010995574295520782;-0.012217304669320583;0.004886921960860491
01:00:0A:00:00:00:00;1723248388;10/08/24;00:06:28;1.012;-0.023;0.115;-0.004886921960860491;-0.0073303827084600925;-0.0036651913542300463
01:00:0A:00:00:00:00;1723248389;10/08/24;00:06:29;1.012;-0.022;0.115;-0.014660765416920185;-0.010995574295520782;0.012217304669320583
01:00:0A:00:00:00:00;1723248390;10/08/24;00:06:30;1.012;-0.027;0.109;-0.009773843921720982;-0.0073303827084600925;0.006108652334660292
01:00:0A:00:00:00:00;1723248391;10/08/24;00:06:31;1.013;-0.019;0.113;-0.004886921960860491;-0.0073303827084600925;-0.004886921960860491
01:00:0A:00:00:00:00;1723248392;10/08/24;00:06:32;1.012;-0.02;0.112;-0.013439035043120384;-0.018325956538319588;0.006108652334660292
01:00:0A:00:00:00:00;1723248393;10/08/24;00:06:33;1.012;-0.028;0.11;-0.0073303827084600925;-0.012217304669320583;-0.0012217304902151227
01:00:0A:00:00:00:00;1723248394;10/08/24;00:06:34;1.011;-0.022;0.116;-0.004886921960860491;-0.006108652334660292;-0.0036651913542300463
01:00:0A:00:00:00:00;1723248395;10/08/24;00:06:35;1.011;-0.023;0.113;-0.013439035043120384;-0.013439035043120384;0.012217304669320583
01:00:0A:00:00:00:00;1723248396;10/08/24;00:06:36;1.013;-0.027;0.109;-0.006108652334660292;-0.006108652334660292;0.0036651913542300463
01:00:0A:00:00:00:00;1723248397;10/08/24;00:06:37;1.014;-0.02;0.113;-0.004886921960860491;-0.0073303827084600925;-0.0024434609804302454
01:00:0A:00:00:00:00;1723248398;10/08/24;00:06:38;1.013;-0.022;0.111;-0.012217304669320583;-0.018325956538319588;0.0073303827084600925
01:00:0A:00:00:00:00;1723248399;10/08/24;00:06:39;1.012;-0.028;0.11;-0.004886921960860491;-0.010995574295520782;-0.0024434609804302454
01:00:0A:00:00:00:00;1723248400;10/08/24;00:06:40;1.012;-0.021;0.117;-0.004886921960860491;-0.00855211354792118;-0.0012217304902151227
01:00:0A:00:00:00:00;1723248401;10/08/24;00:06:41;1.012;-0.025;0.113;-0.012217304669320583;-0.013439035043120384;0.013439035043120384
01:00:0A:00:00:00:00;1723248402;10/08/24;00:06:42;1.013;-0.027;0.11;-0.004886921960860491;-0.0036651913542300463;0.0012217304902151227
01:00:0A:00:00:00:00;1723248403;10/08/24;00:06:43;1.013;-0.019;0.112;-0.006108652334660292;-0.009773843921720982;0.0
01:00:0A:00:00:00:00;1723248404;10/08/24;00:06:44;1.013;-0.023;0.11;-0.010995574295520782;-0.019547687843441963;0.006108652334660292
01:00:0A:00:00:00:00;1723248405;10/08/24;00:06:45;1.013;-0.026;0.111;-0.0024434609804302454;-0.009773843921720982;-0.006108652334660292
01:00:0A:00:00:00:00;1723248406;10/08/24;00:06:46;1.013;-0.023;0.116;-0.006108652334660292;-0.009773843921720982;0.0024434609804302454
01:00:0A:00:00:00:00;1723248407;10/08/24;00:06:47;1.012;-0.028;0.112;-0.010995574295520782;-0.013439035043120384;0.012217304669320583
01:00:0A:00:00:00:00;1723248408;10/08/24;00:06:48;1.012;-0.026;0.111;-0.0024434609804302454;-0.0024434609804302454;0.0
01:00:0A:00:00:00:00;1723248409;10/08/24;00:06:49;1.013;-0.019;0.115;-0.0073303827084600925;-0.00855211354792118;0.004886921960860491
01:00:0A:00:00:00:00;1723248410;10/08/24;00:06:50;1.014;-0.023;0.11;-0.009773843921720982;-0.01710422709584236;0.006108652334660292
01:00:0A:00:00:00:00;1723248411;10/08/24;00:06:51;1.013;-0.023;0.111;-0.0012217304902151227;-0.00855211354792118;-0.006108652334660292
01:00:0A:00:00:00:00;1723248412;10/08/24;00:06:52;1.011;-0.023;0.116;-0.0073303827084600925;-0.013439035043120384;0.0012217304902151227
01:00:0A:00:00:00:00;1723248413;10/08/24;00:06:53;1.012;-0.027;0.111;-0.00855211354792118;-0.01710422709584236;0.006108652334660292
01:00:0A:00:00:00:00;1723248414;10/08/24;00:06:54;1.013;-0.025;0.112;-0.0012217304902151227;-0.004886921960860491;0.0012217304902151227
01:00:0A:00:00:00:00;1723248415;10/08/24;00:06:55;1.014;-0.02;0.115;-0.0073303827084600925;-0.010995574295520782;0.0073303827084600925
01:00:0A:00:00:00:00;1723248416;10/08/24;00:06:56;1.014;-0.025;0.109;-0.006108652334660292;-0.014660765416920185;0.004886921960860491
01:00:0A:00:00:00:00;1723248417;10/08/24;00:06:57;1.014;-0.023;0.111;0.0;-0.0036651913542300463;-0.004886921960860491
01:00:0A:00:00:00:00;1723248418;10/08/24;00:06:58;1.013;-0.022;0.115;-0.006108652334660292;-0.013439035043120384;0.004886921960860491
01:00:0A:00:00:00:00;1723248419;10/08/24;00:06:59;1.01;-0.027;0.11;-0.004886921960860491;-0.013439035043120384;0.006108652334660292
01:00:0A:00:00:00:00;1723248420;10/08/24;00:07:00;1.01;-0.023;0.114;0.0;-0.0036651913542300463;0.0
01:00:0A:00:00:00:00;1723248421;10/08/24;00:07:01;1.013;-0.022;0.116;-0.006108652334660292;-0.014660765416920185;0.00855211354792118
01:00:0A:00:00:00:00;1723248422;10/08/24;00:07:02;1.013;-0.026;0.109;-0.0036651913542300463;-0.013439035043120384;0.004886921960860491
01:00:0A:00:00:00:00;1723248423;10/08/24;00:07:03;1.013;-0.021;0.113;0.0;-0.0073303827084600925;-0.0012217304902151227
01:00:0A:00:00:00:00;1723248424;10/08/24;00:07:04;1.013;-0.022;0.115;-0.006108652334660292;-0.015882495790719986;0.006108652334660292
01:00:0A:00:00:00:00;1723248425;10/08/24;00:07:05;1.013;-0.026;0.11;-0.0024434609804302454;-0.012217304669320583;0.0024434609804302454
01:00:0A:00:00:00:00;1723248426;10/08/24;00:07:06;1.012;-0.023;0.113;0.0;-0.004886921960860491;0.0012217304902151227
01:00:0A:00:00:00:00;1723248427;10/08/24;00:07:07;1.012;-0.022;0.115;-0.006108652334660292;-0.015882495790719986;0.009773843921720982
01:00:0A:00:00:00:00;1723248428;10/08/24;00:07:08;1.012;-0.025;0.11;-0.0024434609804302454;-0.010995574295520782;0.0012217304902151227
01:00:0A:00:00:00:00;1723248429;10/08/24;00:07:09;1.012;-0.021;0.114;-0.0012217304902151227;-0.006108652334660292;0.0
01:00:0A:00:00:00:00;1723248430;10/08/24;00:07:10;1.013;-0.024;0.114;-0.006108652334660292;-0.018325956538319588;0.006108652334660292
01:00:0A:00:00:00:00;1723248431;10/08/24;00:07:11;1.013;-0.026;0.11;-0.0012217304902151227;-0.010995574295520782;0.0012217304902151227
01:00:0A:00:00:00:00;1723248432;10/08/24;00:07:12;1.013;-0.021;0.115;-0.0024434609804302454;-0.006108652334660292;0.0024434609804302454
01:00:0A:00:00:00:00;1723248433;10/08/24;00:07:13;1.014;-0.023;0.113;-0.0073303827084600925;-0.015882495790719986;0.0073303827084600925
01:00:0A:00:00:00:00;1723248434;10/08/24;00:07:14;1.015;-0.025;0.108;-0.0012217304902151227;-0.00855211354792118;0.0012217304902151227
01:00:0A:00:00:00:00;1723248435;10/08/24;00:07:15;1.012;-0.021;0.115;-0.0036651913542300463;-0.0073303827084600925;0.0024434609804302454
01:00:0A:00:00:00:00;1723248436;10/08/24;00:07:16;1.011;-0.024;0.114;-0.0073303827084600925;-0.01710422709584236;0.006108652334660292
01:00:0A:00:00:00:00;1723248437;10/08/24;00:07:17;1.012;-0.024;0.11;-0.0024434609804302454;-0.0073303827084600925;0.0
01:00:0A:00:00:00:00;1723248438;10/08/24;00:07:18;1.01;-0.022;0.115;-0.004886921960860491;-0.009773843921720982;0.004886921960860491
01:00:0A:00:00:00:00;1723248439;10/08/24;00:07:19;1.013;-0.025;0.111;-0.00855211354792118;-0.018325956538319588;0.006108652334660292
01:00:0A:00:00:00:00;1723248440;10/08/24;00:07:20;1.013;-0.022;0.111;-0.0036651913542300463;-0.0073303827084600925;0.0
01:00:0A:00:00:00:00;1723248441;10/08/24;00:07:21;1.012;-0.022;0.115;-0.006108652334660292;-0.00855211354792118;0.0024434609804302454
01:00:0A:00:00:00:00;1723248442;10/08/24;00:07:22;1.011;-0.025;0.113;-0.00855211354792118;-0.01710422709584236;0.004886921960860491
01:00:0A:00:00:00:00;1723248443;10/08/24;00:07:23;1.012;-0.024;0.11;-0.004886921960860491;-0.00855211354792118;0.0012217304902151227
01:00:0A:00:00:00:00;1723248444;10/08/24;00:07:24;1.013;-0.022;0.117;-0.009773843921720982;-0.009773843921720982;0.004886921960860491
01:00:0A:00:00:00:00;1723248445;10/08/24;00:07:25;1.014;-0.025;0.113;-0.010995574295520782;-0.013439035043120384;0.004886921960860491
01:00:0A:00:00:00:00;1723248446;10/08/24;00:07:26;1.015;-0.022;0.112;-0.0073303827084600925;-0.0036651913542300463;0.0
01:00:0A:00:00:00:00;1723248447;10/08/24;00:07:27;1.011;-0.023;0.114;-0.010995574295520782;-0.010995574295520782;0.0036651913542300463
01:00:0A:00:00:00:00;1723248448;10/08/24;00:07:28;1.01;-0.024;0.111;-0.012217304669320583;-0.015882495790719986;0.0012217304902151227
01:00:0A:00:00:00:00;1723248449;10/08/24;00:07:29;1.009;-0.023;0.112;-0.009773843921720982;-0.0073303827084600925;0.0
01:00:0A:00:00:00:00;1723248450;10/08/24;00:07:30;1.011;-0.023;0.115;-0.013439035043120384;-0.015882495790719986;0.004886921960860491
01:00:0A:00:00:00:00;1723248451;10/08/24;00:07:31;1.016;-0.025;0.111;-0.013439035043120384;-0.01710422709584236;0.0024434609804302454
01:00:0A:00:00:00:00;1723248452;10/08/24;00:07:32;1.015;-0.022;0.113;-0.012217304669320583;-0.006108652334660292;0.0024434609804302454
01:00:0A:00:00:00:00;1723248453;10/08/24;00:07:33;1.014;-0.023;0.116;-0.014660765416920185;-0.0073303827084600925;0.004886921960860491
01:00:0A:00:00:00:00;1723248454;10/08/24;00:07:34;1.01;-0.025;0.11;-0.014660765416920185;-0.010995574295520782;0.0024434609804302454
01:00:0A:00:00:00:00;1723248455;10/08/24;00:07:35;1.009;-0.022;0.11;-0.013439035043120384;-0.0073303827084600925;0.0012217304902151227
01:00:0A:00:00:00:00;1723248456;10/08/24;00:07:36;1.01;-0.024;0.114;-0.01710422709584236;-0.018325956538319588;0.0036651913542300463
01:00:0A:00:00:00:00;1723248457;10/08/24;00:07:37;1.013;-0.023;0.111;-0.014660765416920185;-0.015882495790719986;0.0
01:00:0A:00:00:00:00;1723248458;10/08/24;00:07:38;1.016;-0.022;0.114;-0.014660765416920185;-0.0073303827084600925;0.0012217304902151227
01:00:0A:00:00:00:00;1723248459;10/08/24;00:07:39;1.014;-0.024;0.114;-0.018325956538319588;-0.013439035043120384;0.004886921960860491
01:00:0A:00:00:00:00;1723248460;10/08/24;00:07:40;1.013;-0.024;0.11;-0.01710422709584236;-0.010995574295520782;0.0024434609804302454
01:00:0A:00:00:00:00;1723248461;10/08/24;00:07:41;1.008;-0.021;0.113;-0.01710422709584236;-0.006108652334660292;0.0024434609804302454
01:00:0A:00:00:00:00;1723248462;10/08/24;00:07:42;1.009;-0.023;0.112;-0.018325956538319588;-0.01710422709584236;0.0012217304902151227
01:00:0A:00:00:00:00;1723248463;10/08/24;00:07:43;1.012;-0.023;0.109;-0.01710422709584236;-0.014660765416920185;-0.0024434609804302454
01:00:0A:00:00:00:00;1723248464;10/08/24;00:07:44;1.015;-0.023;0.115;-0.01710422709584236;-0.00855211354792118;0.0012217304902151227
01:00:0A:00:00:00:00;1723248465;10/08/24;00:07:45;1.015;-0.025;0.115;-0.019547687843441963;-0.013439035043120384;0.0036651913542300463
01:00:0A:00:00:00:00;1723248466;10/08/24;00:07:46;1.013;-0.023;0.11;-0.018325956538319588;-0.0073303827084600925;0.0036651913542300463
01:00:0A:00:00:00:00;1723248467;10/08/24;00:07:47;1.01;-0.022;0.113;-0.019547687843441963;-0.004886921960860491;0.006108652334660292
01:00:0A:00:00:00:00;1723248468;10/08/24;00:07:48;1.009;-0.023;0.112;-0.02076941914856434;-0.01710422709584236;0.0012217304902151227
01:00:0A:00:00:00:00;1723248469;10/08/24;00:07:49;1.011;-0.022;0.111;-0.018325956538319588;-0.012217304669320583;-0.0024434609804302454
01:00:0A:00:00:00:00;1723248470;10/08/24;00:07:50;1.013;-0.024;0.115;-0.019547687843441963;-0.00855211354792118;0.0012217304902151227
01:00:0A:00:00:00:00;1723248471;10/08/24;00:07:51;1.014;-0.025;0.112;-0.02076941914856434;-0.015882495790719986;0.0012217304902151227
01:00:0A:00:00:00:00;1723248472;10/08/24;00:07:52;1.016;-0.023;0.111;-0.02076941914856434;-0.00855211354792118;0.0036651913542300463
01:00:0A:00:00:00:00;1723248473;10/08/24;00:07:53;1.011;-0.023;0.115;-0.021991148591041565;-0.006108652334660292;0.0073303827084600925
01:00:0A:00:00:00:00;1723248474;10/08/24;00:07:54;1.011;-0.023;0.112;-0.021991148591041565;-0.014660765416920185;0.0024434609804302454
01:00:0A:00:00:00:00;1723248475;10/08/24;00:07:55;1.011;-0.022;0.11;-0.02076941914856434;-0.00855211354792118;0.0
01:00:0A:00:00:00:00;1723248476;10/08/24;00:07:56;1.013;-0.024;0.113;-0.021991148591041565;-0.010995574295520782;0.0
01:00:0A:00:00:00:00;1723248477;10/08/24;00:07:57;1.014;-0.025;0.113;-0.02076941914856434;-0.015882495790719986;-0.0012217304902151227
01:00:0A:00:00:00:00;1723248478;10/08/24;00:07:58;1.015;-0.023;0.111;-0.021991148591041565;-0.0073303827084600925;0.004886921960860491
01:00:0A:00:00:00:00;1723248479;10/08/24;00:07:59;1.012;-0.024;0.113;-0.02321287989616394;-0.009773843921720982;0.006108652334660292
01:00:0A:00:00:00:00;1723248480;10/08/24;00:08:00;1.012;-0.023;0.112;-0.021991148591041565;-0.015882495790719986;0.0
01:00:0A:00:00:00:00;1723248481;10/08/24;00:08:01;1.012;-0.021;0.11;-0.021991148591041565;-0.0073303827084600925;0.0024434609804302454
01:00:0A:00:00:00:00;1723248482;10/08/24;00:08:02;1.012;-0.025;0.114;-0.021991148591041565;-0.009773843921720982;0.0012217304902151227
01:00:0A:00:00:00:00;1723248483;10/08/24;00:08:03;1.014;-0.023;0.111;-0.021991148591041565;-0.014660765416920185;-0.0012217304902151227
01:00:0A:00:00:00:00;1723248484;10/08/24;00:08:04;1.014;-0.023;0.111;-0.02321287989616394;-0.00855211354792118;0.0036651913542300463
01:00:0A:00:00:00:00;1723248485;10/08/24;00:08:05;1.012;-0.024;0.115;-0.02321287989616394;-0.010995574295520782;0.004886921960860491
01:00:0A:00:00:00:00;1723248486;10/08/24;00:08:06;1.013;-0.022;0.112;-0.021991148591041565;-0.014660765416920185;0.0
01:00:0A:00:00:00:00;1723248487;10/08/24;00:08:07;1.012;-0.023;0.113;-0.02321287989616394;-0.0073303827084600925;0.0036651913542300463
01:00:0A:00:00:00:00;1723248488;10/08/24;00:08:08;1.013;-0.024;0.114;-0.02321287989616394;-0.012217304669320583;0.0
01:00:0A:00:00:00:00;1723248489;10/08/24;00:08:09;1.013;-0.022;0.11;-0.021991148591041565;-0.014660765416920185;-0.0024434609804302454
01:00:0A:00:00:00:00;1723248490;10/08/24;00:08:10;1.012;-0.025;0.112;-0.024434609338641167;-0.0073303827084600925;0.006108652334660292
01:00:0A:00:00:00:00;1723248491;10/08/24;00:08:11;1.012;-0.025;0.113;-0.02321287989616394;-0.013439035043120384;0.0024434609804302454
01:00:0A:00:00:00:00;1723248492;10/08/24;00:08:12;1.013;-0.02;0.11;-0.02321287989616394;-0.013439035043120384;-0.0012217304902151227
01:00:0A:00:00:00:00;1723248493;10/08/24;00:08:13;1.013;-0.023;0.114;-0.024434609338641167;-0.0073303827084600925;0.004886921960860491
01:00:0A:00:00:00:00;1723248494;10/08/24;00:08:14;1.012;-0.026;0.114;-0.02321287989616394;-0.012217304669320583;0.0
01:00:0A:00:00:00:00;1723248495;10/08/24;00:08:15;1.014;-0.021;0.11;-0.02321287989616394;-0.012217304669320583;0.0012217304902151227
01:00:0A:00:00:00:00;1723248496;10/08/24;00:08:16;1.013;-0.023;0.113;-0.025656338781118393;-0.00855211354792118;0.0073303827084600925
01:00:0A:00:00:00:00;1723248497;10/08/24;00:08:17;1.011;-0.025;0.115;-0.02321287989616394;-0.014660765416920185;0.0
01:00:0A:00:00:00:00;1723248498;10/08/24;00:08:18;1.012;-0.02;0.112;-0.02321287989616394;-0.012217304669320583;0.0
01:00:0A:00:00:00:00;1723248499;10/08/24;00:08:19;1.012;-0.023;0.113;-0.025656338781118393;-0.006108652334660292;0.006108652334660292
01:00:0A:00:00:00:00;1723248500;10/08/24;00:08:20;1.012;-0.025;0.113;-0.02321287989616394;-0.012217304669320583;-0.0024434609804302454
01:00:0A:00:00:00:00;1723248501;10/08/24;00:08:21;1.013;-0.021;0.111;-0.024434609338641167;-0.010995574295520782;0.0
01:00:0A:00:00:00:00;1723248502;10/08/24;00:08:22;1.012;-0.025;0.112;-0.025656338781118393;-0.009773843921720982;0.0073303827084600925
01:00:0A:00:00:00:00;1723248503;10/08/24;00:08:23;1.012;-0.023;0.113;-0.02321287989616394;-0.014660765416920185;-0.0012217304902151227
01:00:0A:00:00:00:00;1723248504;10/08/24;00:08:24;1.013;-0.02;0.112;-0.024434609338641167;-0.010995574295520782;0.0012217304902151227
01:00:0A:00:00:00:00;1723248505;10/08/24;00:08:25;1.013;-0.026;0.114;-0.025656338781118393;-0.0073303827084600925;0.004886921960860491
01:00:0A:00:00:00:00;1723248506;10/08/24;00:08:26;1.012;-0.025;0.113;-0.021991148591041565;-0.012217304669320583;-0.0036651913542300463
01:00:0A:00:00:00:00;1723248507;10/08/24;00:08:27;1.013;-0.02;0.111;-0.025656338781118393;-0.010995574295520782;0.0036651913542300463
01:00:0A:00:00:00:00;1723248508;10/08/24;00:08:28;1.014;-0.025;0.111;-0.025656338781118393;-0.010995574295520782;0.004886921960860491
01:00:0A:00:00:00:00;1723248509;10/08/24;00:08:29;1.012;-0.024;0.114;-0.021991148591041565;-0.015882495790719986;-0.004886921960860491
01:00:0A:00:00:00:00;1723248510;10/08/24;00:08:30;1.012;-0.02;0.112;-0.025656338781118393;-0.012217304669320583;0.0036651913542300463
01:00:0A:00:00:00:00;1723248511;10/08/24;00:08:31;1.012;-0.025;0.114;-0.025656338781118393;-0.009773843921720982;0.0036651913542300463
01:00:0A:00:00:00:00;1723248512;10/08/24;00:08:32;1.013;-0.022;0.113;-0.021991148591041565;-0.010995574295520782;-0.004886921960860491
01:00:0A:00:00:00:00;1723248513;10/08/24;00:08:33;1.014;-0.021;0.11;-0.025656338781118393;-0.009773843921720982;0.004886921960860491
01:00:0A:00:00:00:00;1723248514;10/08/24;00:08:34;1.013;-0.026;0.112;-0.025656338781118393;-0.010995574295520782;0.004886921960860491
01:00:0A:00:00:00:00;1723248515;10/08/24;00:08:35;1.012;-0.022;0.111;-0.021991148591041565;-0.014660765416920185;-0.0036651913542300463
01:00:0A:00:00:00:00;1723248516;10/08/24;00:08:36;1.012;-0.022;0.113;-0.025656338781118393;-0.012217304669320583;0.006108652334660292
01:00:0A:00:00:00:00;1723248517;10/08/24;00:08:37;1.012;-0.025;0.114;-0.02321287989616394;-0.009773843921720982;0.0012217304902151227
01:00:0A:00:00:00:00;1723248518;10/08/24;00:08:38;1.012;-0.022;0.113;-0.021991148591041565;-0.010995574295520782;-0.004886921960860491
01:00:0A:00:00:00:00;1723248519;10/08/24;00:08:39;1.013;-0.021;0.11;-0.02687807008624077;-0.010995574295520782;0.0073303827084600925
01:00:0A:00:00:00:00;1723248520;10/08/24;00:08:40;1.014;-0.025;0.111;-0.02321287989616394;-0.010995574295520782;0.0012217304902151227
01:00:0A:00:00:00:00;1723248521;10/08/24;00:08:41;1.013;-0.021;0.113;-0.021991148591041565;-0.012217304669320583;-0.0036651913542300463
01:00:0A:00:00:00:00;1723248522;10/08/24;00:08:42;1.012;-0.022;0.112;-0.028099799528717995;-0.012217304669320583;0.0073303827084600925
01:00:0A:00:00:00:00;1723248523;10/08/24;00:08:43;1.012;-0.026;0.112;-0.024434609338641167;-0.009773843921720982;0.0
01:00:0A:00:00:00:00;1723248524;10/08/24;00:08:44;1.012;-0.02;0.114;-0.02321287989616394;-0.010995574295520782;-0.0012217304902151227
01:00:0A:00:00:00:00;1723248525;10/08/24;00:08:45;1.014;-0.022;0.112;-0.028099799528717995;-0.010995574295520782;0.0073303827084600925
01:00:0A:00:00:00:00;1723248526;10/08/24;00:08:46;1.014;-0.025;0.111;-0.02321287989616394;-0.009773843921720982;-0.0012217304902151227
01:00:0A:00:00:00:00;1723248527;10/08/24;00:08:47;1.014;-0.02;0.112;-0.02321287989616394;-0.012217304669320583;-0.0024434609804302454
01:00:0A:00:00:00:00;1723248528;10/08/24;00:08:48;1.013;-0.025;0.112;-0.028099799528717995;-0.012217304669320583;0.0073303827084600925
01:00:0A:00:00:00:00;1723248529;10/08/24;00:08:49;1.012;-0.026;0.113;-0.02321287989616394;-0.009773843921720982;-0.0024434609804302454
01:00:0A:00:00:00:00;1723248530;10/08/24;00:08:50;1.012;-0.02;0.113;-0.024434609338641167;-0.010995574295520782;0.0
01:00:0A:00:00:00:00;1723248531;10/08/24;00:08:51;1.013;-0.023;0.111;-0.028099799528717995;-0.012217304669320583;0.0073303827084600925
01:00:0A:00:00:00:00;1723248532;10/08/24;00:08:52;1.015;-0.025;0.112;-0.02321287989616394;-0.00855211354792118;-0.0024434609804302454
01:00:0A:00:00:00:00;1723248533;10/08/24;00:08:53;1.014;-0.02;0.114;-0.025656338781118393;-0.010995574295520782;0.0012217304902151227
01:00:0A:00:00:00:00;1723248534;10/08/24;00:08:54;1.012;-0.024;0.111;-0.028099799528717995;-0.013439035043120384;0.006108652334660292
01:00:0A:00:00:00:00;1723248535;10/08/24;00:08:55;1.011;-0.023;0.112;-0.021991148591041565;-0.00855211354792118;-0.0036651913542300463
01:00:0A:00:00:00:00;1723248536;10/08/24;00:08:56;1.012;-0.02;0.113;-0.025656338781118393;-0.013439035043120384;0.0024434609804302454
01:00:0A:00:00:00:00;1723248537;10/08/24;00:08:57;1.012;-0.025;0.112;-0.028099799528717995;-0.013439035043120384;0.006108652334660292
01:00:0A:00:00:00:00;1723248538;10/08/24;00:08:58;1.014;-0.024;0.112;-0.021991148591041565;-0.0073303827084600925;-0.0036651913542300463
01:00:0A:00:00:00:00;1723248539;10/08/24;00:08:59;1.013;-0.02;0.114;-0.025656338781118393;-0.012217304669320583;0.0012217304902151227
01:00:0A:00:00:00:00;1723248540;10/08/24;00:09:00;1.013;-0.025;0.11;-0.02687807008624077;-0.013439035043120384;0.0036651913542300463
01:00:0A:00:00:00:00;1723248541;10/08/24;00:09:01;1.012;-0.024;0.112;-0.021991148591041565;-0.00855211354792118;-0.0036651913542300463
01:00:0A:00:00:00:00;1723248542;10/08/24;00:09:02;1.012;-0.022;0.115;-0.02687807008624077;-0.014660765416920185;0.004886921960860491
01:00:0A:00:00:00:00;1723248543;10/08/24;00:09:03;1.013;-0.025;0.11;-0.02687807008624077;-0.013439035043120384;0.0036651913542300463
01:00:0A:00:00:00:00;1723248544;10/08/24;00:09:04;1.014;-0.022;0.114;-0.021991148591041565;-0.0073303827084600925;-0.0024434609804302454
01:00:0A:00:00:00:00;1723248545;10/08/24;00:09:05;1.014;-0.022;0.114;-0.02687807008624077;-0.013439035043120384;0.0036651913542300463
01:00:0A:00:00:00:00;1723248546;10/08/24;00:09:06;1.012;-0.025;0.109;-0.025656338781118393;-0.012217304669320583;0.0024434609804302454
01:00:0A:00:00:00:00;1723248547;10/08/24;00:09:07;1.011;-0.022;0.113;-0.021991148591041565;-0.0073303827084600925;-0.0036651913542300463
01:00:0A:00:00:00:00;1723248548;10/08/24;00:09:08;1.013;-0.023;0.115;-0.028099799528717995;-0.015882495790719986;0.004886921960860491
01:00:0A:00:00:00:00;1723248549;10/08/24;00:09:09;1.015;-0.026;0.11;-0.025656338781118393;-0.010995574295520782;0.0012217304902151227
01:00:0A:00:00:00:00;1723248550;10/08/24;00:09:10;1.015;-0.022;0.114;-0.02321287989616394;-0.006108652334660292;-0.0012217304902151227
01:00:0A:00:00:00:00;1723248551;10/08/24;00:09:11;1.013;-0.022;0.114;-0.028099799528717995;-0.014660765416920185;0.004886921960860491
01:00:0A:00:00:00:00;1723248552;10/08/24;00:09:12;1.01;-0.025;0.109;-0.024434609338641167;-0.009773843921720982;0.0012217304902151227
01:00:0A:00:00:00:00;1723248553;10/08/24;00:09:13;1.011;-0.022;0.114;-0.02321287989616394;-0.0073303827084600925;-0.0012217304902151227
01:00:0A:00:00:00:00;1723248554;10/08/24;00:09:14;1.012;-0.023;0.113;-0.028099799528717995;-0.01710422709584236;0.0036651913542300463
01:00:0A:00:00:00:00;1723248555;10/08/24;00:09:15;1.013;-0.025;0.111;-0.024434609338641167;-0.010995574295520782;0.0
01:00:0A:00:00:00:00;1723248556;10/08/24;00:09:16;1.013;-0.022;0.116;-0.024434609338641167;-0.0073303827084600925;0.0
01:00:0A:00:00:00:00;1723248557;10/08/24;00:09:17;1.013;-0.023;0.113;-0.028099799528717995;-0.014660765416920185;0.004886921960860491
01:00:0A:00:00:00:00;1723248558;10/08/24;00:09:18;1.012;-0.024;0.11;-0.02321287989616394;-0.0073303827084600925;0.0
01:00:0A:00:00:00:00;1723248559;10/08/24;00:09:19;1.011;-0.023;0.115;-0.02321287989616394;-0.00855211354792118;0.0
01:00:0A:00:00:00:00;1723248560;10/08/24;00:09:20;1.011;-0.023;0.112;-0.02687807008624077;-0.018325956538319588;0.0024434609804302454
01:00:0A:00:00:00:00;1723248561;10/08/24;00:09:21;1.014;-0.025;0.11;-0.02321287989616394;-0.009773843921720982;-0.0012217304902151227
01:00:0A:00:00:00:00;1723248562;10/08/24;00:09:22;1.014;-0.023;0.115;-0.024434609338641167;-0.009773843921720982;0.0012217304902151227
01:00:0A:00:00:00:00;1723248563;10/08/24;00:09:23;1.013;-0.025;0.112;-0.025656338781118393;-0.015882495790719986;0.0036651913542300463
01:00:0A:00:00:00:00;1723248564;10/08/24;00:09:24;1.011;-0.023;0.11;-0.02321287989616394;-0.006108652334660292;0.0012217304902151227
01:00:0A:00:00:00:00;1723248565;10/08/24;00:09:25;1.01;-0.023;0.115;-0.024434609338641167;-0.009773843921720982;0.0024434609804302454
01:00:0A:00:00:00:00;1723248566;10/08/24;00:09:26;1.011;-0.024;0.112;-0.025656338781118393;-0.018325956538319588;0.0012217304902151227
01:00:0A:00:00:00:00;1723248567;10/08/24;00:09:27;1.012;-0.023;0.111;-0.021991148591041565;-0.00855211354792118;-0.0012217304902151227
01:00:0A:00:00:00:00;1723248568;10/08/24;00:09:28;1.015;-0.023;0.116;-0.024434609338641167;-0.010995574295520782;0.0024434609804302454
01:00:0A:00:00:00:00;1723248569;10/08/24;00:09:29;1.015;-0.024;0.112;-0.024434609338641167;-0.014660765416920185;0.0024434609804302454
01:00:0A:00:00:00:00;1723248570;10/08/24;00:09:30;1.013;-0.022;0.111;-0.021991148591041565;-0.004886921960860491;0.0024434609804302454
01:00:0A:00:00:00:00;1723248571;10/08/24;00:09:31;1.011;-0.023;0.115;-0.02321287989616394;-0.010995574295520782;0.0036651913542300463
01:00:0A:00:00:00:00;1723248572;10/08/24;00:09:32;1.011;-0.024;0.11;-0.02321287989616394;-0.01710422709584236;0.0
01:00:0A:00:00:00:00;1723248573;10/08/24;00:09:33;1.013;-0.023;0.111;-0.02076941914856434;-0.0073303827084600925;0.0
01:00:0A:00:00:00:00;1723248574;10/08/24;00:09:34;1.014;-0.025;0.115;-0.021991148591041565;-0.014660765416920185;0.0012217304902151227
01:00:0A:00:00:00:00;1723248575;10/08/24;00:09:35;1.014;-0.025;0.111;-0.021991148591041565;-0.014660765416920185;0.0012217304902151227
01:00:0A:00:00:00:00;1723248576;10/08/24;00:09:36;1.013;-0.024;0.112;-0.02076941914856434;-0.004886921960860491;0.004886921960860491
01:00:0A:00:00:00:00;1723248577;10/08/24;00:09:37;1.011;-0.024;0.115;-0.02076941914856434;-0.012217304669320583;0.0036651913542300463
01:00:0A:00:00:00:00;1723248578;10/08/24;00:09:38;1.011;-0.022;0.11;-0.019547687843441963;-0.014660765416920185;0.0
01:00:0A:00:00:00:00;1723248579;10/08/24;00:09:39;1.012;-0.023;0.113;-0.018325956538319588;-0.0073303827084600925;0.0012217304902151227
01:00:0A:00:00:00:00;1723248580;10/08/24;00:09:40;1.012;-0.025;0.116;-0.019547687843441963;-0.015882495790719986;0.0
01:00:0A:00:00:00:00;1723248581;10/08/24;00:09:41;1.016;-0.023;0.109;-0.018325956538319588;-0.012217304669320583;0.0012217304902151227
01:00:0A:00:00:00:00;1723248582;10/08/24;00:09:42;1.014;-0.023;0.113;-0.018325956538319588;-0.006108652334660292;0.006108652334660292
01:00:0A:00:00:00:00;1723248583;10/08/24;00:09:43;1.012;-0.024;0.114;-0.018325956538319588;-0.014660765416920185;0.0024434609804302454
01:00:0A:00:00:00:00;1723248584;10/08/24;00:09:44;1.012;-0.022;0.11;-0.01710422709584236;-0.013439035043120384;0.0012217304902151227
01:00:0A:00:00:00:00;1723248585;10/08/24;00:09:45;1.011;-0.023;0.113;-0.01710422709584236;-0.006108652334660292;0.0036651913542300463
01:00:0A:00:00:00:00;1723248586;10/08/24;00:09:46;1.013;-0.024;0.114;-0.015882495790719986;-0.014660765416920185;-0.0012217304902151227
01:00:0A:00:00:00:00;1723248587;10/08/24;00:09:47;1.014;-0.023;0.109;-0.015882495790719986;-0.010995574295520782;0.0012217304902151227
01:00:0A:00:00:00:00;1723248588;10/08/24;00:09:48;1.013;-0.025;0.114;-0.015882495790719986;-0.006108652334660292;0.006108652334660292
01:00:0A:00:00:00:00;1723248589;10/08/24;00:09:49;1.013;-0.025;0.113;-0.015882495790719986;-0.014660765416920185;0.0024434609804302454
01:00:0A:00:00:00:00;1723248590;10/08/24;00:09:50;1.013;-0.021;0.11;-0.014660765416920185;-0.010995574295520782;0.0024434609804302454
01:00:0A:00:00:00:00;1723248591;10/08/24;00:09:51;1.012;-0.023;0.113;-0.014660765416920185;-0.0073303827084600925;0.0024434609804302454
01:00:0A:00:00:00:00;1723248592;10/08/24;00:09:52;1.012;-0.026;0.113;-0.013439035043120384;-0.014660765416920185;-0.0024434609804302454
01:00:0A:00:00:00:00;1723248593;10/08/24;00:09:53;1.014;-0.022;0.11;-0.013439035043120384;-0.009773843921720982;0.0036651913542300463
01:00:0A:00:00:00:00;1723248594;10/08/24;00:09:54;1.013;-0.026;0.114;-0.013439035043120384;-0.00855211354792118;0.006108652334660292
01:00:0A:00:00:00:00;1723248595;10/08/24;00:09:55;1.012;-0.024;0.113;-0.012217304669320583;-0.015882495790719986;0.0
01:00:0A:00:00:00:00;1723248596;10/08/24;00:09:56;1.013;-0.021;0.11;-0.012217304669320583;-0.009773843921720982;0.0036651913542300463
01:00:0A:00:00:00:00;1723248597;10/08/24;00:09:57;1.012;-0.025;0.114;-0.012217304669320583;-0.00855211354792118;0.0036651913542300463
01:00:0A:00:00:00:00;1723248598;10/08/24;00:09:58;1.014;-0.023;0.112;-0.009773843921720982;-0.014660765416920185;-0.0012217304902151227
01:00:0A:00:00:00:00;1723248599;10/08/24;00:09:59;1.013;-0.021;0.11;-0.010995574295520782;-0.009773843921720982;0.0036651913542300463
01:00:0A:00:00:00:00;1723248600;10/08/24;00:10:00;1.012;-0.026;0.114;-0.010995574295520782;-0.009773843921720982;0.004886921960860491
01:00:0A:00:00:00:00;1723248601;10/08/24;00:10:01;1.012;-0.024;0.112;-0.00855211354792118;-0.015882495790719986;0.0012217304902151227
01:00:0A:00:00:00:00;1723248602;10/08/24;00:10:02;1.012;-0.021;0.111;-0.009773843921720982;-0.00855211354792118;0.004886921960860491
01:00:0A:00:00:00:00;1723248603;10/08/24;00:10:03;1.012;-0.025;0.114;-0.00855211354792118;-0.009773843921720982;0.0024434609804302454
01:00:0A:00:00:00:00;1723248604;10/08/24;00:10:04;1.013;-0.023;0.112;-0.006108652334660292;-0.013439035043120384;-0.0024434609804302454
01:00:0A:00:00:00:00;1723248605;10/08/24;00:10:05;1.011;-0.023;0.111;-0.00855211354792118;-0.00855211354792118;0.006108652334660292
01:00:0A:00:00:00:00;1723248606;10/08/24;00:10:06;1.012;-0.026;0.114;-0.0073303827084600925;-0.012217304669320583;0.0036651913542300463
01:00:0A:00:00:00:00;1723248607;10/08/24;00:10:07;1.011;-0.021;0.112;-0.006108652334660292;-0.015882495790719986;0.0012217304902151227
01:00:0A:00:00:00:00;1723248608;10/08/24;00:10:08;1.012;-0.022;0.112;-0.0073303827084600925;-0.00855211354792118;0.006108652334660292
01:00:0A:00:00:00:00;1723248609;10/08/24;00:10:09;1.012;-0.024;0.115;-0.004886921960860491;-0.009773843921720982;0.0024434609804302454
01:00:0A:00:00:00:00;1723248610;10/08/24;00:10:10;1.012;-0.021;0.111;-0.0036651913542300463;-0.012217304669320583;0.0
01:00:0A:00:00:00:00;1723248611;10/08/24;00:10:11;1.013;-0.024;0.11;-0.006108652334660292;-0.00855211354792118;0.0073303827084600925
01:00:0A:00:00:00:00;1723248612;10/08/24;00:10:12;1.013;-0.026;0.113;-0.0036651913542300463;-0.013439035043120384;0.0024434609804302454
01:00:0A:00:00:00:00;1723248613;10/08/24;00:10:13;1.012;-0.022;0.111;-0.0036651913542300463;-0.014660765416920185;0.0024434609804302454
01:00:0A:00:00:00:00;1723248614;10/08/24;00:10:14;1.012;-0.023;0.112;-0.004886921960860491;-0.00855211354792118;0.0073303827084600925
01:00:0A:00:00:00:00;1723248615;10/08/24;00:10:15;1.012;-0.025;0.114;-0.0024434609804302454;-0.010995574295520782;0.0
01:00:0A:00:00:00:00;1723248616;10/08/24;00:10:16;1.012;-0.022;0.11;-0.0024434609804302454;-0.010995574295520782;0.0
01:00:0A:00:00:00:00;1723248617;10/08/24;00:10:17;1.012;-0.025;0.112;-0.0036651913542300463;-0.0073303827084600925;0.0073303827084600925
01:00:0A:00:00:00:00;1723248618;10/08/24;00:10:18;1.013;-0.026;0.113;-0.0012217304902151227;-0.013439035043120384;0.0012217304902151227
01:00:0A:00:00:00:00;1723248619;10/08/24;00:10:19;1.012;-0.021;0.109;-0.0024434609804302454;-0.014660765416920185;0.0024434609804302454
01:00:0A:00:00:00:00;1723248620;10/08/24;00:10:20;1.013;-0.023;0.113;-0.0024434609804302454;-0.009773843921720982;0.0073303827084600925
01:00:0A:00:00:00:00;1723248621;10/08/24;00:10:21;1.013;-0.024;0.114;0.0012217304902151227;-0.012217304669320583;0.0
01:00:0A:00:00:00:00;1723248622;10/08/24;00:10:22;1.013;-0.021;0.112;-0.0012217304902151227;-0.009773843921720982;0.0036651913542300463
01:00:0A:00:00:00:00;1723248633;10/08/24;00:10:33;1.013;-0.024;0.114;0.0036651913542300463;-0.012217304669320583;-0.0012217304902151227
01:00:0A:00:00:00:00;1723248634;10/08/24;00:10:34;1.013;-0.022;0.112;0.0;-0.00855211354792118;0.0073303827084600925
01:00:0A:00:00:00:00;1723248635;10/08/24;00:10:35;1.012;-0.025;0.113;0.0012217304902151227;-0.00855211354792118;0.004886921960860491
01:00:0A:00:00:00:00;1723248636;10/08/24;00:10:36;1.011;-0.023;0.111;0.0036651913542300463;-0.013439035043120384;-0.0012217304902151227
01:00:0A:00:00:00:00;1723248637;10/08/24;00:10:37;1.012;-0.023;0.111;0.0012217304902151227;-0.012217304669320583;0.006108652334660292
01:00:0A:00:00:00:00;1723248638;10/08/24;00:10:38;1.013;-0.025;0.114;0.0024434609804302454;-0.012217304669320583;0.004886921960860491
01:00:0A:00:00:00:00;1723248639;10/08/24;00:10:39;1.013;-0.022;0.112;0.0036651913542300463;-0.013439035043120384;0.0012217304902151227
01:00:0A:00:00:00:00;1723248640;10/08/24;00:10:40;1.013;-0.023;0.112;0.0012217304902151227;-0.00855211354792118;0.0073303827084600925
01:00:0A:00:00:00:00;1723248641;10/08/24;00:10:41;1.013;-0.027;0.113;0.0036651913542300463;-0.00855211354792118;0.0036651913542300463
01:00:0A:00:00:00:00;1723248642;10/08/24;00:10:42;1.011;-0.022;0.112;0.0036651913542300463;-0.012217304669320583;0.0
01:00:0A:00:00:00:00;1723248643;10/08/24;00:10:43;1.013;-0.021;0.112;0.0012217304902151227;-0.012217304669320583;0.00855211354792118
01:00:0A:00:00:00:00;1723248644;10/08/24;00:10:44;1.011;-0.025;0.114;0.0036651913542300463;-0.012217304669320583;0.0012217304902151227
01:00:0A:00:00:00:00;1723248645;10/08/24;00:10:45;1.012;-0.022;0.113;0.004886921960860491;-0.012217304669320583;0.0012217304902151227
01:00:0A:00:00:00:00;1723248646;10/08/24;00:10:46;1.013;-0.024;0.113;0.0012217304902151227;-0.00855211354792118;0.009773843921720982
01:00:0A:00:00:00:00;1723248647;10/08/24;00:10:47;1.011;-0.025;0.113;0.004886921960860491;-0.009773843921720982;0.0024434609804302454
01:00:0A:00:00:00:00;1723248648;10/08/24;00:10:48;1.012;-0.021;0.11;0.004886921960860491;-0.012217304669320583;0.0012217304902151227
01:00:0A:00:00:00:00;1723248649;10/08/24;00:10:49;1.012;-0.024;0.112;0.0012217304902151227;-0.010995574295520782;0.0073303827084600925
01:00:0A:00:00:00:00;1723248650;10/08/24;00:10:50;1.013;-0.025;0.115;0.004886921960860491;-0.012217304669320583;0.0012217304902151227
01:00:0A:00:00:00:00;1723248651;10/08/24;00:10:51;1.013;-0.022;0.113;0.0036651913542300463;-0.012217304669320583;0.0036651913542300463
01:00:0A:00:00:00:00;1723248652;10/08/24;00:10:52;1.012;-0.024;0.113;0.0024434609804302454;-0.00855211354792118;0.00855211354792118
01:00:0A:00:00:00:00;1723248653;10/08/24;00:10:53;1.012;-0.024;0.113;0.004886921960860491;-0.009773843921720982;0.0012217304902151227
01:00:0A:00:00:00:00;1723248654;10/08/24;00:10:54;1.01;-0.022;0.111;0.0036651913542300463;-0.012217304669320583;0.0024434609804302454
01:00:0A:00:00:00:00;1723248655;10/08/24;00:10:55;1.013;-0.025;0.111;0.0012217304902151227;-0.010995574295520782;0.0073303827084600925
01:00:0A:00:00:00:00;1723248656;10/08/24;00:10:56;1.015;-0.025;0.116;0.004886921960860491;-0.010995574295520782;0.0012217304902151227
01:00:0A:00:00:00:00;1723248657;10/08/24;00:10:57;1.013;-0.022;0.114;0.0024434609804302454;-0.0024434609804302454;0.006108652334660292
01:00:0A:00:00:00:00;1723248658;10/08/24;00:10:58;1.007;-0.022;0.109;0.0024434609804302454;-0.004886921960860491;0.0024434609804302454
01:00:0A:00:00:00:00;1723248659;10/08/24;00:10:59;1.011;-0.027;0.109;0.004886921960860491;-0.021991148591041565;-0.009773843921720982
01:00:0A:00:00:00:00;1723248660;10/08/24;00:11:00;1.017;-0.026;0.116;-0.0012217304902151227;-0.021991148591041565;0.0036651913542300463
01:00:0A:00:00:00:00;1723248661;10/08/24;00:11:01;1.016;-0.031;0.121;-0.0024434609804302454;-0.004886921960860491;0.019547687843441963
01:00:0A:00:00:00:00;1723248662;10/08/24;00:11:02;1.007;-0.023;0.119;0.0012217304902151227;0.0036651913542300463;0.010995574295520782
01:00:0A:00:00:00:00;1723248663;10/08/24;00:11:03;0.998;-0.019;0.115;-0.0073303827084600925;-0.006108652334660292;0.018325956538319588
01:00:0A:00:00:00:00;1723248664;10/08/24;00:11:04;1.0;-0.023;0.113;0.0024434609804302454;-0.014660765416920185;-0.010995574295520782
01:00:0A:00:00:00:00;1723248665;10/08/24;00:11:05;1.016;-0.023;0.122;0.0012217304902151227;-0.02687807008624077;-0.01710422709584236
01:00:0A:00:00:00:00;1723248666;10/08/24;00:11:06;1.035;-0.031;0.113;0.0;-0.11972958594560623;-0.03298672288656235
01:00:0A:00:00:00:00;1723248667;10/08/24;00:11:07;1.042;-0.056;0.008;0.042760565876960754;-0.012217304669320583;0.018325956538319588
01:00:0A:00:00:00:00;1723248668;10/08/24;00:11:08;0.985;0.055;0.222;0.03420845419168472;0.3042108714580536;-0.12828169763088226
01:00:0A:00:00:00:00;1723248669;10/08/24;00:11:09;0.973;0.025;0.172;-0.294437050819397;-0.20647244155406952;0.08552113175392151
01:00:0A:00:00:00:00;1723248670;10/08/24;00:11:10;0.978;-0.02;0.069;-0.27122414112091064;0.0;0.0
01:00:0A:00:00:00:00;1723248671;10/08/24;00:11:11;0.989;-0.062;0.174;-0.20402899384498596;0.0;-0.09773843735456467
01:00:0A:00:00:00:00;1723248672;10/08/24;00:11:12;1.03;-0.029;0.166;-0.2028072476387024;-0.17959438264369965;-0.1319468915462494
01:00:0A:00:00:00:00;1723248673;10/08/24;00:11:13;1.059;-0.004;-0.045;-0.19914205372333527;-0.08918632566928864;0.042760565876960754
01:00:0A:00:00:00:00;1723248674;10/08/24;00:11:14;1.034;-0.175;0.146;-0.05253440886735916;0.21624629199504852;0.15027284622192383
01:00:0A:00:00:00:00;1723248675;10/08/24;00:11:15;1.003;0.071;0.164;-0.021991148591041565;-0.013439035043120384;-0.19058994948863983
01:00:0A:00:00:00:00;1723248676;10/08/24;00:11:16;0.965;-0.039;0.044;-0.20036379992961884;-0.19792033731937408;0.27977627515792847
01:00:0A:00:00:00:00;1723248677;10/08/24;00:11:17;0.971;-0.02;0.077;0.04398229718208313;0.26633724570274353;-0.22479839622974396
01:00:0A:00:00:00:00;1723248678;10/08/24;00:11:18;0.983;0.0;0.169;-0.12339477241039276;-0.2773328125476837;0.2015855312347412
01:00:0A:00:00:00:00;1723248679;10/08/24;00:11:19;1.024;-0.124;0.023;0.1160643920302391;0.07208210229873657;-0.2370157092809677
01:00:0A:00:00:00:00;1723248680;10/08/24;00:11:20;1.022;0.114;0.182;0.02076941914856434;0.0012217304902151227;0.028099799528717995
01:00:0A:00:00:00:00;1723248681;10/08/24;00:11:21;1.045;-0.105;0.083;-0.040317103266716;-0.06108652427792549;0.10262535512447357
01:00:0A:00:00:00:00;1723248682;10/08/24;00:11:22;1.03;0.009;0.135;0.06108652427792549;0.12095131725072861;-0.05864306166768074
01:00:0A:00:00:00:00;1723248683;10/08/24;00:11:23;1.005;-0.04;0.119;-0.009773843921720982;-0.05497787147760391;0.06230825558304787
01:00:0A:00:00:00:00;1723248684;10/08/24;00:11:24;0.999;0.008;0.086;0.0;-0.05375614017248154;-0.0708603635430336
01:00:0A:00:00:00:00;1723248685;10/08/24;00:11:25;0.991;0.02;0.088;-0.059864792972803116;-0.006108652334660292;0.03787364438176155
01:00:0A:00:00:00:00;1723248686;10/08/24;00:11:26;1.003;-0.058;0.146;-0.04764748737215996;-0.03420845419168472;0.09896016865968704
01:00:0A:00:00:00:00;1723248687;10/08/24;00:11:27;1.021;-0.014;0.166;0.06719517707824707;-0.024434609338641167;-0.19425514340400696
01:00:0A:00:00:00:00;1723248688;10/08/24;00:11:28;1.033;0.169;0.145;-0.19058994948863983;-0.1160643920302391;0.051312677562236786
01:00:0A:00:00:00:00;1723248689;10/08/24;00:11:29;1.048;-0.182;-0.033;-0.17470745742321014;0.012217304669320583;0.22602014243602753
01:00:0A:00:00:00:00;1723248690;10/08/24;00:11:30;1.013;0.04;0.188;0.0354301817715168;0.21502456068992615;-0.2541199326515198
01:00:0A:00:00:00:00;1723248691;10/08/24;00:11:31;0.994;0.018;-0.013;-0.19058994948863983;-0.17470745742321014;0.10506881773471832
01:00:0A:00:00:00:00;1723248692;10/08/24;00:11:32;0.957;-0.116;0.155;-0.10506881773471832;0.3530800938606262;0.080634206533432
01:00:0A:00:00:00:00;1723248693;10/08/24;00:11:33;0.979;-0.11;0.218;-0.04886921867728233;-0.45326200127601624;-0.2675589621067047
01:00:0A:00:00:00:00;1723248694;10/08/24;00:11:34;1.031;0.051;-0.028;-0.08674286305904388;0.2687807083129883;0.06719517707824707
01:00:0A:00:00:00:00;1723248695;10/08/24;00:11:35;1.001;-0.047;0.4;-0.21380282938480377;-0.024434609338641167;-0.025656338781118393
01:00:0A:00:00:00:00;1723248696;10/08/24;00:11:36;1.04;0.001;-0.199;-0.1771509200334549;-0.24190263450145721;-0.039095375686883926
01:00:0A:00:00:00:00;1723248697;10/08/24;00:11:37;0.999;0.068;0.137;-0.15882496535778046;0.5583308339118958;0.10751228034496307
01:00:0A:00:00:00:00;1723248698;10/08/24;00:11:38;0.951;-0.224;0.074;-0.2565633952617645;0.004886921960860491;0.23579397797584534
01:00:0A:00:00:00:00;1723248699;10/08/24;00:11:39;0.952;0.07;0.249;-0.0012217304902151227;-0.006108652334660292;-0.8319984674453735
01:00:0A:00:00:00:00;1723248700;10/08/24;00:11:40;0.947;0.155;0.274;-0.8258897662162781;-0.45326200127601624;0.3677408695220947
01:00:0A:00:00:00:00;1723248701;10/08/24;00:11:41;1.025;-0.103;-0.115;-0.6682865619659424;-0.16859880089759827;-0.16371189057826996
01:00:0A:00:00:00:00;1723248702;10/08/24;00:11:42;1.036;0.086;0.176;-0.6866125464439392;0.0036651913542300463;-0.0024434609804302454
01:00:0A:00:00:00:00;1723248703;10/08/24;00:11:43;1.028;0.002;-0.041;-0.8271114826202393;-0.28588491678237915;0.10751228034496307
01:00:0A:00:00:00:00;1723248704;10/08/24;00:11:44;0.953;-0.198;-0.061;-0.6682865619659424;0.4190535545349121;0.616973876953125
01:00:0A:00:00:00:00;1723248705;10/08/24;00:11:45;0.867;-0.13;0.446;-0.19425514340400696;0.5632177591323853;-1.0690141916275024
01:00:0A:00:00:00:00;1723248706;10/08/24;00:11:46;0.914;0.294;0.22;-0.9871581792831421;-1.1814132928848267;-0.513126790523529
01:00:0A:00:00:00:00;1723248707;10/08/24;00:11:47;0.935;-0.104;-0.282;-1.253495454788208;0.1014036238193512;0.9370672702789307
01:00:0A:00:00:00:00;1723248708;10/08/24;00:11:48;0.976;-0.177;0.256;-0.7476990222930908;0.7880162000656128;-0.4703662395477295
01:00:0A:00:00:00:00;1723248709;10/08/24;00:11:49;0.95;-0.023;0.359;-1.0494663715362549;-0.2675589621067047;-0.3787364363670349
01:00:0A:00:00:00:00;1723248710;10/08/24;00:11:50;0.966;0.183;-0.05;-1.1410963535308838;-0.43860122561454773;-0.16493360698223114
01:00:0A:00:00:00:00;1723248711;10/08/24;00:11:51;0.991;-0.066;-0.04;-1.4355332851409912;0.015882495790719986;0.9724974632263184
01:00:0A:00:00:00:00;1723248712;10/08/24;00:11:52;0.858;-0.479;0.067;-0.4703662395477295;1.0470229387283325;-0.25534167885780334
01:00:0A:00:00:00:00;1723248713;10/08/24;00:11:53;0.981;0.042;0.275;-0.3836233615875244;-0.2919935882091522;-0.6487389206886292
01:00:0A:00:00:00:00;1723248714;10/08/24;00:11:54;1.036;0.065;0.046;-0.7721336483955383;-0.11972958594560623;0.2028072476387024
01:00:0A:00:00:00:00;1723248715;10/08/24;00:11:55;1.018;-0.183;0.119;-0.6377432942390442;0.010995574295520782;0.010995574295520782
01:00:0A:00:00:00:00;1723248716;10/08/24;00:11:56;1.015;0.03;0.078;-0.5400049090385437;-0.080634206533432;-0.08185594528913498
01:00:0A:00:00:00:00;1723248717;10/08/24;00:11:57;0.996;-0.071;0.019;-0.5363396406173706;-0.11484266817569733;0.02076941914856434
01:00:0A:00:00:00:00;1723248718;10/08/24;00:11:58;1.005;0.057;0.058;-0.5082398653030396;0.1062905490398407;-0.014660765416920185
01:00:0A:00:00:00:00;1723248719;10/08/24;00:11:59;1.034;-0.079;0.093;-0.6719517707824707;0.3029891550540924;0.24434609711170197
01:00:0A:00:00:00:00;1723248720;10/08/24;00:12:00;0.888;-0.457;0.383;-0.2590068578720093;0.4996877610683441;-0.32131510972976685
01:00:0A:00:00:00:00;1723248721;10/08/24;00:12:01;0.954;0.283;0.336;-0.4715879559516907;-0.7867944240570068;-0.5302309989929199
01:00:0A:00:00:00:00;1723248722;10/08/24;00:12:02;1.002;0.096;-0.143;-0.9773843884468079;-0.23945917189121246;0.5119050741195679
01:00:0A:00:00:00:00;1723248723;10/08/24;00:12:03;0.936;-0.363;0.122;-0.5717698335647583;0.375071257352829;0.1111774742603302
01:00:0A:00:00:00:00;1723248724;10/08/24;00:12:04;0.979;-0.113;0.25;-0.18081611394882202;-0.04398229718208313;-0.6695082783699036
01:00:0A:00:00:00:00;1723248725;10/08/24;00:12:05;0.992;0.169;0.189;-0.6988298296928406;-0.10995574295520782;0.23457224667072296
01:00:0A:00:00:00:00;1723248726;10/08/24;00:12:06;1.018;-0.205;-0.069;-0.646295428276062;-0.02321287989616394;0.3286454975605011
01:00:0A:00:00:00:00;1723248727;10/08/24;00:12:07;0.977;-0.228;0.309;-0.14049901068210602;0.645073652267456;-0.3836233615875244
01:00:0A:00:00:00:00;1723248728;10/08/24;00:12:08;0.919;0.232;0.36;-0.5351179242134094;-0.2626720666885376;-0.6059783101081848
01:00:0A:00:00:00:00;1723248729;10/08/24;00:12:09;0.956;0.264;0.101;-1.2131783962249756;-0.8662068843841553;-0.19425514340400696
01:00:0A:00:00:00:00;1723248730;10/08/24;00:12:10;0.914;-0.215;-0.226;-1.470963478088379;0.3946189284324646;0.8820894360542297
01:00:0A:00:00:00:00;1723248731;10/08/24;00:12:11;0.927;-0.403;0.095;-0.50335294008255;0.8772024512290955;-0.21502456068992615
01:00:0A:00:00:00:00;1723248732;10/08/24;00:12:12;0.935;-0.089;0.388;-0.44715335965156555;-0.33964109420776367;-0.29077184200286865
01:00:0A:00:00:00:00;1723248733;10/08/24;00:12:13;1.021;-0.014;0.04;-0.5632177591323853;-0.19914205372333527;0.009773843921720982
01:00:0A:00:00:00:00;1723248734;10/08/24;00:12:14;1.012;-0.06;0.082;-0.5082398653030396;0.3017674386501312;0.1661553531885147
01:00:0A:00:00:00:00;1723248735;10/08/24;00:12:15;0.983;-0.166;0.072;-0.34086278080940247;0.20036379992961884;0.059864792972803116
01:00:0A:00:00:00:00;1723248736;10/08/24;00:12:16;0.919;-0.072;0.412;-0.12095131725072861;0.09162978082895279;-0.5302309989929199
01:00:0A:00:00:00:00;1723248737;10/08/24;00:12:17;0.97;0.149;0.29;-0.6096435189247131;-0.6181955933570862;-0.025656338781118393
01:00:0A:00:00:00:00;1723248738;10/08/24;00:12:18;1.022;0.058;-0.163;-0.6817255616188049;-0.06230825558304787;0.14538592100143433
01:00:0A:00:00:00:00;1723248739;10/08/24;00:12:19;1.018;-0.139;0.217;-0.5681046843528748;0.4056144952774048;0.045204028487205505
01:00:0A:00:00:00:00;1723248740;10/08/24;00:12:20;0.973;0.002;0.324;-0.607200026512146;-0.012217304669320583;-0.44104471802711487
01:00:0A:00:00:00:00;1723248741;10/08/24;00:12:21;0.983;0.082;0.055;-0.8393288850784302;-0.39095374941825867;-0.07819075137376785
01:00:0A:00:00:00:00;1723248742;10/08/24;00:12:22;0.983;-0.065;0.046;-0.797789990901947;0.04764748737215996;0.29077184200286865
01:00:0A:00:00:00:00;1723248743;10/08/24;00:12:23;0.999;-0.129;0.081;-0.3530800938606262;0.11239919811487198;-0.4080579876899719
01:00:0A:00:00:00:00;1723248744;10/08/24;00:12:24;1.017;0.13;0.214;-0.5583308339118958;-0.29077184200286865;-0.1466076523065567
01:00:0A:00:00:00:00;1723248745;10/08/24;00:12:25;1.038;0.086;-0.122;-0.8026769161224365;-0.13927726447582245;0.23579397797584534
01:00:0A:00:00:00:00;1723248746;10/08/24;00:12:26;1.017;-0.114;0.224;-0.7599163055419922;0.19425514340400696;0.06963863223791122
01:00:0A:00:00:00:00;1723248747;10/08/24;00:12:27;0.99;0.103;0.148;-0.7538076639175415;-0.08918632566928864;-0.2638937830924988
01:00:0A:00:00:00:00;1723248748;10/08/24;00:12:28;0.946;0.105;0.246;-2.2382102012634277;-0.40072759985923767;-0.23457224667072296
01:00:0A:00:00:00:00;1723248749;10/08/24;00:12:29;1.014;0.08;0.078;-2.059837579727173;-0.4056144952774048;-0.37140607833862305
01:00:0A:00:00:00:00;1723248750;10/08/24;00:12:30;1.025;-0.006;0.173;-2.0231857299804688;-0.2577851116657257;0.080634206533432
01:00:0A:00:00:00:00;1723248751;10/08/24;00:12:31;1.042;-0.004;-0.061;-1.6811010837554932;0.19792033731937408;-0.059864792972803116
01:00:0A:00:00:00:00;1723248752;10/08/24;00:12:32;1.001;-0.274;0.108;-1.4013248682022095;0.16493360698223114;0.08429940044879913
01:00:0A:00:00:00:00;1723248753;10/08/24;00:12:33;0.982;-0.147;0.323;-3.910759210586548;0.1417207270860672;-0.1417207270860672
01:00:0A:00:00:00:00;1723248754;10/08/24;00:12:34;1.009;0.162;0.114;-3.17161226272583;-0.11850785464048386;-0.16493360698223114
01:00:0A:00:00:00:00;1723248755;10/08/24;00:12:35;1.03;-0.081;0.057;-2.8344147205352783;-0.1563815027475357;-0.29077184200286865
01:00:0A:00:00:00:00;1723248756;10/08/24;00:12:36;1.012;-0.123;0.183;-2.4996607303619385;0.27488934993743896;0.013439035043120384
01:00:0A:00:00:00:00;1723248757;10/08/24;00:12:37;1.005;-0.126;0.332;-3.0946433544158936;0.0073303827084600925;-0.09529497474431992
01:00:0A:00:00:00:00;1723248758;10/08/24;00:12:38;0.944;0.307;-0.177;-2.138028383255005;-0.0708603635430336;0.10506881773471832
01:00:0A:00:00:00:00;1723248759;10/08/24;00:12:39;1.002;-0.117;-0.204;-1.8350391387939453;-0.2883284091949463;0.2528982162475586
01:00:0A:00:00:00:00;1723248760;10/08/24;00:12:40;1.032;0.029;0.067;-1.451415777206421;0.39828410744667053;0.2626720666885376
01:00:0A:00:00:00:00;1723248761;10/08/24;00:12:41;0.976;-0.361;0.013;-1.0103710889816284;0.059864792972803116;0.036651913076639175
01:00:0A:00:00:00:00;1723248762;10/08/24;00:12:42;0.982;0.006;0.347;-0.740368664264679;0.27000245451927185;-0.38117989897727966
01:00:0A:00:00:00:00;1723248763;10/08/24;00:12:43;0.891;0.459;0.206;-2.048841953277588;-0.9126326441764832;-0.31642818450927734
01:00:0A:00:00:00:00;1723248764;10/08/24;00:12:44;0.89;0.394;0.284;-2.431243658065796;-1.0604619979858398;-0.5729915499687195
01:00:0A:00:00:00:00;1723248765;10/08/24;00:12:45;0.968;0.058;0.296;-2.6988024711608887;-0.8161159753799438;-0.6255260109901428
01:00:0A:00:00:00:00;1723248766;10/08/24;00:12:46;0.992;-0.074;-0.042;2.5411994457244873;-0.17837265133857727;0.27488934993743896
01:00:0A:00:00:00:00;1723248767;10/08/24;00:12:47;1.004;0.0;0.225;1.5125023126602173;-0.04153883829712868;0.251676470041275
01:00:0A:00:00:00:00;1723248768;10/08/24;00:12:48;0.985;0.26;-0.327;2.5900685787200928;0.251676470041275;-0.6096435189247131
01:00:0A:00:00:00:00;1723248769;10/08/24;00:12:49;0.988;0.306;-0.082;1.1899654865264893;0.13561207056045532;-0.030543262138962746
01:00:0A:00:00:00:00;1723248770;10/08/24;00:12:50;0.933;0.035;0.478;0.27611109614372253;0.2932153046131134;0.025656338781118393
01:00:0A:00:00:00:00;1723248771;10/08/24;00:12:51;1.038;-0.212;0.019;-0.3677408695220947;-0.40072759985923767;0.3530800938606262
01:00:0A:00:00:00:00;1723248772;10/08/24;00:12:52;1.008;-0.188;-0.008;-0.18814648687839508;0.25045475363731384;-0.13316862285137177
01:00:0A:00:00:00:00;1723248773;10/08/24;00:12:53;0.958;0.005;-0.163;-0.656069278717041;-0.3188716471195221;0.5106833577156067
01:00:0A:00:00:00:00;1723248774;10/08/24;00:12:54;0.991;0.156;0.228;-0.7489207983016968;0.08185594528913498;-0.8820894360542297
01:00:0A:00:00:00:00;1723248775;10/08/24;00:12:55;1.014;0.173;0.242;-0.21502456068992615;-0.6133087277412415;-0.0012217304902151227
01:00:0A:00:00:00:00;1723248776;10/08/24;00:12:56;1.004;-0.149;-0.134;-0.2076941877603531;0.16859880089759827;-0.4862487316131592
01:00:0A:00:00:00:00;1723248777;10/08/24;00:12:57;0.994;0.059;0.132;-2.8405234813690186;-0.2321287840604782;-0.05375614017248154
01:00:0A:00:00:00:00;1723248778;10/08/24;00:12:58;1.012;-0.007;0.075;-2.522873640060425;-0.14782939851284027;-0.09651670604944229
01:00:0A:00:00:00:00;1723248779;10/08/24;00:12:59;1.02;0.058;0.057;-2.191784381866455;-0.012217304669320583;-0.05009094998240471
01:00:0A:00:00:00:00;1723248780;10/08/24;00:13:00;1.047;-0.093;0.148;-1.9950858354568481;-0.006108652334660292;-0.12217304855585098
01:00:0A:00:00:00:00;1723248781;10/08/24;00:13:01;1.049;-0.08;-0.081;-1.6395622491836548;-0.0354301817715168;0.059864792972803116
01:00:0A:00:00:00:00;1723248782;10/08/24;00:13:02;1.023;-0.105;0.061;-1.2803735733032227;0.06963863223791122;0.2028072476387024
01:00:0A:00:00:00:00;1723248783;10/08/24;00:13:03;0.967;0.122;0.137;-1.0213667154312134;0.3029891550540924;-0.3946189284324646
01:00:0A:00:00:00:00;1723248784;10/08/24;00:13:04;0.985;-0.025;0.068;-1.137431025505066;-0.46547931432724;0.1514945775270462
01:00:0A:00:00:00:00;1723248785;10/08/24;00:13:05;0.988;0.079;0.006;-0.921184778213501;0.2174680233001709;0.025656338781118393
01:00:0A:00:00:00:00;1723248786;10/08/24;00:13:06;0.999;-0.121;0.146;-0.7855727076530457;-0.019547687843441963;-0.02932153083384037
01:00:0A:00:00:00:00;1723248787;10/08/24;00:13:07;1.037;-0.02;0.061;-0.6010913848876953;0.04886921867728233;-0.12095131725072861
01:00:0A:00:00:00:00;1723248788;10/08/24;00:13:08;1.039;0.019;0.088;-0.5473352670669556;-0.03176499158143997;0.05619959905743599
01:00:0A:00:00:00:00;1723248789;10/08/24;00:13:09;1.011;-0.023;0.018;-0.4508185386657715;-0.036651913076639175;-0.04398229718208313
01:00:0A:00:00:00:00;1723248790;10/08/24;00:13:10;0.978;0.029;0.103;-0.37629297375679016;0.12950342893600464;-0.08674286305904388
01:00:0A:00:00:00:00;1723248791;10/08/24;00:13:11;0.984;-0.006;0.105;-0.43249258399009705;-0.24190263450145721;0.03298672288656235
01:00:0A:00:00:00:00;1723248792;10/08/24;00:13:12;1.02;-0.052;0.046;-0.34574973583221436;0.13439035415649414;-0.013439035043120384
01:00:0A:00:00:00:00;1723248793;10/08/24;00:13:13;1.024;-0.052;0.197;-0.3335324227809906;-0.0036651913542300463;-0.06108652427792549
01:00:0A:00:00:00:00;1723248794;10/08/24;00:13:14;1.041;0.0;0.087;-0.3591887652873993;-0.06475171446800232;-0.02076941914856434
01:00:0A:00:00:00:00;1723248795;10/08/24;00:13:15;1.029;-0.053;0.048;-0.3335324227809906;0.02932153083384037;0.02932153083384037
01:00:0A:00:00:00:00;1723248796;10/08/24;00:13:16;1.005;0.006;0.087;-0.3029891550540924;0.02321287989616394;-0.12095131725072861
01:00:0A:00:00:00:00;1723248797;10/08/24;00:13:17;0.994;0.032;0.075;-0.3628539443016052;-0.11362093687057495;-0.04153883829712868
01:00:0A:00:00:00:00;1723248798;10/08/24;00:13:18;0.996;0.0;0.05;-0.3579670488834381;-0.0073303827084600925;0.04642575979232788
01:00:0A:00:00:00:00;1723248799;10/08/24;00:13:19;1.013;-0.039;0.096;-0.322536826133728;0.03298672288656235;-0.040317103266716
01:00:0A:00:00:00:00;1723248800;10/08/24;00:13:20;1.02;0.004;0.122;-0.3298672139644623;-0.08674286305904388;-0.09773843735456467
01:00:0A:00:00:00:00;1723248801;10/08/24;00:13:21;1.031;0.028;0.055;-0.3494149148464203;-0.013439035043120384;0.021991148591041565
01:00:0A:00:00:00:00;1723248802;10/08/24;00:13:22;1.022;-0.094;0.133;-0.33597588539123535;0.04886921867728233;0.030543262138962746
01:00:0A:00:00:00:00;1723248803;10/08/24;00:13:23;1.017;-0.015;0.106;-0.2981022298336029;-0.030543262138962746;-0.10506881773471832
01:00:0A:00:00:00:00;1723248804;10/08/24;00:13:24;1.015;0.045;0.071;-0.3445279896259308;-0.02076941914856434;0.05009094998240471
01:00:0A:00:00:00:00;1723248805;10/08/24;00:13:25;1.01;-0.052;0.083;-0.3323107063770294;0.010995574295520782;0.07696902006864548
01:00:0A:00:00:00:00;1723248806;10/08/24;00:13:26;1.005;-0.015;0.09;-0.24923302233219147;0.006108652334660292;-0.11484266817569733
01:00:0A:00:00:00:00;1723248807;10/08/24;00:13:27;1.003;0.001;0.079;-0.2565633952617645;-0.03420845419168472;-0.006108652334660292
01:00:0A:00:00:00:00;1723248808;10/08/24;00:13:28;1.011;-0.059;0.046;-0.22357667982578278;-0.0012217304902151227;0.006108652334660292
01:00:0A:00:00:00:00;1723248809;10/08/24;00:13:29;1.012;-0.034;0.082;-0.17104226350784302;0.02321287989616394;-0.06475171446800232
01:00:0A:00:00:00:00;1723248810;10/08/24;00:13:30;1.021;-0.008;0.111;-0.20525071024894714;-0.07941248267889023;0.04398229718208313
01:00:0A:00:00:00:00;1723248811;10/08/24;00:13:31;1.026;-0.055;0.077;-0.17592918872833252;-0.02932153083384037;0.03420845419168472
01:00:0A:00:00:00:00;1723248812;10/08/24;00:13:32;1.024;-0.031;0.12;-0.11972958594560623;0.0708603635430336;0.0012217304902151227
01:00:0A:00:00:00:00;1723248813;10/08/24;00:13:33;1.021;-0.051;0.09;-0.08918632566928864;-0.0036651913542300463;0.02076941914856434
01:00:0A:00:00:00:00;1723248814;10/08/24;00:13:34;1.006;-0.035;0.037;-0.02687807008624077;0.028099799528717995;-0.04764748737215996
01:00:0A:00:00:00:00;1723248815;10/08/24;00:13:35;0.999;0.0;0.07;-0.014660765416920185;0.01710422709584236;-0.019547687843441963
01:00:0A:00:00:00:00;1723248816;10/08/24;00:13:36;1.013;-0.04;0.096;-0.030543262138962746;-0.09285151958465576;0.040317103266716
01:00:0A:00:00:00:00;1723248817;10/08/24;00:13:37;1.044;-0.065;0.051;0.02932153083384037;-0.039095375686883926;-0.019547687843441963
01:00:0A:00:00:00:00;1723248818;10/08/24;00:13:38;1.045;-0.004;0.095;0.04886921867728233;0.025656338781118393;0.0073303827084600925
01:00:0A:00:00:00:00;1723248819;10/08/24;00:13:39;1.004;-0.053;0.059;0.0354301817715168;-0.06108652427792549;0.10018189996480942
01:00:0A:00:00:00:00;1723248820;10/08/24;00:13:40;0.973;-0.015;0.057;0.08796459436416626;-0.018325956538319588;-0.06352998316287994
01:00:0A:00:00:00:00;1723248821;10/08/24;00:13:41;0.977;0.001;0.091;0.05497787147760391;-0.051312677562236786;0.0708603635430336
01:00:0A:00:00:00:00;1723248822;10/08/24;00:13:42;1.007;-0.029;0.1;0.07819075137376785;-0.04764748737215996;-0.039095375686883926
01:00:0A:00:00:00:00;1723248823;10/08/24;00:13:43;1.04;0.001;0.085;0.08429940044879913;0.02932153083384037;-0.021991148591041565
01:00:0A:00:00:00:00;1723248824;10/08/24;00:13:44;1.032;-0.021;0.082;0.07208210229873657;0.04153883829712868;0.010995574295520782
01:00:0A:00:00:00:00;1723248825;10/08/24;00:13:45;1.012;-0.037;0.065;0.0708603635430336;-0.024434609338641167;-0.006108652334660292
01:00:0A:00:00:00:00;1723248826;10/08/24;00:13:46;0.998;-0.014;0.064;0.06352998316287994;-0.0354301817715168;0.013439035043120384
01:00:0A:00:00:00:00;1723248827;10/08/24;00:13:47;1.007;-0.013;0.08;0.051312677562236786;-0.04153883829712868;0.03787364438176155
01:00:0A:00:00:00:00;1723248828;10/08/24;00:13:48;1.029;-0.018;0.092;0.05619959905743599;-0.03176499158143997;-0.00855211354792118
01:00:0A:00:00:00:00;1723248829;10/08/24;00:13:49;1.036;0.0;0.082;0.051312677562236786;0.009773843921720982;0.006108652334660292
01:00:0A:00:00:00:00;1723248830;10/08/24;00:13:50;1.003;-0.023;0.09;0.04398229718208313;0.039095375686883926;0.025656338781118393
01:00:0A:00:00:00:00;1723248831;10/08/24;00:13:51;0.987;-0.027;0.071;0.051312677562236786;-0.014660765416920185;-0.019547687843441963
01:00:0A:00:00:00:00;1723248832;10/08/24;00:13:52;0.999;-0.014;0.074;0.05009094998240471;-0.009773843921720982;0.0036651913542300463
01:00:0A:00:00:00:00;1723248833;10/08/24;00:13:53;1.037;-0.024;0.092;0.04642575979232788;-0.03787364438176155;0.021991148591041565
01:00:0A:00:00:00:00;1723248834;10/08/24;00:13:54;1.054;-0.015;0.081;0.04764748737215996;-0.019547687843441963;0.02076941914856434
01:00:0A:00:00:00:00;1723248835;10/08/24;00:13:55;1.025;-0.008;0.094;0.05009094998240471;0.019547687843441963;0.009773843921720982
01:00:0A:00:00:00:00;1723248836;10/08/24;00:13:56;0.998;-0.015;0.084;0.045204028487205505;0.0012217304902151227;0.019547687843441963
01:00:0A:00:00:00:00;1723248837;10/08/24;00:13:57;0.975;-0.013;0.069;0.05742133408784866;-0.012217304669320583;-0.021991148591041565
01:00:0A:00:00:00:00;1723248838;10/08/24;00:13:58;0.984;-0.009;0.063;0.059864792972803116;-0.02932153083384037;-0.009773843921720982
01:00:0A:00:00:00:00;1723248839;10/08/24;00:13:59;1.026;-0.016;0.067;0.0659734457731247;-0.025656338781118393;0.0
01:00:0A:00:00:00:00;1723248840;10/08/24;00:14:00;1.039;-0.024;0.085;0.07330382615327835;-0.024434609338641167;0.014660765416920185
01:00:0A:00:00:00:00;1723248841;10/08/24;00:14:01;1.043;-0.015;0.082;0.0757472887635231;-0.013439035043120384;0.010995574295520782
01:00:0A:00:00:00:00;1723248842;10/08/24;00:14:02;1.016;-0.015;0.082;0.080634206533432;0.004886921960860491;0.01710422709584236
01:00:0A:00:00:00:00;1723248843;10/08/24;00:14:03;1.002;-0.015;0.08;0.08674286305904388;-0.0024434609804302454;0.004886921960860491
01:00:0A:00:00:00:00;1723248844;10/08/24;00:14:04;1.002;-0.014;0.086;0.4740314185619354;0.07330382615327835;0.009773843921720982
01:00:0A:00:00:00:00;1723248845;10/08/24;00:14:05;0.996;-0.006;0.099;0.38117989897727966;-0.03787364438176155;0.039095375686883926
01:00:0A:00:00:00:00;1723248846;10/08/24;00:14:06;1.006;-0.028;0.072;0.35185837745666504;-0.036651913076639175;0.03787364438176155
01:00:0A:00:00:00:00;1723248847;10/08/24;00:14:07;1.018;-0.016;0.083;0.35552355647087097;0.00855211354792118;-0.02321287989616394
01:00:0A:00:00:00:00;1723248848;10/08/24;00:14:08;1.023;0.01;0.097;0.31031954288482666;-0.009773843921720982;0.042760565876960754
01:00:0A:00:00:00:00;1723248849;10/08/24;00:14:09;1.022;-0.042;0.073;0.2993239760398865;-0.014660765416920185;0.0708603635430336
01:00:0A:00:00:00:00;1723248850;10/08/24;00:14:10;1.014;-0.015;0.08;0.32009339332580566;-0.004886921960860491;-0.021991148591041565
01:00:0A:00:00:00:00;1723248851;10/08/24;00:14:11;1.01;-0.001;0.072;0.2981022298336029;-0.02321287989616394;0.04398229718208313
01:00:0A:00:00:00:00;1723248852;10/08/24;00:14:12;1.011;-0.03;0.083;0.29565879702568054;-0.0073303827084600925;0.05009094998240471
01:00:0A:00:00:00:00;1723248853;10/08/24;00:14:13;1.018;-0.012;0.09;0.3078760802745819;-0.01710422709584236;-0.01710422709584236
01:00:0A:00:00:00:00;1723248854;10/08/24;00:14:14;1.023;-0.014;0.08;0.2932153046131134;0.006108652334660292;0.019547687843441963
01:00:0A:00:00:00:00;1723248855;10/08/24;00:14:15;1.012;-0.032;0.099;0.2785545289516449;0.02932153083384037;0.06108652427792549
01:00:0A:00:00:00:00;1723248856;10/08/24;00:14:16;1.0;-0.007;0.081;0.26145032048225403;-0.012217304669320583;0.02321287989616394
01:00:0A:00:00:00:00;1723248857;10/08/24;00:14:17;0.995;0.0;0.063;0.24434609711170197;0.00855211354792118;0.02321287989616394
01:00:0A:00:00:00:00;1723248858;10/08/24;00:14:18;1.005;-0.004;0.071;0.2321287840604782;-0.04764748737215996;-0.0024434609804302454
01:00:0A:00:00:00:00;1723248859;10/08/24;00:14:19;1.02;-0.021;0.068;0.22602014243602753;-0.08796459436416626;-0.0012217304902151227
01:00:0A:00:00:00:00;1723248860;10/08/24;00:14:20;1.022;-0.022;0.08;0.23457224667072296;-0.036651913076639175;-0.00855211354792118
01:00:0A:00:00:00:00;1723248861;10/08/24;00:14:21;1.018;-0.012;0.102;0.2272418737411499;-0.004886921960860491;0.03176499158143997
01:00:0A:00:00:00:00;1723248862;10/08/24;00:14:22;1.034;-0.037;0.098;0.2321287840604782;0.02076941914856434;0.03298672288656235
01:00:0A:00:00:00:00;1723248863;10/08/24;00:14:23;1.05;-0.034;0.071;0.2541199326515198;0.019547687843441963;-0.015882495790719986
01:00:0A:00:00:00:00;1723248864;10/08/24;00:14:24;1.023;-0.009;0.071;0.23945917189121246;0.006108652334660292;0.0024434609804302454
01:00:0A:00:00:00:00;1723248865;10/08/24;00:14:25;0.994;-0.044;0.084;0.2125810980796814;0.006108652334660292;0.08674286305904388
01:00:0A:00:00:00:00;1723248866;10/08/24;00:14:26;0.961;-0.02;0.078;0.23090705275535583;-0.06475171446800232;-0.04153883829712868
01:00:0A:00:00:00:00;1723248867;10/08/24;00:14:27;0.99;-0.003;0.076;0.21135938167572021;-0.014660765416920185;0.03787364438176155
01:00:0A:00:00:00:00;1723248868;10/08/24;00:14:28;1.027;-0.024;0.103;0.20402899384498596;-0.051312677562236786;-0.0012217304902151227
01:00:0A:00:00:00:00;1723248869;10/08/24;00:14:29;1.055;-0.041;0.072;-0.0659734457731247;-0.08552113175392151;-0.25534167885780334
01:00:0A:00:00:00:00;1723248870;10/08/24;00:14:30;1.057;-0.047;0.095;-0.2724458873271942;0.03420845419168472;0.059864792972803116
01:00:0A:00:00:00:00;1723248871;10/08/24;00:14:31;1.018;-0.02;0.081;-0.20036379992961884;0.012217304669320583;-0.03420845419168472
01:00:0A:00:00:00:00;1723248872;10/08/24;00:14:32;0.981;0.003;0.063;-0.18448130786418915;-0.02321287989616394;0.0024434609804302454
01:00:0A:00:00:00:00;1723248873;10/08/24;00:14:33;0.97;-0.014;0.064;-0.16249015927314758;-0.014660765416920185;0.02687807008624077
01:00:0A:00:00:00:00;1723248874;10/08/24;00:14:34;0.994;-0.014;0.081;-0.1160643920302391;-0.04642575979232788;-0.080634206533432
01:00:0A:00:00:00:00;1723248875;10/08/24;00:14:35;1.046;0.013;0.098;-0.13072516024112701;-0.0354301817715168;0.01710422709584236
01:00:0A:00:00:00:00;1723248876;10/08/24;00:14:36;1.061;-0.059;0.072;-0.10384709388017654;0.00855211354792118;0.025656338781118393
01:00:0A:00:00:00:00;1723248877;10/08/24;00:14:37;1.041;0.016;0.104;-0.08185594528913498;0.04886921867728233;-0.040317103266716
01:00:0A:00:00:00:00;1723248878;10/08/24;00:14:38;0.985;-0.031;0.058;-0.10506881773471832;-0.06108652427792549;0.10018189996480942
01:00:0A:00:00:00:00;1723248879;10/08/24;00:14:39;0.955;-0.005;0.081;-0.04398229718208313;0.04764748737215996;-0.07696902006864548
01:00:0A:00:00:00:00;1723248880;10/08/24;00:14:40;0.984;0.003;0.098;-0.08552113175392151;-0.11362093687057495;0.042760565876960754
01:00:0A:00:00:00:00;1723248881;10/08/24;00:14:41;1.028;-0.037;0.056;-0.03420845419168472;0.04886921867728233;-0.06841690838336945
01:00:0A:00:00:00:00;1723248882;10/08/24;00:14:42;1.055;0.005;0.139;-0.059864792972803116;-0.009773843921720982;0.024434609338641167
01:00:0A:00:00:00:00;1723248883;10/08/24;00:14:43;1.043;-0.031;0.04;-0.0659734457731247;-0.05619959905743599;0.06108652427792549
01:00:0A:00:00:00:00;1723248884;10/08/24;00:14:44;1.007;0.0;0.103;-0.02687807008624077;0.09040805697441101;-0.021991148591041565
01:00:0A:00:00:00:00;1723248885;10/08/24;00:14:45;0.977;-0.008;0.094;-0.06108652427792549;-0.09773843735456467;0.02932153083384037
01:00:0A:00:00:00:00;1723248886;10/08/24;00:14:46;0.988;-0.018;0.066;-0.02932153083384037;0.004886921960860491;-0.02687807008624077
01:00:0A:00:00:00:00;1723248887;10/08/24;00:14:47;1.015;-0.011;0.106;-0.025656338781118393;0.010995574295520782;-0.02076941914856434
01:00:0A:00:00:00:00;1723248888;10/08/24;00:14:48;1.032;-0.022;0.1;-0.04153883829712868;-0.042760565876960754;-0.0024434609804302454
01:00:0A:00:00:00:00;1723248889;10/08/24;00:14:49;1.036;-0.019;0.055;-0.03298672288656235;-0.014660765416920185;0.0036651913542300463
01:00:0A:00:00:00:00;1723248890;10/08/24;00:14:50;1.021;-0.011;0.104;-0.03420845419168472;0.018325956538319588;0.00855211354792118
01:00:0A:00:00:00:00;1723248891;10/08/24;00:14:51;1.006;-0.018;0.091;-0.051312677562236786;-0.06352998316287994;0.010995574295520782
01:00:0A:00:00:00:00;1723248892;10/08/24;00:14:52;1.0;-0.019;0.074;-0.04153883829712868;-0.0073303827084600925;-0.0073303827084600925
01:00:0A:00:00:00:00;1723248893;10/08/24;00:14:53;1.0;-0.012;0.102;-0.04398229718208313;0.009773843921720982;0.0036651913542300463
01:00:0A:00:00:00:00;1723248894;10/08/24;00:14:54;1.009;-0.011;0.095;-0.059864792972803116;-0.04764748737215996;0.0073303827084600925
01:00:0A:00:00:00:00;1723248895;10/08/24;00:14:55;1.016;-0.012;0.073;-0.05253440886735916;0.004886921960860491;-0.012217304669320583
01:00:0A:00:00:00:00;1723248896;10/08/24;00:14:56;1.024;-0.016;0.104;-0.05497787147760391;-0.004886921960860491;-0.012217304669320583
01:00:0A:00:00:00:00;1723248897;10/08/24;00:14:57;1.031;-0.018;0.095;-0.06352998316287994;-0.02687807008624077;-0.012217304669320583
01:00:0A:00:00:00:00;1723248898;10/08/24;00:14:58;1.025;-0.012;0.076;-0.06475171446800232;0.0;0.009773843921720982
01:00:0A:00:00:00:00;1723248899;10/08/24;00:14:59;1.013;-0.016;0.097;-0.06719517707824707;0.006108652334660292;0.0073303827084600925
01:00:0A:00:00:00:00;1723248900;10/08/24;00:15:00;0.996;-0.017;0.086;-0.06841690838336945;-0.04764748737215996;-0.014660765416920185
01:00:0A:00:00:00:00;1723248901;10/08/24;00:15:01;1.001;-0.013;0.081;-0.06719517707824707;-0.013439035043120384;0.0012217304902151227
01:00:0A:00:00:00:00;1723248902;10/08/24;00:15:02;1.013;-0.017;0.1;-0.0708603635430336;-0.013439035043120384;0.009773843921720982
01:00:0A:00:00:00:00;1723248903;10/08/24;00:15:03;1.029;-0.016;0.092;-0.0708603635430336;-0.009773843921720982;-0.0024434609804302454
01:00:0A:00:00:00:00;1723248904;10/08/24;00:15:04;1.029;-0.007;0.08;-0.0708603635430336;0.0024434609804302454;-0.0012217304902151227
01:00:0A:00:00:00:00;1723248905;10/08/24;00:15:05;1.02;-0.017;0.093;-0.06963863223791122;0.0024434609804302454;-0.012217304669320583
01:00:0A:00:00:00:00;1723248906;10/08/24;00:15:06;1.018;-0.018;0.082;-0.06719517707824707;-0.02321287989616394;-0.03298672288656235
01:00:0A:00:00:00:00;1723248907;10/08/24;00:15:07;1.013;-0.029;0.081;-0.06719517707824707;-0.0036651913542300463;0.0012217304902151227
01:00:0A:00:00:00:00;1723248908;10/08/24;00:15:08;1.007;-0.029;0.085;-0.06841690838336945;-0.009773843921720982;0.021991148591041565
01:00:0A:00:00:00:00;1723248909;10/08/24;00:15:09;0.996;-0.015;0.083;-0.06352998316287994;-0.03787364438176155;0.0036651913542300463
01:00:0A:00:00:00:00;1723248910;10/08/24;00:15:10;1.006;-0.008;0.087;-0.059864792972803116;-0.019547687843441963;0.0024434609804302454
01:00:0A:00:00:00:00;1723248911;10/08/24;00:15:11;1.017;-0.013;0.091;-0.05497787147760391;-0.030543262138962746;-0.021991148591041565
01:00:0A:00:00:00:00;1723248912;10/08/24;00:15:12;1.032;-0.022;0.093;-0.05375614017248154;-0.00855211354792118;-0.01710422709584236
01:00:0A:00:00:00:00;1723248913;10/08/24;00:15:13;1.031;-0.022;0.091;-0.05619959905743599;0.0073303827084600925;0.009773843921720982
01:00:0A:00:00:00:00;1723248914;10/08/24;00:15:14;1.012;-0.021;0.084;-0.05742133408784866;-0.0024434609804302454;0.01710422709584236
01:00:0A:00:00:00:00;1723248915;10/08/24;00:15:15;0.998;-0.012;0.082;-0.05619959905743599;-0.013439035043120384;0.006108652334660292
01:00:0A:00:00:00:00;1723248916;10/08/24;00:15:16;0.991;-0.009;0.083;-0.05864306166768074;-0.018325956538319588;-0.0036651913542300463
01:00:0A:00:00:00:00;1723248917;10/08/24;00:15:17;1.007;-0.012;0.086;-0.05619959905743599;-0.02687807008624077;-0.019547687843441963
01:00:0A:00:00:00:00;1723248918;10/08/24;00:15:18;1.036;-0.015;0.09;-0.05742133408784866;-0.012217304669320583;-0.0073303827084600925
01:00:0A:00:00:00:00;1723248919;10/08/24;00:15:19;1.038;-0.021;0.085;-0.05619959905743599;0.0024434609804302454;0.0073303827084600925
01:00:0A:00:00:00:00;1723248920;10/08/24;00:15:20;1.02;-0.019;0.084;-0.05497787147760391;0.0012217304902151227;0.014660765416920185
01:00:0A:00:00:00:00;1723248921;10/08/24;00:15:21;0.987;-0.011;0.08;-0.05375614017248154;-0.01710422709584236;0.00855211354792118
01:00:0A:00:00:00:00;1723248922;10/08/24;00:15:22;0.984;-0.014;0.082;-0.05009094998240471;-0.02687807008624077;0.0012217304902151227
01:00:0A:00:00:00:00;1723248923;10/08/24;00:15:23;1.007;-0.017;0.089;-0.04398229718208313;-0.030543262138962746;-0.015882495790719986
01:00:0A:00:00:00:00;1723248924;10/08/24;00:15:24;1.028;-0.02;0.093;-0.039095375686883926;-0.014660765416920185;-0.015882495790719986
01:00:0A:00:00:00:00;1723248925;10/08/24;00:15:25;1.04;-0.026;0.09;-0.040317103266716;0.0036651913542300463;0.009773843921720982
