Source;Epoch timestamp (UTC);Date;Time (UTC);Accel X (G);Accel Y (G);Accel Z (G);Gyro X (rad/s);Gyro Y (rad/s);Gyro Z (rad/s)
01:00:0A:00:00:00:00;1726185617;13/09/24;00:00:17;1.017;0.0;0.134;-0.0024434609804302454;-0.015882495790719986;0.019547687843441963
01:00:0A:00:00:00:00;1726185618;13/09/24;00:00:18;1.016;0.008;0.125;0.02076941914856434;-0.0036651913542300463;-0.021991148591041565
01:00:0A:00:00:00:00;1726185619;13/09/24;00:00:19;1.008;0.022;0.13;-0.0024434609804302454;0.004886921960860491;0.0036651913542300463
01:00:0A:00:00:00:00;1726185620;13/09/24;00:00:20;1.006;0.0;0.129;-0.006108652334660292;-0.014660765416920185;0.014660765416920185
01:00:0A:00:00:00:00;1726185621;13/09/24;00:00:21;1.006;0.005;0.122;0.013439035043120384;-0.01710422709584236;-0.015882495790719986
01:00:0A:00:00:00:00;1726185622;13/09/24;00:00:22;1.005;0.016;0.127;-0.00855211354792118;-0.009773843921720982;0.014660765416920185
01:00:0A:00:00:00:00;1726185623;13/09/24;00:00:23;1.012;0.004;0.133;-0.0073303827084600925;-0.02687807008624077;0.01710422709584236
01:00:0A:00:00:00:00;1726185624;13/09/24;00:00:24;1.018;0.009;0.127;0.00855211354792118;-0.015882495790719986;-0.012217304669320583
01:00:0A:00:00:00:00;1726185625;13/09/24;00:00:25;1.016;0.018;0.133;-0.0073303827084600925;0.0036651913542300463;0.0012217304902151227
01:00:0A:00:00:00:00;1726185626;13/09/24;00:00:26;1.01;0.003;0.132;-0.00855211354792118;-0.0073303827084600925;0.00855211354792118
01:00:0A:00:00:00:00;1726185627;13/09/24;00:00:27;1.006;0.006;0.121;0.0073303827084600925;-0.010995574295520782;-0.014660765416920185
01:00:0A:00:00:00:00;1726185628;13/09/24;00:00:28;1.006;0.013;0.124;-0.009773843921720982;-0.010995574295520782;0.012217304669320583
01:00:0A:00:00:00:00;1726185629;13/09/24;00:00:29;1.011;0.003;0.132;-0.006108652334660292;-0.02687807008624077;0.013439035043120384
01:00:0A:00:00:00:00;1726185630;13/09/24;00:00:30;1.015;0.011;0.126;0.0024434609804302454;-0.01710422709584236;-0.0036651913542300463
01:00:0A:00:00:00:00;1726185631;13/09/24;00:00:31;1.016;0.015;0.132;-0.00855211354792118;-0.0024434609804302454;0.006108652334660292
01:00:0A:00:00:00:00;1726185632;13/09/24;00:00:32;1.013;0.005;0.131;-0.0036651913542300463;-0.00855211354792118;0.0
01:00:0A:00:00:00:00;1726185633;13/09/24;00:00:33;1.01;0.008;0.123;0.0036651913542300463;-0.010995574295520782;-0.013439035043120384
01:00:0A:00:00:00:00;1726185634;13/09/24;00:00:34;1.007;0.008;0.125;-0.009773843921720982;-0.0036651913542300463;0.009773843921720982
01:00:0A:00:00:00:00;1726185635;13/09/24;00:00:35;1.01;0.004;0.13;-0.0036651913542300463;-0.025656338781118393;0.010995574295520782
01:00:0A:00:00:00:00;1726185636;13/09/24;00:00:36;1.015;0.012;0.127;0.0024434609804302454;-0.021991148591041565;0.0
01:00:0A:00:00:00:00;1726185637;13/09/24;00:00:37;1.014;0.014;0.133;-0.006108652334660292;0.0024434609804302454;0.0036651913542300463
01:00:0A:00:00:00:00;1726185638;13/09/24;00:00:38;1.012;0.006;0.132;0.0;-0.006108652334660292;-0.0012217304902151227
01:00:0A:00:00:00:00;1726185639;13/09/24;00:00:39;1.006;0.009;0.122;0.0036651913542300463;-0.009773843921720982;-0.00855211354792118
01:00:0A:00:00:00:00;1726185640;13/09/24;00:00:40;1.007;0.008;0.126;-0.004886921960860491;-0.0073303827084600925;0.006108652334660292
01:00:0A:00:00:00:00;1726185641;13/09/24;00:00:41;1.012;0.003;0.132;0.0012217304902151227;-0.02687807008624077;0.00855211354792118
01:00:0A:00:00:00:00;1726185642;13/09/24;00:00:42;1.015;0.013;0.127;0.0036651913542300463;-0.015882495790719986;0.0012217304902151227
01:00:0A:00:00:00:00;1726185643;13/09/24;00:00:43;1.015;0.014;0.135;-0.0024434609804302454;-0.0012217304902151227;0.004886921960860491
01:00:0A:00:00:00:00;1726185644;13/09/24;00:00:44;1.012;0.006;0.134;0.006108652334660292;-0.0036651913542300463;-0.0073303827084600925
01:00:0A:00:00:00:00;1726185645;13/09/24;00:00:45;1.01;0.008;0.123;0.0073303827084600925;-0.0024434609804302454;-0.0073303827084600925
01:00:0A:00:00:00:00;1726185646;13/09/24;00:00:46;1.005;0.006;0.124;-0.0012217304902151227;-0.0012217304902151227;0.009773843921720982
01:00:0A:00:00:00:00;1726185647;13/09/24;00:00:47;1.006;0.005;0.127;0.0073303827084600925;-0.025656338781118393;0.006108652334660292
01:00:0A:00:00:00:00;1726185648;13/09/24;00:00:48;1.011;0.011;0.126;0.0073303827084600925;-0.025656338781118393;0.009773843921720982
01:00:0A:00:00:00:00;1726185649;13/09/24;00:00:49;1.014;0.011;0.134;0.0012217304902151227;-0.009773843921720982;0.010995574295520782
01:00:0A:00:00:00:00;1726185650;13/09/24;00:00:50;1.015;0.009;0.136;0.009773843921720982;-0.010995574295520782;-0.0036651913542300463
01:00:0A:00:00:00:00;1726185651;13/09/24;00:00:51;1.014;0.011;0.125;0.009773843921720982;-0.0073303827084600925;-0.006108652334660292
01:00:0A:00:00:00:00;1726185652;13/09/24;00:00:52;1.012;0.007;0.129;0.004886921960860491;-0.0012217304902151227;0.0024434609804302454
01:00:0A:00:00:00:00;1726185653;13/09/24;00:00:53;1.012;0.004;0.131;0.009773843921720982;-0.015882495790719986;0.0024434609804302454
01:00:0A:00:00:00:00;1726185654;13/09/24;00:00:54;1.011;0.01;0.123;0.0073303827084600925;-0.014660765416920185;0.006108652334660292
01:00:0A:00:00:00:00;1726185655;13/09/24;00:00:55;1.008;0.01;0.129;0.0036651913542300463;-0.004886921960860491;0.0073303827084600925
01:00:0A:00:00:00:00;1726185656;13/09/24;00:00:56;1.009;0.009;0.132;0.012217304669320583;-0.018325956538319588;-0.0024434609804302454
01:00:0A:00:00:00:00;1726185657;13/09/24;00:00:57;1.011;0.01;0.126;0.009773843921720982;-0.012217304669320583;-0.0012217304902151227
01:00:0A:00:00:00:00;1726185658;13/09/24;00:00:58;1.011;0.006;0.129;0.0036651913542300463;-0.0024434609804302454;0.006108652334660292
01:00:0A:00:00:00:00;1726185659;13/09/24;00:00:59;1.011;0.007;0.13;0.012217304669320583;-0.02076941914856434;0.0
01:00:0A:00:00:00:00;1726185660;13/09/24;00:01:00;1.013;0.009;0.125;0.00855211354792118;-0.01710422709584236;0.0036651913542300463
01:00:0A:00:00:00:00;1726185661;13/09/24;00:01:01;1.011;0.009;0.132;0.0036651913542300463;-0.0012217304902151227;0.00855211354792118
01:00:0A:00:00:00:00;1726185662;13/09/24;00:01:02;1.011;0.009;0.132;0.010995574295520782;-0.012217304669320583;0.0
01:00:0A:00:00:00:00;1726185663;13/09/24;00:01:03;1.011;0.013;0.124;0.009773843921720982;-0.012217304669320583;0.0
01:00:0A:00:00:00:00;1726185664;13/09/24;00:01:04;1.01;0.006;0.13;0.006108652334660292;-0.0036651913542300463;0.0024434609804302454
01:00:0A:00:00:00:00;1726185665;13/09/24;00:01:05;1.009;0.006;0.131;0.012217304669320583;-0.015882495790719986;0.0
01:00:0A:00:00:00:00;1726185666;13/09/24;00:01:06;1.011;0.012;0.123;0.009773843921720982;-0.015882495790719986;0.0024434609804302454
01:00:0A:00:00:00:00;1726185667;13/09/24;00:01:07;1.01;0.008;0.129;0.006108652334660292;-0.0073303827084600925;0.004886921960860491
01:00:0A:00:00:00:00;1726185668;13/09/24;00:01:08;1.01;0.008;0.132;0.012217304669320583;-0.019547687843441963;0.0
01:00:0A:00:00:00:00;1726185669;13/09/24;00:01:09;1.011;0.009;0.126;0.00855211354792118;-0.015882495790719986;0.0036651913542300463
01:00:0A:00:00:00:00;1726185670;13/09/24;00:01:10;1.011;0.009;0.13;0.0036651913542300463;-0.0012217304902151227;0.0073303827084600925
01:00:0A:00:00:00:00;1726185671;13/09/24;00:01:11;1.012;0.009;0.132;0.012217304669320583;-0.015882495790719986;-0.0012217304902151227
01:00:0A:00:00:00:00;1726185672;13/09/24;00:01:12;1.012;0.01;0.124;0.00855211354792118;-0.012217304669320583;0.0012217304902151227
01:00:0A:00:00:00:00;1726185673;13/09/24;00:01:13;1.012;0.007;0.128;0.0036651913542300463;0.0;0.004886921960860491
01:00:0A:00:00:00:00;1726185674;13/09/24;00:01:14;1.01;0.006;0.131;0.010995574295520782;-0.013439035043120384;0.0012217304902151227
01:00:0A:00:00:00:00;1726185675;13/09/24;00:01:15;1.009;0.011;0.122;0.00855211354792118;-0.01710422709584236;0.004886921960860491
01:00:0A:00:00:00:00;1726185676;13/09/24;00:01:16;1.007;0.008;0.129;0.004886921960860491;-0.006108652334660292;0.004886921960860491
01:00:0A:00:00:00:00;1726185677;13/09/24;00:01:17;1.008;0.007;0.133;0.010995574295520782;-0.018325956538319588;0.0024434609804302454
01:00:0A:00:00:00:00;1726185678;13/09/24;00:01:18;1.011;0.01;0.124;0.009773843921720982;-0.01710422709584236;0.0036651913542300463
01:00:0A:00:00:00:00;1726185679;13/09/24;00:01:19;1.013;0.008;0.128;0.0073303827084600925;-0.0036651913542300463;0.004886921960860491
01:00:0A:00:00:00:00;1726185680;13/09/24;00:01:20;1.012;0.006;0.133;0.013439035043120384;-0.01710422709584236;0.0012217304902151227
01:00:0A:00:00:00:00;1726185681;13/09/24;00:01:21;1.012;0.008;0.124;0.009773843921720982;-0.013439035043120384;0.0073303827084600925
01:00:0A:00:00:00:00;1726185682;13/09/24;00:01:22;1.01;0.009;0.128;0.006108652334660292;0.0;0.009773843921720982
01:00:0A:00:00:00:00;1726185683;13/09/24;00:01:23;1.009;0.01;0.132;0.015882495790719986;-0.019547687843441963;-0.0024434609804302454
01:00:0A:00:00:00:00;1726185684;13/09/24;00:01:24;1.011;0.009;0.123;0.012217304669320583;-0.015882495790719986;0.0
01:00:0A:00:00:00:00;1726185685;13/09/24;00:01:25;1.012;0.007;0.129;0.0073303827084600925;0.0012217304902151227;0.004886921960860491
01:00:0A:00:00:00:00;1726185686;13/09/24;00:01:26;1.013;0.006;0.132;0.013439035043120384;-0.014660765416920185;0.0024434609804302454
01:00:0A:00:00:00:00;1726185687;13/09/24;00:01:27;1.012;0.01;0.122;0.012217304669320583;-0.01710422709584236;0.004886921960860491
01:00:0A:00:00:00:00;1726185688;13/09/24;00:01:28;1.01;0.008;0.128;0.006108652334660292;0.0;0.00855211354792118
01:00:0A:00:00:00:00;1726185689;13/09/24;00:01:29;1.008;0.008;0.132;0.012217304669320583;-0.01710422709584236;0.0012217304902151227
01:00:0A:00:00:00:00;1726185690;13/09/24;00:01:30;1.012;0.011;0.123;0.012217304669320583;-0.01710422709584236;0.0
01:00:0A:00:00:00:00;1726185691;13/09/24;00:01:31;1.013;0.007;0.129;0.006108652334660292;0.0012217304902151227;0.0036651913542300463
01:00:0A:00:00:00:00;1726185692;13/09/24;00:01:32;1.012;0.006;0.132;0.014660765416920185;-0.01710422709584236;-0.0012217304902151227
01:00:0A:00:00:00:00;1726185693;13/09/24;00:01:33;1.01;0.008;0.123;0.010995574295520782;-0.01710422709584236;0.004886921960860491
01:00:0A:00:00:00:00;1726185694;13/09/24;00:01:34;1.01;0.008;0.128;0.006108652334660292;0.0012217304902151227;0.009773843921720982
01:00:0A:00:00:00:00;1726185695;13/09/24;00:01:35;1.01;0.008;0.133;0.014660765416920185;-0.019547687843441963;0.0
01:00:0A:00:00:00:00;1726185696;13/09/24;00:01:36;1.011;0.012;0.123;0.014660765416920185;-0.02076941914856434;-0.0024434609804302454
01:00:0A:00:00:00:00;1726185697;13/09/24;00:01:37;1.013;0.008;0.13;0.0073303827084600925;-0.0012217304902151227;0.004886921960860491
01:00:0A:00:00:00:00;1726185698;13/09/24;00:01:38;1.015;0.006;0.135;0.014660765416920185;-0.010995574295520782;0.0012217304902151227
01:00:0A:00:00:00:00;1726185699;13/09/24;00:01:39;1.015;0.009;0.123;0.014660765416920185;-0.013439035043120384;0.0012217304902151227
01:00:0A:00:00:00:00;1726185700;13/09/24;00:01:40;1.008;0.009;0.128;0.0073303827084600925;0.006108652334660292;0.0073303827084600925
01:00:0A:00:00:00:00;1726185701;13/09/24;00:01:41;1.007;0.008;0.132;0.015882495790719986;-0.015882495790719986;0.0012217304902151227
01:00:0A:00:00:00:00;1726185702;13/09/24;00:01:42;1.009;0.012;0.122;0.014660765416920185;-0.019547687843441963;0.0012217304902151227
01:00:0A:00:00:00:00;1726185703;13/09/24;00:01:43;1.011;0.008;0.128;0.00855211354792118;0.0;0.004886921960860491
01:00:0A:00:00:00:00;1726185704;13/09/24;00:01:44;1.012;0.005;0.135;0.015882495790719986;-0.01710422709584236;0.0
01:00:0A:00:00:00:00;1726185705;13/09/24;00:01:45;1.013;0.01;0.123;0.014660765416920185;-0.018325956538319588;0.0036651913542300463
01:00:0A:00:00:00:00;1726185706;13/09/24;00:01:46;1.011;0.007;0.129;0.0073303827084600925;0.0024434609804302454;0.00855211354792118
01:00:0A:00:00:00:00;1726185707;13/09/24;00:01:47;1.01;0.007;0.135;0.015882495790719986;-0.012217304669320583;0.0
01:00:0A:00:00:00:00;1726185708;13/09/24;00:01:48;1.011;0.012;0.122;0.014660765416920185;-0.015882495790719986;0.0024434609804302454
01:00:0A:00:00:00:00;1726185709;13/09/24;00:01:49;1.01;0.009;0.126;0.0073303827084600925;0.0012217304902151227;0.006108652334660292
01:00:0A:00:00:00:00;1726185710;13/09/24;00:01:50;1.011;0.006;0.135;0.015882495790719986;-0.01710422709584236;0.0012217304902151227
01:00:0A:00:00:00:00;1726185711;13/09/24;00:01:51;1.012;0.01;0.122;0.014660765416920185;-0.018325956538319588;0.0024434609804302454
01:00:0A:00:00:00:00;1726185712;13/09/24;00:01:52;1.009;0.008;0.128;0.006108652334660292;0.0036651913542300463;0.00855211354792118
01:00:0A:00:00:00:00;1726185713;13/09/24;00:01:53;1.009;0.007;0.135;0.015882495790719986;-0.019547687843441963;-0.0012217304902151227
01:00:0A:00:00:00:00;1726185714;13/09/24;00:01:54;1.012;0.011;0.123;0.014660765416920185;-0.02076941914856434;0.0012217304902151227
01:00:0A:00:00:00:00;1726185715;13/09/24;00:01:55;1.013;0.007;0.129;0.006108652334660292;0.0036651913542300463;0.0073303827084600925
01:00:0A:00:00:00:00;1726185716;13/09/24;00:01:56;1.01;0.006;0.136;0.014660765416920185;-0.014660765416920185;0.0012217304902151227
01:00:0A:00:00:00:00;1726185727;13/09/24;00:02:07;1.012;0.008;0.128;0.006108652334660292;0.004886921960860491;0.0073303827084600925
01:00:0A:00:00:00:00;1726185728;13/09/24;00:02:08;1.011;0.006;0.134;0.014660765416920185;-0.015882495790719986;0.0024434609804302454
01:00:0A:00:00:00:00;1726185729;13/09/24;00:02:09;1.011;0.01;0.123;0.013439035043120384;-0.021991148591041565;0.0036651913542300463
01:00:0A:00:00:00:00;1726185730;13/09/24;00:02:10;1.01;0.009;0.128;0.006108652334660292;0.0024434609804302454;0.004886921960860491
01:00:0A:00:00:00:00;1726185731;13/09/24;00:02:11;1.01;0.006;0.135;0.013439035043120384;-0.014660765416920185;-0.0012217304902151227
01:00:0A:00:00:00:00;1726185732;13/09/24;00:02:12;1.011;0.009;0.122;0.012217304669320583;-0.019547687843441963;0.0024434609804302454
01:00:0A:00:00:00:00;1726185733;13/09/24;00:02:13;1.012;0.006;0.127;0.004886921960860491;0.0012217304902151227;0.004886921960860491
01:00:0A:00:00:00:00;1726185734;13/09/24;00:02:14;1.011;0.005;0.136;0.010995574295520782;-0.01710422709584236;0.0036651913542300463
01:00:0A:00:00:00:00;1726185735;13/09/24;00:02:15;1.013;0.01;0.124;0.009773843921720982;-0.018325956538319588;0.004886921960860491
01:00:0A:00:00:00:00;1726185736;13/09/24;00:02:16;1.01;0.009;0.128;0.0036651913542300463;0.004886921960860491;0.006108652334660292
01:00:0A:00:00:00:00;1726185737;13/09/24;00:02:17;1.01;0.008;0.134;0.010995574295520782;-0.014660765416920185;-0.0012217304902151227
01:00:0A:00:00:00:00;1726185738;13/09/24;00:02:18;1.01;0.008;0.122;0.009773843921720982;-0.02076941914856434;0.0012217304902151227
01:00:0A:00:00:00:00;1726185739;13/09/24;00:02:19;1.009;0.007;0.128;0.0024434609804302454;0.0024434609804302454;0.0073303827084600925
01:00:0A:00:00:00:00;1726185740;13/09/24;00:02:20;1.009;0.008;0.134;0.009773843921720982;-0.018325956538319588;0.0024434609804302454
01:00:0A:00:00:00:00;1726185741;13/09/24;00:02:21;1.011;0.01;0.124;0.009773843921720982;-0.02321287989616394;0.0024434609804302454
01:00:0A:00:00:00:00;1726185742;13/09/24;00:02:22;1.011;0.008;0.129;0.0024434609804302454;0.0024434609804302454;0.004886921960860491
01:00:0A:00:00:00:00;1726185743;13/09/24;00:02:23;1.012;0.008;0.135;0.00855211354792118;-0.010995574295520782;0.0
01:00:0A:00:00:00:00;1726185744;13/09/24;00:02:24;1.012;0.01;0.122;0.00855211354792118;-0.01710422709584236;0.0012217304902151227
01:00:0A:00:00:00:00;1726185745;13/09/24;00:02:25;1.011;0.007;0.126;0.0024434609804302454;0.0024434609804302454;0.004886921960860491
01:00:0A:00:00:00:00;1726185746;13/09/24;00:02:26;1.008;0.007;0.135;0.00855211354792118;-0.013439035043120384;0.0012217304902151227
01:00:0A:00:00:00:00;1726185747;13/09/24;00:02:27;1.01;0.01;0.123;0.00855211354792118;-0.019547687843441963;0.0024434609804302454
01:00:0A:00:00:00:00;1726185748;13/09/24;00:02:28;1.011;0.009;0.125;0.0024434609804302454;0.0024434609804302454;0.004886921960860491
01:00:0A:00:00:00:00;1726185749;13/09/24;00:02:29;1.009;0.007;0.134;0.00855211354792118;-0.015882495790719986;0.0012217304902151227
01:00:0A:00:00:00:00;1726185750;13/09/24;00:02:30;1.01;0.009;0.124;0.009773843921720982;-0.02321287989616394;0.0012217304902151227
01:00:0A:00:00:00:00;1726185751;13/09/24;00:02:31;1.012;0.007;0.127;0.0012217304902151227;0.0024434609804302454;0.006108652334660292
01:00:0A:00:00:00:00;1726185752;13/09/24;00:02:32;1.011;0.009;0.135;0.0073303827084600925;-0.014660765416920185;0.0024434609804302454
01:00:0A:00:00:00:00;1726185753;13/09/24;00:02:33;1.014;0.01;0.123;0.009773843921720982;-0.021991148591041565;0.0012217304902151227
01:00:0A:00:00:00:00;1726185754;13/09/24;00:02:34;1.011;0.008;0.127;0.0024434609804302454;0.004886921960860491;0.0036651913542300463
01:00:0A:00:00:00:00;1726185755;13/09/24;00:02:35;1.01;0.007;0.135;0.00855211354792118;-0.010995574295520782;0.0012217304902151227
01:00:0A:00:00:00:00;1726185756;13/09/24;00:02:36;1.011;0.009;0.123;0.00855211354792118;-0.02076941914856434;0.0024434609804302454
01:00:0A:00:00:00:00;1726185757;13/09/24;00:02:37;1.011;0.009;0.125;0.0024434609804302454;0.0;0.0036651913542300463
01:00:0A:00:00:00:00;1726185758;13/09/24;00:02:38;1.01;0.007;0.136;0.00855211354792118;-0.015882495790719986;0.0012217304902151227
01:00:0A:00:00:00:00;1726185759;13/09/24;00:02:39;1.011;0.01;0.124;0.00855211354792118;-0.021991148591041565;0.0024434609804302454
01:00:0A:00:00:00:00;1726185760;13/09/24;00:02:40;1.01;0.009;0.126;0.0012217304902151227;0.0024434609804302454;0.004886921960860491
01:00:0A:00:00:00:00;1726185761;13/09/24;00:02:41;1.01;0.006;0.135;0.0073303827084600925;-0.014660765416920185;0.0012217304902151227
01:00:0A:00:00:00:00;1726185762;13/09/24;00:02:42;1.011;0.01;0.123;0.006108652334660292;-0.02321287989616394;0.0036651913542300463
01:00:0A:00:00:00:00;1726185763;13/09/24;00:02:43;1.012;0.009;0.127;-0.0024434609804302454;0.0024434609804302454;0.006108652334660292
01:00:0A:00:00:00:00;1726185764;13/09/24;00:02:44;1.013;0.007;0.135;0.004886921960860491;-0.014660765416920185;0.0
01:00:0A:00:00:00:00;1726185765;13/09/24;00:02:45;1.012;0.011;0.123;0.006108652334660292;-0.021991148591041565;0.0
01:00:0A:00:00:00:00;1726185766;13/09/24;00:02:46;1.009;0.009;0.126;-0.0036651913542300463;0.0036651913542300463;0.0036651913542300463
01:00:0A:00:00:00:00;1726185767;13/09/24;00:02:47;1.009;0.007;0.135;0.0024434609804302454;-0.010995574295520782;0.0012217304902151227
01:00:0A:00:00:00:00;1726185768;13/09/24;00:02:48;1.011;0.01;0.123;0.004886921960860491;-0.02321287989616394;0.0012217304902151227
01:00:0A:00:00:00:00;1726185769;13/09/24;00:02:49;1.011;0.009;0.125;-0.0036651913542300463;-0.0012217304902151227;0.006108652334660292
01:00:0A:00:00:00:00;1726185770;13/09/24;00:02:50;1.011;0.007;0.135;0.0036651913542300463;-0.012217304669320583;-0.0012217304902151227
01:00:0A:00:00:00:00;1726185771;13/09/24;00:02:51;1.012;0.01;0.124;0.0036651913542300463;-0.019547687843441963;0.0012217304902151227
01:00:0A:00:00:00:00;1726185772;13/09/24;00:02:52;1.011;0.009;0.126;-0.0036651913542300463;0.0012217304902151227;0.006108652334660292
01:00:0A:00:00:00:00;1726185773;13/09/24;00:02:53;1.009;0.006;0.135;0.0024434609804302454;-0.013439035043120384;0.0
01:00:0A:00:00:00:00;1726185774;13/09/24;00:02:54;1.011;0.009;0.125;0.006108652334660292;-0.02321287989616394;0.0012217304902151227
01:00:0A:00:00:00:00;1726185775;13/09/24;00:02:55;1.012;0.009;0.126;-0.0036651913542300463;0.0;0.00855211354792118
01:00:0A:00:00:00:00;1726185776;13/09/24;00:02:56;1.011;0.008;0.137;0.004886921960860491;-0.012217304669320583;0.0
01:00:0A:00:00:00:00;1726185777;13/09/24;00:02:57;1.012;0.012;0.125;0.00855211354792118;-0.021991148591041565;-0.0012217304902151227
01:00:0A:00:00:00:00;1726185778;13/09/24;00:02:58;1.01;0.008;0.127;-0.0012217304902151227;0.0012217304902151227;0.006108652334660292
01:00:0A:00:00:00:00;1726185779;13/09/24;00:02:59;1.008;0.005;0.135;0.006108652334660292;-0.012217304669320583;0.0024434609804302454
01:00:0A:00:00:00:00;1726185780;13/09/24;00:03:00;1.01;0.011;0.124;0.00855211354792118;-0.02321287989616394;0.0
01:00:0A:00:00:00:00;1726185781;13/09/24;00:03:01;1.011;0.01;0.126;0.0;-0.0024434609804302454;0.0073303827084600925
01:00:0A:00:00:00:00;1726185782;13/09/24;00:03:02;1.012;0.006;0.137;0.006108652334660292;-0.010995574295520782;0.0024434609804302454
01:00:0A:00:00:00:00;1726185783;13/09/24;00:03:03;1.013;0.011;0.125;0.009773843921720982;-0.02076941914856434;0.0
01:00:0A:00:00:00:00;1726185784;13/09/24;00:03:04;1.011;0.01;0.125;0.0012217304902151227;0.0;0.006108652334660292
01:00:0A:00:00:00:00;1726185785;13/09/24;00:03:05;1.01;0.007;0.136;0.00855211354792118;-0.013439035043120384;0.0
01:00:0A:00:00:00:00;1726185786;13/09/24;00:03:06;1.01;0.01;0.126;0.010995574295520782;-0.02321287989616394;0.0
01:00:0A:00:00:00:00;1726185787;13/09/24;00:03:07;1.011;0.009;0.127;0.0012217304902151227;0.0012217304902151227;0.0073303827084600925
01:00:0A:00:00:00:00;1726185788;13/09/24;00:03:08;1.011;0.006;0.135;0.0073303827084600925;-0.012217304669320583;0.0024434609804302454
01:00:0A:00:00:00:00;1726185789;13/09/24;00:03:09;1.012;0.012;0.125;0.009773843921720982;-0.02321287989616394;0.0012217304902151227
01:00:0A:00:00:00:00;1726185790;13/09/24;00:03:10;1.01;0.009;0.125;0.0012217304902151227;0.0;0.0073303827084600925
01:00:0A:00:00:00:00;1726185791;13/09/24;00:03:11;1.011;0.006;0.135;0.0073303827084600925;-0.010995574295520782;0.0024434609804302454
01:00:0A:00:00:00:00;1726185792;13/09/24;00:03:12;1.011;0.011;0.124;0.010995574295520782;-0.02321287989616394;0.0
01:00:0A:00:00:00:00;1726185793;13/09/24;00:03:13;1.013;0.008;0.125;0.0024434609804302454;-0.0012217304902151227;0.004886921960860491
01:00:0A:00:00:00:00;1726185794;13/09/24;00:03:14;1.01;0.005;0.135;0.00855211354792118;-0.009773843921720982;0.0012217304902151227
01:00:0A:00:00:00:00;1726185795;13/09/24;00:03:15;1.011;0.01;0.126;0.009773843921720982;-0.021991148591041565;0.0024434609804302454
01:00:0A:00:00:00:00;1726185796;13/09/24;00:03:16;1.011;0.009;0.124;0.0024434609804302454;0.0;0.006108652334660292
01:00:0A:00:00:00:00;1726185797;13/09/24;00:03:17;1.009;0.006;0.134;0.00855211354792118;-0.012217304669320583;0.0012217304902151227
01:00:0A:00:00:00:00;1726185798;13/09/24;00:03:18;1.01;0.009;0.124;0.010995574295520782;-0.024434609338641167;0.0
01:00:0A:00:00:00:00;1726185799;13/09/24;00:03:19;1.011;0.007;0.125;0.0024434609804302454;0.0;0.006108652334660292
01:00:0A:00:00:00:00;1726185800;13/09/24;00:03:20;1.011;0.005;0.134;0.00855211354792118;-0.009773843921720982;0.0012217304902151227
01:00:0A:00:00:00:00;1726185801;13/09/24;00:03:21;1.011;0.01;0.125;0.012217304669320583;-0.02321287989616394;0.0012217304902151227
01:00:0A:00:00:00:00;1726185802;13/09/24;00:03:22;1.013;0.009;0.126;0.004886921960860491;-0.0012217304902151227;0.006108652334660292
01:00:0A:00:00:00:00;1726185803;13/09/24;00:03:23;1.01;0.006;0.134;0.010995574295520782;-0.00855211354792118;0.0012217304902151227
01:00:0A:00:00:00:00;1726185804;13/09/24;00:03:24;1.011;0.008;0.124;0.014660765416920185;-0.021991148591041565;0.0
01:00:0A:00:00:00:00;1726185805;13/09/24;00:03:25;1.011;0.007;0.125;0.0073303827084600925;-0.0012217304902151227;0.006108652334660292
01:00:0A:00:00:00:00;1726185806;13/09/24;00:03:26;1.01;0.006;0.135;0.013439035043120384;-0.009773843921720982;0.0024434609804302454
01:00:0A:00:00:00:00;1726185807;13/09/24;00:03:27;1.012;0.009;0.125;0.018325956538319588;-0.02321287989616394;0.0024434609804302454
01:00:0A:00:00:00:00;1726185808;13/09/24;00:03:28;1.012;0.008;0.124;0.010995574295520782;-0.0024434609804302454;0.0073303827084600925
01:00:0A:00:00:00:00;1726185809;13/09/24;00:03:29;1.01;0.007;0.135;0.01710422709584236;-0.009773843921720982;0.0012217304902151227
01:00:0A:00:00:00:00;1726185810;13/09/24;00:03:30;1.012;0.008;0.127;0.021991148591041565;-0.021991148591041565;0.0012217304902151227
01:00:0A:00:00:00:00;1726185811;13/09/24;00:03:31;1.012;0.008;0.124;0.015882495790719986;0.0;0.00855211354792118
01:00:0A:00:00:00:00;1726185812;13/09/24;00:03:32;1.011;0.007;0.135;0.021991148591041565;-0.009773843921720982;0.004886921960860491
01:00:0A:00:00:00:00;1726185813;13/09/24;00:03:33;1.011;0.01;0.128;0.02687807008624077;-0.021991148591041565;0.0024434609804302454
01:00:0A:00:00:00:00;1726185814;13/09/24;00:03:34;1.01;0.008;0.125;0.019547687843441963;0.0;0.0073303827084600925
01:00:0A:00:00:00:00;1726185815;13/09/24;00:03:35;1.01;0.007;0.135;0.025656338781118393;-0.0073303827084600925;0.0036651913542300463
01:00:0A:00:00:00:00;1726185816;13/09/24;00:03:36;1.011;0.008;0.125;0.030543262138962746;-0.021991148591041565;0.0024434609804302454
01:00:0A:00:00:00:00;1726185817;13/09/24;00:03:37;1.011;0.007;0.126;0.024434609338641167;-0.0024434609804302454;0.0073303827084600925
01:00:0A:00:00:00:00;1726185818;13/09/24;00:03:38;1.01;0.007;0.135;0.02932153083384037;-0.00855211354792118;0.006108652334660292
01:00:0A:00:00:00:00;1726185819;13/09/24;00:03:39;1.011;0.009;0.126;0.03298672288656235;-0.021991148591041565;0.004886921960860491
01:00:0A:00:00:00:00;1726185820;13/09/24;00:03:40;1.013;0.008;0.125;0.028099799528717995;-0.0012217304902151227;0.004886921960860491
01:00:0A:00:00:00:00;1726185821;13/09/24;00:03:41;1.011;0.009;0.136;0.03298672288656235;-0.009773843921720982;0.0024434609804302454
01:00:0A:00:00:00:00;1726185822;13/09/24;00:03:42;1.01;0.008;0.127;0.0354301817715168;-0.021991148591041565;0.004886921960860491
01:00:0A:00:00:00:00;1726185823;13/09/24;00:03:43;1.011;0.007;0.124;0.030543262138962746;0.0;0.0073303827084600925
01:00:0A:00:00:00:00;1726185824;13/09/24;00:03:44;1.01;0.007;0.134;0.03420845419168472;-0.009773843921720982;0.006108652334660292
01:00:0A:00:00:00:00;1726185825;13/09/24;00:03:45;1.011;0.009;0.125;0.036651913076639175;-0.02321287989616394;0.0073303827084600925
01:00:0A:00:00:00:00;1726185826;13/09/24;00:03:46;1.012;0.008;0.127;0.03298672288656235;0.0;0.0036651913542300463
01:00:0A:00:00:00:00;1726185827;13/09/24;00:03:47;1.01;0.009;0.134;0.0354301817715168;-0.004886921960860491;0.0036651913542300463
01:00:0A:00:00:00:00;1726185828;13/09/24;00:03:48;1.011;0.009;0.126;0.036651913076639175;-0.02321287989616394;0.006108652334660292
01:00:0A:00:00:00:00;1726185829;13/09/24;00:03:49;1.011;0.008;0.125;0.03298672288656235;-0.0024434609804302454;0.006108652334660292
01:00:0A:00:00:00:00;1726185830;13/09/24;00:03:50;1.009;0.009;0.135;0.0354301817715168;-0.00855211354792118;0.006108652334660292
01:00:0A:00:00:00:00;1726185831;13/09/24;00:03:51;1.013;0.009;0.127;0.0354301817715168;-0.021991148591041565;0.00855211354792118
01:00:0A:00:00:00:00;1726185832;13/09/24;00:03:52;1.013;0.008;0.124;0.03298672288656235;-0.0012217304902151227;0.0036651913542300463
01:00:0A:00:00:00:00;1726185833;13/09/24;00:03:53;1.01;0.009;0.135;0.03298672288656235;-0.0073303827084600925;0.0024434609804302454
01:00:0A:00:00:00:00;1726185834;13/09/24;00:03:54;1.01;0.007;0.127;0.03176499158143997;-0.02321287989616394;0.0073303827084600925
01:00:0A:00:00:00:00;1726185835;13/09/24;00:03:55;1.012;0.008;0.125;0.02932153083384037;-0.0024434609804302454;0.0036651913542300463
01:00:0A:00:00:00:00;1726185836;13/09/24;00:03:56;1.011;0.011;0.134;0.028099799528717995;-0.0073303827084600925;0.004886921960860491
01:00:0A:00:00:00:00;1726185837;13/09/24;00:03:57;1.012;0.009;0.128;0.02687807008624077;-0.02321287989616394;0.00855211354792118
01:00:0A:00:00:00:00;1726185838;13/09/24;00:03:58;1.012;0.008;0.125;0.025656338781118393;-0.0024434609804302454;0.0012217304902151227
01:00:0A:00:00:00:00;1726185839;13/09/24;00:03:59;1.01;0.01;0.135;0.024434609338641167;-0.006108652334660292;0.0012217304902151227
01:00:0A:00:00:00:00;1726185840;13/09/24;00:04:00;1.011;0.008;0.128;0.02321287989616394;-0.024434609338641167;0.00855211354792118
01:00:0A:00:00:00:00;1726185841;13/09/24;00:04:01;1.01;0.008;0.125;0.02076941914856434;-0.0036651913542300463;0.0024434609804302454
01:00:0A:00:00:00:00;1726185842;13/09/24;00:04:02;1.011;0.01;0.135;0.019547687843441963;-0.0073303827084600925;0.0036651913542300463
01:00:0A:00:00:00:00;1726185843;13/09/24;00:04:03;1.012;0.009;0.128;0.018325956538319588;-0.02076941914856434;0.0073303827084600925
01:00:0A:00:00:00:00;1726185844;13/09/24;00:04:04;1.012;0.006;0.124;0.01710422709584236;-0.0024434609804302454;0.0012217304902151227
01:00:0A:00:00:00:00;1726185845;13/09/24;00:04:05;1.011;0.011;0.135;0.015882495790719986;-0.006108652334660292;0.0012217304902151227
01:00:0A:00:00:00:00;1726185846;13/09/24;00:04:06;1.01;0.009;0.127;0.014660765416920185;-0.021991148591041565;0.0073303827084600925
01:00:0A:00:00:00:00;1726185847;13/09/24;00:04:07;1.011;0.007;0.123;0.014660765416920185;-0.004886921960860491;0.0012217304902151227
01:00:0A:00:00:00:00;1726185848;13/09/24;00:04:08;1.011;0.01;0.135;0.013439035043120384;-0.00855211354792118;0.0036651913542300463
01:00:0A:00:00:00:00;1726185849;13/09/24;00:04:09;1.012;0.008;0.129;0.010995574295520782;-0.02321287989616394;0.0073303827084600925
01:00:0A:00:00:00:00;1726185850;13/09/24;00:04:10;1.012;0.007;0.126;0.012217304669320583;-0.0024434609804302454;-0.0012217304902151227
01:00:0A:00:00:00:00;1726185851;13/09/24;00:04:11;1.011;0.012;0.134;0.010995574295520782;-0.004886921960860491;0.0012217304902151227
01:00:0A:00:00:00:00;1726185852;13/09/24;00:04:12;1.012;0.007;0.128;0.009773843921720982;-0.02321287989616394;0.0073303827084600925
01:00:0A:00:00:00:00;1726185853;13/09/24;00:04:13;1.011;0.007;0.125;0.010995574295520782;-0.004886921960860491;0.0
01:00:0A:00:00:00:00;1726185854;13/09/24;00:04:14;1.01;0.011;0.135;0.009773843921720982;-0.004886921960860491;0.0012217304902151227
01:00:0A:00:00:00:00;1726185855;13/09/24;00:04:15;1.011;0.007;0.128;0.009773843921720982;-0.02076941914856434;0.006108652334660292
01:00:0A:00:00:00:00;1726185856;13/09/24;00:04:16;1.01;0.006;0.124;0.009773843921720982;-0.004886921960860491;0.0
01:00:0A:00:00:00:00;1726185857;13/09/24;00:04:17;1.01;0.011;0.135;0.00855211354792118;-0.0073303827084600925;0.0024434609804302454
01:00:0A:00:00:00:00;1726185858;13/09/24;00:04:18;1.011;0.008;0.128;0.0073303827084600925;-0.021991148591041565;0.0073303827084600925
01:00:0A:00:00:00:00;1726185859;13/09/24;00:04:19;1.012;0.007;0.125;0.009773843921720982;-0.004886921960860491;0.0
01:00:0A:00:00:00:00;1726185860;13/09/24;00:04:20;1.01;0.012;0.135;0.00855211354792118;-0.0073303827084600925;0.0024434609804302454
01:00:0A:00:00:00:00;1726185861;13/09/24;00:04:21;1.011;0.008;0.13;0.0073303827084600925;-0.021991148591041565;0.0073303827084600925
01:00:0A:00:00:00:00;1726185862;13/09/24;00:04:22;1.01;0.008;0.125;0.009773843921720982;-0.0036651913542300463;-0.0012217304902151227
01:00:0A:00:00:00:00;1726185863;13/09/24;00:04:23;1.01;0.01;0.133;0.0073303827084600925;-0.0036651913542300463;0.0012217304902151227
01:00:0A:00:00:00:00;1726185864;13/09/24;00:04:24;1.011;0.008;0.128;0.0073303827084600925;-0.024434609338641167;0.00855211354792118
01:00:0A:00:00:00:00;1726185865;13/09/24;00:04:25;1.013;0.008;0.125;0.00855211354792118;-0.0073303827084600925;0.0012217304902151227
01:00:0A:00:00:00:00;1726185866;13/09/24;00:04:26;1.012;0.011;0.135;0.0073303827084600925;-0.004886921960860491;0.0012217304902151227
01:00:0A:00:00:00:00;1726185867;13/09/24;00:04:27;1.01;0.009;0.129;0.0073303827084600925;-0.02076941914856434;0.006108652334660292
01:00:0A:00:00:00:00;1726185868;13/09/24;00:04:28;1.011;0.007;0.124;0.00855211354792118;-0.004886921960860491;-0.0012217304902151227
01:00:0A:00:00:00:00;1726185869;13/09/24;00:04:29;1.01;0.011;0.134;0.0073303827084600925;-0.006108652334660292;0.0012217304902151227
01:00:0A:00:00:00:00;1726185870;13/09/24;00:04:30;1.011;0.009;0.129;0.0073303827084600925;-0.021991148591041565;0.0073303827084600925
01:00:0A:00:00:00:00;1726185871;13/09/24;00:04:31;1.011;0.007;0.123;0.00855211354792118;-0.006108652334660292;0.0
01:00:0A:00:00:00:00;1726185872;13/09/24;00:04:32;1.01;0.011;0.134;0.0073303827084600925;-0.004886921960860491;0.0012217304902151227
01:00:0A:00:00:00:00;1726185873;13/09/24;00:04:33;1.01;0.008;0.129;0.0073303827084600925;-0.021991148591041565;0.0073303827084600925
01:00:0A:00:00:00:00;1726185874;13/09/24;00:04:34;1.011;0.007;0.125;0.00855211354792118;-0.006108652334660292;0.0
01:00:0A:00:00:00:00;1726185875;13/09/24;00:04:35;1.009;0.011;0.133;0.006108652334660292;-0.004886921960860491;0.0024434609804302454
01:00:0A:00:00:00:00;1726185876;13/09/24;00:04:36;1.011;0.008;0.13;0.006108652334660292;-0.02321287989616394;0.0073303827084600925
01:00:0A:00:00:00:00;1726185877;13/09/24;00:04:37;1.013;0.007;0.124;0.0073303827084600925;-0.0073303827084600925;0.0
01:00:0A:00:00:00:00;1726185878;13/09/24;00:04:38;1.011;0.011;0.134;0.006108652334660292;-0.0024434609804302454;0.0012217304902151227
01:00:0A:00:00:00:00;1726185879;13/09/24;00:04:39;1.011;0.007;0.129;0.006108652334660292;-0.02076941914856434;0.006108652334660292
01:00:0A:00:00:00:00;1726185880;13/09/24;00:04:40;1.01;0.007;0.124;0.0073303827084600925;-0.0073303827084600925;0.0
01:00:0A:00:00:00:00;1726185881;13/09/24;00:04:41;1.01;0.011;0.134;0.006108652334660292;-0.004886921960860491;0.0012217304902151227
01:00:0A:00:00:00:00;1726185882;13/09/24;00:04:42;1.011;0.009;0.13;0.006108652334660292;-0.021991148591041565;0.006108652334660292
01:00:0A:00:00:00:00;1726185883;13/09/24;00:04:43;1.012;0.007;0.125;0.0073303827084600925;-0.0073303827084600925;0.0
01:00:0A:00:00:00:00;1726185884;13/09/24;00:04:44;1.011;0.01;0.133;0.006108652334660292;-0.006108652334660292;0.0024434609804302454
01:00:0A:00:00:00:00;1726185885;13/09/24;00:04:45;1.01;0.008;0.13;0.006108652334660292;-0.02076941914856434;0.006108652334660292
01:00:0A:00:00:00:00;1726185886;13/09/24;00:04:46;1.012;0.007;0.124;0.0073303827084600925;-0.0073303827084600925;0.0
01:00:0A:00:00:00:00;1726185887;13/09/24;00:04:47;1.009;0.011;0.133;0.006108652334660292;-0.0036651913542300463;0.0012217304902151227
01:00:0A:00:00:00:00;1726185888;13/09/24;00:04:48;1.011;0.008;0.13;0.006108652334660292;-0.021991148591041565;0.0073303827084600925
01:00:0A:00:00:00:00;1726185889;13/09/24;00:04:49;1.01;0.006;0.125;0.0073303827084600925;-0.00855211354792118;0.0
01:00:0A:00:00:00:00;1726185890;13/09/24;00:04:50;1.01;0.011;0.133;0.006108652334660292;-0.0012217304902151227;0.0
01:00:0A:00:00:00:00;1726185891;13/09/24;00:04:51;1.011;0.008;0.13;0.006108652334660292;-0.02076941914856434;0.006108652334660292
01:00:0A:00:00:00:00;1726185892;13/09/24;00:04:52;1.011;0.006;0.124;0.0073303827084600925;-0.010995574295520782;0.0012217304902151227
01:00:0A:00:00:00:00;1726185893;13/09/24;00:04:53;1.011;0.011;0.134;0.006108652334660292;-0.004886921960860491;0.0012217304902151227
01:00:0A:00:00:00:00;1726185894;13/09/24;00:04:54;1.011;0.008;0.131;0.006108652334660292;-0.019547687843441963;0.006108652334660292
01:00:0A:00:00:00:00;1726185895;13/09/24;00:04:55;1.012;0.008;0.124;0.0073303827084600925;-0.00855211354792118;0.0
01:00:0A:00:00:00:00;1726185896;13/09/24;00:04:56;1.009;0.011;0.133;0.006108652334660292;-0.0036651913542300463;0.0012217304902151227
01:00:0A:00:00:00:00;1726185897;13/09/24;00:04:57;1.011;0.009;0.131;0.006108652334660292;-0.02076941914856434;0.006108652334660292
01:00:0A:00:00:00:00;1726185898;13/09/24;00:04:58;1.011;0.006;0.125;0.0073303827084600925;-0.009773843921720982;0.0012217304902151227
01:00:0A:00:00:00:00;1726185899;13/09/24;00:04:59;1.009;0.01;0.132;0.004886921960860491;-0.0036651913542300463;0.0
01:00:0A:00:00:00:00;1726185900;13/09/24;00:05:00;1.011;0.008;0.131;0.004886921960860491;-0.021991148591041565;0.0073303827084600925
01:00:0A:00:00:00:00;1726185901;13/09/24;00:05:01;1.012;0.006;0.125;0.006108652334660292;-0.009773843921720982;0.0012217304902151227
01:00:0A:00:00:00:00;1726185902;13/09/24;00:05:02;1.01;0.01;0.133;0.004886921960860491;-0.0012217304902151227;0.0
01:00:0A:00:00:00:00;1726185903;13/09/24;00:05:03;1.009;0.008;0.13;0.004886921960860491;-0.02076941914856434;0.006108652334660292
01:00:0A:00:00:00:00;1726185904;13/09/24;00:05:04;1.012;0.006;0.124;0.006108652334660292;-0.013439035043120384;0.0012217304902151227
01:00:0A:00:00:00:00;1726185905;13/09/24;00:05:05;1.01;0.01;0.132;0.004886921960860491;-0.004886921960860491;0.0
01:00:0A:00:00:00:00;1726185906;13/09/24;00:05:06;1.011;0.009;0.132;0.0036651913542300463;-0.019547687843441963;0.006108652334660292
01:00:0A:00:00:00:00;1726185907;13/09/24;00:05:07;1.012;0.007;0.123;0.004886921960860491;-0.00855211354792118;0.0
01:00:0A:00:00:00:00;1726185908;13/09/24;00:05:08;1.01;0.011;0.131;0.0036651913542300463;-0.0024434609804302454;0.0
01:00:0A:00:00:00:00;1726185909;13/09/24;00:05:09;1.01;0.007;0.131;0.0024434609804302454;-0.019547687843441963;0.006108652334660292
01:00:0A:00:00:00:00;1726185910;13/09/24;00:05:10;1.011;0.005;0.123;0.0036651913542300463;-0.012217304669320583;0.0012217304902151227
01:00:0A:00:00:00:00;1726185911;13/09/24;00:05:11;1.01;0.009;0.132;0.0024434609804302454;-0.004886921960860491;0.0
01:00:0A:00:00:00:00;1726185912;13/09/24;00:05:12;1.012;0.008;0.131;0.0012217304902151227;-0.02076941914856434;0.006108652334660292
01:00:0A:00:00:00:00;1726185913;13/09/24;00:05:13;1.012;0.007;0.123;0.0024434609804302454;-0.010995574295520782;0.0
01:00:0A:00:00:00:00;1726185913;13/09/24;00:05:13;1.01;0.01;0.132;0.0012217304902151227;-0.0012217304902151227;-0.0012217304902151227
01:00:0A:00:00:00:00;1726185914;13/09/24;00:05:14;1.008;0.008;0.131;0.0;-0.019547687843441963;0.004886921960860491
01:00:0A:00:00:00:00;1726185915;13/09/24;00:05:15;1.01;0.007;0.124;0.0012217304902151227;-0.012217304669320583;0.0012217304902151227
01:00:0A:00:00:00:00;1726185916;13/09/24;00:05:16;1.01;0.009;0.131;0.0;-0.004886921960860491;0.0
01:00:0A:00:00:00:00;1726185917;13/09/24;00:05:17;1.011;0.009;0.132;-0.0012217304902151227;-0.019547687843441963;0.006108652334660292
01:00:0A:00:00:00:00;1726185918;13/09/24;00:05:18;1.011;0.005;0.125;0.0;-0.010995574295520782;0.0012217304902151227
01:00:0A:00:00:00:00;1726185919;13/09/24;00:05:19;1.012;0.01;0.131;-0.0012217304902151227;-0.0012217304902151227;-0.0012217304902151227
01:00:0A:00:00:00:00;1726185920;13/09/24;00:05:20;1.012;0.01;0.131;-0.0012217304902151227;-0.018325956538319588;0.004886921960860491
01:00:0A:00:00:00:00;1726185921;13/09/24;00:05:21;1.011;0.006;0.125;-0.0012217304902151227;-0.013439035043120384;0.0012217304902151227
01:00:0A:00:00:00:00;1726185922;13/09/24;00:05:22;1.009;0.01;0.132;-0.0024434609804302454;-0.0036651913542300463;0.0
01:00:0A:00:00:00:00;1726185923;13/09/24;00:05:23;1.011;0.009;0.132;-0.0024434609804302454;-0.019547687843441963;0.004886921960860491
01:00:0A:00:00:00:00;1726185924;13/09/24;00:05:24;1.013;0.007;0.124;-0.0012217304902151227;-0.010995574295520782;0.0012217304902151227
01:00:0A:00:00:00:00;1726185925;13/09/24;00:05:25;1.01;0.011;0.13;-0.0024434609804302454;-0.0012217304902151227;-0.0012217304902151227
01:00:0A:00:00:00:00;1726185926;13/09/24;00:05:26;1.009;0.009;0.131;-0.0036651913542300463;-0.018325956538319588;0.0036651913542300463
01:00:0A:00:00:00:00;1726185927;13/09/24;00:05:27;1.011;0.006;0.125;-0.0024434609804302454;-0.012217304669320583;0.0012217304902151227
01:00:0A:00:00:00:00;1726185928;13/09/24;00:05:28;1.01;0.01;0.131;-0.004886921960860491;-0.004886921960860491;0.0
01:00:0A:00:00:00:00;1726185929;13/09/24;00:05:29;1.01;0.008;0.132;-0.004886921960860491;-0.019547687843441963;0.0036651913542300463
01:00:0A:00:00:00:00;1726185930;13/09/24;00:05:30;1.01;0.007;0.124;-0.0036651913542300463;-0.013439035043120384;0.0012217304902151227
01:00:0A:00:00:00:00;1726185931;13/09/24;00:05:31;1.011;0.01;0.132;-0.006108652334660292;-0.0024434609804302454;-0.0012217304902151227
01:00:0A:00:00:00:00;1726185932;13/09/24;00:05:32;1.01;0.008;0.131;-0.006108652334660292;-0.018325956538319588;0.0036651913542300463
01:00:0A:00:00:00:00;1726185933;13/09/24;00:05:33;1.011;0.008;0.124;-0.004886921960860491;-0.012217304669320583;0.0012217304902151227
01:00:0A:00:00:00:00;1726185934;13/09/24;00:05:34;1.01;0.009;0.131;-0.0073303827084600925;-0.0036651913542300463;0.0
01:00:0A:00:00:00:00;1726185935;13/09/24;00:05:35;1.01;0.009;0.132;-0.0073303827084600925;-0.019547687843441963;0.0036651913542300463
01:00:0A:00:00:00:00;1726185936;13/09/24;00:05:36;1.011;0.008;0.123;-0.006108652334660292;-0.012217304669320583;0.0012217304902151227
01:00:0A:00:00:00:00;1726185937;13/09/24;00:05:37;1.011;0.009;0.131;-0.00855211354792118;-0.004886921960860491;0.0
01:00:0A:00:00:00:00;1726185938;13/09/24;00:05:38;1.01;0.009;0.132;-0.0073303827084600925;-0.018325956538319588;0.0036651913542300463
01:00:0A:00:00:00:00;1726185939;13/09/24;00:05:39;1.012;0.008;0.125;-0.00855211354792118;-0.012217304669320583;0.0012217304902151227
01:00:0A:00:00:00:00;1726185940;13/09/24;00:05:40;1.01;0.01;0.131;-0.00855211354792118;-0.0036651913542300463;0.0
01:00:0A:00:00:00:00;1726185941;13/09/24;00:05:41;1.01;0.009;0.132;-0.00855211354792118;-0.019547687843441963;0.0024434609804302454
01:00:0A:00:00:00:00;1726185942;13/09/24;00:05:42;1.011;0.007;0.124;-0.00855211354792118;-0.012217304669320583;0.0012217304902151227
01:00:0A:00:00:00:00;1726185943;13/09/24;00:05:43;1.01;0.009;0.132;-0.009773843921720982;-0.0036651913542300463;0.0
01:00:0A:00:00:00:00;1726185944;13/09/24;00:05:44;1.011;0.009;0.13;-0.00855211354792118;-0.02076941914856434;0.0024434609804302454
01:00:0A:00:00:00:00;1726185945;13/09/24;00:05:45;1.012;0.006;0.125;-0.00855211354792118;-0.012217304669320583;0.0012217304902151227
01:00:0A:00:00:00:00;1726185946;13/09/24;00:05:46;1.01;0.01;0.132;-0.009773843921720982;-0.0024434609804302454;0.0
01:00:0A:00:00:00:00;1726185947;13/09/24;00:05:47;1.01;0.008;0.131;-0.0073303827084600925;-0.018325956538319588;0.0012217304902151227
01:00:0A:00:00:00:00;1726185948;13/09/24;00:05:48;1.011;0.007;0.123;-0.00855211354792118;-0.013439035043120384;0.0012217304902151227
01:00:0A:00:00:00:00;1726185949;13/09/24;00:05:49;1.01;0.008;0.13;-0.009773843921720982;-0.004886921960860491;0.0
01:00:0A:00:00:00:00;1726185950;13/09/24;00:05:50;1.011;0.01;0.133;-0.0073303827084600925;-0.019547687843441963;0.0024434609804302454
01:00:0A:00:00:00:00;1726185951;13/09/24;00:05:51;1.013;0.008;0.126;-0.00855211354792118;-0.010995574295520782;0.0012217304902151227
01:00:0A:00:00:00:00;1726185952;13/09/24;00:05:52;1.011;0.009;0.131;-0.009773843921720982;-0.0024434609804302454;0.0
01:00:0A:00:00:00:00;1726185953;13/09/24;00:05:53;1.01;0.008;0.131;-0.006108652334660292;-0.018325956538319588;0.0
01:00:0A:00:00:00:00;1726185954;13/09/24;00:05:54;1.01;0.007;0.124;-0.0073303827084600925;-0.013439035043120384;0.0012217304902151227
01:00:0A:00:00:00:00;1726185955;13/09/24;00:05:55;1.011;0.008;0.132;-0.009773843921720982;-0.0036651913542300463;0.0024434609804302454
01:00:0A:00:00:00:00;1726185956;13/09/24;00:05:56;1.012;0.009;0.13;-0.006108652334660292;-0.02076941914856434;0.0024434609804302454
01:00:0A:00:00:00:00;1726185957;13/09/24;00:05:57;1.012;0.009;0.126;-0.0073303827084600925;-0.013439035043120384;0.0012217304902151227
01:00:0A:00:00:00:00;1726185958;13/09/24;00:05:58;1.011;0.008;0.132;-0.00855211354792118;-0.0024434609804302454;0.0012217304902151227
01:00:0A:00:00:00:00;1726185959;13/09/24;00:05:59;1.011;0.008;0.131;-0.004886921960860491;-0.01710422709584236;0.0012217304902151227
01:00:0A:00:00:00:00;1726185960;13/09/24;00:06:00;1.011;0.008;0.123;-0.006108652334660292;-0.010995574295520782;0.0012217304902151227
01:00:0A:00:00:00:00;1726185961;13/09/24;00:06:01;1.01;0.008;0.131;-0.0073303827084600925;-0.006108652334660292;0.0024434609804302454
01:00:0A:00:00:00:00;1726185962;13/09/24;00:06:02;1.01;0.008;0.131;-0.0036651913542300463;-0.019547687843441963;0.0024434609804302454
01:00:0A:00:00:00:00;1726185963;13/09/24;00:06:03;1.012;0.009;0.125;-0.006108652334660292;-0.012217304669320583;0.0024434609804302454
01:00:0A:00:00:00:00;1726185964;13/09/24;00:06:04;1.012;0.009;0.132;-0.0073303827084600925;-0.0024434609804302454;0.0012217304902151227
01:00:0A:00:00:00:00;1726185965;13/09/24;00:06:05;1.011;0.009;0.13;-0.0024434609804302454;-0.01710422709584236;0.0
01:00:0A:00:00:00:00;1726185966;13/09/24;00:06:06;1.01;0.009;0.125;-0.004886921960860491;-0.012217304669320583;0.0012217304902151227
01:00:0A:00:00:00:00;1726185967;13/09/24;00:06:07;1.009;0.007;0.13;-0.006108652334660292;-0.004886921960860491;0.0024434609804302454
01:00:0A:00:00:00:00;1726185968;13/09/24;00:06:08;1.011;0.009;0.131;-0.0024434609804302454;-0.019547687843441963;0.0012217304902151227
01:00:0A:00:00:00:00;1726185969;13/09/24;00:06:09;1.012;0.009;0.125;-0.004886921960860491;-0.012217304669320583;0.0024434609804302454
01:00:0A:00:00:00:00;1726185970;13/09/24;00:06:10;1.012;0.008;0.131;-0.006108652334660292;-0.0036651913542300463;0.0012217304902151227
01:00:0A:00:00:00:00;1726185971;13/09/24;00:06:11;1.011;0.009;0.131;-0.0024434609804302454;-0.015882495790719986;0.0
01:00:0A:00:00:00:00;1726185972;13/09/24;00:06:12;1.011;0.008;0.125;-0.0036651913542300463;-0.010995574295520782;0.0012217304902151227
01:00:0A:00:00:00:00;1726185973;13/09/24;00:06:13;1.01;0.007;0.13;-0.004886921960860491;-0.006108652334660292;0.0024434609804302454
01:00:0A:00:00:00:00;1726185974;13/09/24;00:06:14;1.011;0.008;0.131;-0.0024434609804302454;-0.018325956538319588;0.0024434609804302454
01:00:0A:00:00:00:00;1726185975;13/09/24;00:06:15;1.011;0.009;0.125;-0.0036651913542300463;-0.012217304669320583;0.0024434609804302454
01:00:0A:00:00:00:00;1726185976;13/09/24;00:06:16;1.011;0.009;0.131;-0.004886921960860491;-0.004886921960860491;0.0024434609804302454
01:00:0A:00:00:00:00;1726185977;13/09/24;00:06:17;1.011;0.008;0.13;-0.0012217304902151227;-0.01710422709584236;0.0
01:00:0A:00:00:00:00;1726185978;13/09/24;00:06:18;1.01;0.008;0.126;-0.0024434609804302454;-0.009773843921720982;0.0024434609804302454
01:00:0A:00:00:00:00;1726185979;13/09/24;00:06:19;1.01;0.008;0.13;-0.0036651913542300463;-0.004886921960860491;0.0024434609804302454
01:00:0A:00:00:00:00;1726185980;13/09/24;00:06:20;1.011;0.008;0.13;0.0;-0.019547687843441963;0.0012217304902151227
01:00:0A:00:00:00:00;1726185981;13/09/24;00:06:21;1.011;0.009;0.126;-0.0024434609804302454;-0.013439035043120384;0.0024434609804302454
01:00:0A:00:00:00:00;1726185982;13/09/24;00:06:22;1.013;0.009;0.131;-0.0024434609804302454;-0.004886921960860491;0.0024434609804302454
01:00:0A:00:00:00:00;1726185983;13/09/24;00:06:23;1.011;0.008;0.131;0.0012217304902151227;-0.015882495790719986;0.0012217304902151227
01:00:0A:00:00:00:00;1726185984;13/09/24;00:06:24;1.011;0.009;0.125;-0.0012217304902151227;-0.012217304669320583;0.0012217304902151227
01:00:0A:00:00:00:00;1726185985;13/09/24;00:06:25;1.01;0.007;0.131;-0.0012217304902151227;-0.006108652334660292;0.0024434609804302454
01:00:0A:00:00:00:00;1726185986;13/09/24;00:06:26;1.01;0.008;0.132;0.0012217304902151227;-0.015882495790719986;0.0012217304902151227
01:00:0A:00:00:00:00;1726185987;13/09/24;00:06:27;1.012;0.008;0.126;0.0;-0.012217304669320583;0.0024434609804302454
01:00:0A:00:00:00:00;1726185988;13/09/24;00:06:28;1.011;0.008;0.131;-0.0012217304902151227;-0.006108652334660292;0.0024434609804302454
01:00:0A:00:00:00:00;1726185989;13/09/24;00:06:29;1.01;0.009;0.13;0.0024434609804302454;-0.01710422709584236;0.0012217304902151227
01:00:0A:00:00:00:00;1726185990;13/09/24;00:06:30;1.011;0.009;0.126;0.0;-0.010995574295520782;0.0024434609804302454
01:00:0A:00:00:00:00;1726185991;13/09/24;00:06:31;1.01;0.007;0.129;-0.0012217304902151227;-0.004886921960860491;0.0024434609804302454
01:00:0A:00:00:00:00;1726185992;13/09/24;00:06:32;1.01;0.008;0.131;0.0024434609804302454;-0.015882495790719986;0.0012217304902151227
01:00:0A:00:00:00:00;1726185993;13/09/24;00:06:33;1.011;0.008;0.125;0.0012217304902151227;-0.013439035043120384;0.0024434609804302454
01:00:0A:00:00:00:00;1726185994;13/09/24;00:06:34;1.011;0.008;0.13;0.0;-0.006108652334660292;0.0024434609804302454
01:00:0A:00:00:00:00;1726185995;13/09/24;00:06:35;1.012;0.008;0.131;0.0024434609804302454;-0.014660765416920185;0.0012217304902151227
01:00:0A:00:00:00:00;1726185996;13/09/24;00:06:36;1.011;0.008;0.126;0.0;-0.012217304669320583;0.0036651913542300463
01:00:0A:00:00:00:00;1726185997;13/09/24;00:06:37;1.011;0.008;0.131;0.0;-0.0073303827084600925;0.0024434609804302454
01:00:0A:00:00:00:00;1726185998;13/09/24;00:06:38;1.01;0.008;0.131;0.0024434609804302454;-0.014660765416920185;0.0012217304902151227
01:00:0A:00:00:00:00;1726185999;13/09/24;00:06:39;1.009;0.008;0.125;0.0012217304902151227;-0.010995574295520782;0.0024434609804302454
01:00:0A:00:00:00:00;1726186000;13/09/24;00:06:40;1.01;0.007;0.128;0.0;-0.0073303827084600925;0.0024434609804302454
01:00:0A:00:00:00:00;1726186001;13/09/24;00:06:41;1.01;0.009;0.13;0.0036651913542300463;-0.015882495790719986;0.0024434609804302454
01:00:0A:00:00:00:00;1726186002;13/09/24;00:06:42;1.012;0.009;0.126;0.0012217304902151227;-0.012217304669320583;0.0036651913542300463
01:00:0A:00:00:00:00;1726186003;13/09/24;00:06:43;1.011;0.008;0.13;0.0012217304902151227;-0.006108652334660292;0.0024434609804302454
01:00:0A:00:00:00:00;1726186004;13/09/24;00:06:44;1.011;0.008;0.131;0.0036651913542300463;-0.014660765416920185;0.0012217304902151227
01:00:0A:00:00:00:00;1726186005;13/09/24;00:06:45;1.008;0.01;0.123;0.0012217304902151227;-0.009773843921720982;-0.0012217304902151227
01:00:0A:00:00:00:00;1726186006;13/09/24;00:06:46;1.01;0.01;0.13;0.0036651913542300463;-0.02687807008624077;-0.004886921960860491
01:00:0A:00:00:00:00;1726186007;13/09/24;00:06:47;1.016;0.008;0.134;0.004886921960860491;-0.03298672288656235;-0.00855211354792118
01:00:0A:00:00:00:00;1726186008;13/09/24;00:06:48;1.016;0.006;0.128;-0.013439035043120384;-0.013439035043120384;0.010995574295520782
01:00:0A:00:00:00:00;1726186009;13/09/24;00:06:49;1.011;0.007;0.13;-0.025656338781118393;-0.006108652334660292;0.028099799528717995
01:00:0A:00:00:00:00;1726186010;13/09/24;00:06:50;1.011;0.013;0.122;-0.013439035043120384;0.0;0.006108652334660292
01:00:0A:00:00:00:00;1726186011;13/09/24;00:06:51;1.002;0.013;0.127;-0.0012217304902151227;0.02321287989616394;-0.004886921960860491
01:00:0A:00:00:00:00;1726186012;13/09/24;00:06:52;0.998;0.001;0.122;0.045204028487205505;-0.02932153083384037;-0.02321287989616394
01:00:0A:00:00:00:00;1726186013;13/09/24;00:06:53;1.008;-0.003;0.101;0.07330382615327835;-0.0757472887635231;-0.02932153083384037
01:00:0A:00:00:00:00;1726186014;13/09/24;00:06:54;1.016;-0.006;0.116;0.05497787147760391;-0.039095375686883926;0.0024434609804302454
01:00:0A:00:00:00:00;1726186015;13/09/24;00:06:55;1.02;0.0;0.146;0.03787364438176155;-0.02321287989616394;0.02076941914856434
01:00:0A:00:00:00:00;1726186016;13/09/24;00:06:56;1.018;0.026;0.129;-0.012217304669320583;0.02076941914856434;0.051312677562236786
01:00:0A:00:00:00:00;1726186017;13/09/24;00:06:57;1.007;0.023;0.132;-0.021991148591041565;0.04886921867728233;0.030543262138962746
01:00:0A:00:00:00:00;1726186018;13/09/24;00:06:58;1.006;0.015;0.121;0.030543262138962746;-0.02687807008624077;-0.039095375686883926
01:00:0A:00:00:00:00;1726186019;13/09/24;00:06:59;1.016;-0.003;0.122;0.06108652427792549;-0.013439035043120384;-0.025656338781118393
01:00:0A:00:00:00:00;1726186020;13/09/24;00:07:00;1.012;-0.019;0.168;0.10384709388017654;0.036651913076639175;-0.013439035043120384
01:00:0A:00:00:00:00;1726186021;13/09/24;00:07:01;1.002;-0.026;0.167;0.16249015927314758;0.004886921960860491;0.059864792972803116
01:00:0A:00:00:00:00;1726186022;13/09/24;00:07:02;0.982;-0.011;0.145;0.23335053026676178;-0.05253440886735916;0.010995574295520782
01:00:0A:00:00:00:00;1726186023;13/09/24;00:07:03;0.979;0.048;0.122;0.18936821818351746;-0.004886921960860491;-0.0073303827084600925
01:00:0A:00:00:00:00;1726186024;13/09/24;00:07:04;1.008;0.024;0.162;0.06719517707824707;0.018325956538319588;0.1661553531885147
01:00:0A:00:00:00:00;1726186025;13/09/24;00:07:05;1.023;-0.038;0.211;0.1918116807937622;-0.14294245839118958;-0.010995574295520782
01:00:0A:00:00:00:00;1726186026;13/09/24;00:07:06;1.05;0.074;0.079;0.08796459436416626;-0.04764748737215996;0.015882495790719986
01:00:0A:00:00:00:00;1726186027;13/09/24;00:07:07;1.012;-0.011;0.183;0.040317103266716;0.1417207270860672;0.11728612333536148
01:00:0A:00:00:00:00;1726186028;13/09/24;00:07:08;0.994;-0.02;0.169;0.23579397797584534;-0.05864306166768074;-0.04764748737215996
01:00:0A:00:00:00:00;1726186029;13/09/24;00:07:09;0.993;-0.03;0.107;0.2932153046131134;-0.018325956538319588;0.042760565876960754
01:00:0A:00:00:00:00;1726186030;13/09/24;00:07:10;0.996;-0.018;0.164;0.40072759985923767;0.00855211354792118;-0.06719517707824707
01:00:0A:00:00:00:00;1726186031;13/09/24;00:07:11;1.016;0.004;0.074;0.31642818450927734;-0.06475171446800232;0.11362093687057495
01:00:0A:00:00:00:00;1726186032;13/09/24;00:07:12;1.013;-0.109;0.165;0.4202752709388733;0.13439035415649414;0.09040805697441101
01:00:0A:00:00:00:00;1726186033;13/09/24;00:07:13;1.016;0.016;0.121;0.5681046843528748;-0.17348572611808777;-0.039095375686883926
01:00:0A:00:00:00:00;1726186034;13/09/24;00:07:14;1.012;0.008;0.04;0.42149701714515686;0.08918632566928864;0.08674286305904388
01:00:0A:00:00:00:00;1726186035;13/09/24;00:07:15;0.982;0.0;0.149;0.436157763004303;0.09162978082895279;0.06352998316287994
01:00:0A:00:00:00:00;1726186036;13/09/24;00:07:16;0.982;0.014;0.092;0.48258352279663086;-0.2785545289516449;0.051312677562236786
01:00:0A:00:00:00:00;1726186037;13/09/24;00:07:17;0.99;0.008;0.02;0.4141666293144226;0.1160643920302391;-0.1258382350206375
01:00:0A:00:00:00:00;1726186038;13/09/24;00:07:18;0.99;0.131;0.139;0.18081611394882202;-0.0012217304902151227;0.05619959905743599
01:00:0A:00:00:00:00;1726186039;13/09/24;00:07:19;1.01;0.034;0.142;-0.051312677562236786;0.015882495790719986;0.10751228034496307
01:00:0A:00:00:00:00;1726186040;13/09/24;00:07:20;1.014;0.042;0.224;-0.05742133408784866;0.1258382350206375;-0.04886921867728233
01:00:0A:00:00:00:00;1726186041;13/09/24;00:07:21;0.999;0.019;0.268;-0.059864792972803116;-0.030543262138962746;0.1869247555732727
01:00:0A:00:00:00:00;1726186042;13/09/24;00:07:22;1.003;-0.131;0.003;0.1576032191514969;-0.32620203495025635;0.05619959905743599
01:00:0A:00:00:00:00;1726186043;13/09/24;00:07:23;0.987;0.008;0.054;0.2724458873271942;0.16493360698223114;-0.06108652427792549
01:00:0A:00:00:00:00;1726186044;13/09/24;00:07:24;0.989;-0.039;0.075;0.29565879702568054;-0.29688048362731934;0.13561207056045532
01:00:0A:00:00:00:00;1726186045;13/09/24;00:07:25;1.028;-0.052;-0.067;0.37262779474258423;0.14905111491680145;-0.2675589621067047
01:00:0A:00:00:00:00;1726186046;13/09/24;00:07:26;1.022;0.117;0.195;0.09529497474431992;-0.11972958594560623;0.22479839622974396
01:00:0A:00:00:00:00;1726186047;13/09/24;00:07:27;1.03;-0.217;0.156;0.22113320231437683;0.03787364438176155;0.004886921960860491
01:00:0A:00:00:00:00;1726186048;13/09/24;00:07:28;1.023;0.152;0.034;0.28099802136421204;-0.1820378452539444;-0.20036379992961884
01:00:0A:00:00:00:00;1726186049;13/09/24;00:07:29;0.99;0.017;-0.041;-0.05742133408784866;0.29565879702568054;0.04398229718208313
01:00:0A:00:00:00:00;1726186050;13/09/24;00:07:30;0.918;-0.044;0.311;-0.059864792972803116;0.42760565876960754;0.47280970215797424
01:00:0A:00:00:00:00;1726186051;13/09/24;00:07:31;0.909;-0.244;0.215;0.6194173693656921;-1.0922271013259888;0.35552355647087097
01:00:0A:00:00:00:00;1726186052;13/09/24;00:07:32;0.935;-0.314;0.037;1.459967851638794;-0.43737950921058655;-0.26633724570274353
01:00:0A:00:00:00:00;1726186053;13/09/24;00:07:33;1.016;-0.206;0.095;1.8008307218551636;-0.22846359014511108;0.04398229718208313
01:00:0A:00:00:00:00;1726186054;13/09/24;00:07:34;1.042;-0.04;0.01;1.7311919927597046;-0.08918632566928864;0.059864792972803116
01:00:0A:00:00:00:00;1726186055;13/09/24;00:07:35;0.964;-0.055;0.393;1.7825047969818115;0.33719760179519653;0.24923302233219147
01:00:0A:00:00:00:00;1726186056;13/09/24;00:07:36;0.983;-0.093;0.04;1.644449234008789;-0.4740314185619354;0.4996877610683441
01:00:0A:00:00:00:00;1726186057;13/09/24;00:07:37;0.915;0.002;0.347;1.9816468954086304;0.07941248267889023;0.00855211354792118
01:00:0A:00:00:00:00;1726186058;13/09/24;00:07:38;0.976;0.04;0.146;1.5247195959091187;-0.3481931686401367;1.1398744583129883
01:00:0A:00:00:00:00;1726186059;13/09/24;00:07:39;0.831;-0.118;0.542;1.9792033433914185;-0.5632177591323853;0.6255260109901428
01:00:0A:00:00:00:00;1726186060;13/09/24;00:07:40;0.929;0.123;0.446;1.7654005289077759;0.1673770695924759;0.8429940342903137
01:00:0A:00:00:00:00;1726186061;13/09/24;00:07:41;0.833;0.285;0.597;1.2754865884780884;0.6768386960029602;0.8588765263557434
01:00:0A:00:00:00:00;1726186062;13/09/24;00:07:42;0.776;-0.132;0.742;1.1630873680114746;-0.06230825558304787;1.1227703094482422
01:00:0A:00:00:00:00;1726186063;13/09/24;00:07:43;0.961;-0.13;0.341;1.567480206489563;-0.8576548099517822;0.6548475623130798
01:00:0A:00:00:00:00;1726186064;13/09/24;00:07:44;0.919;-0.156;0.415;2.1111502647399902;-0.23090705275535583;0.18325956165790558
01:00:0A:00:00:00:00;1726186065;13/09/24;00:07:45;1.032;0.026;0.122;1.8008307218551636;-0.27611109614372253;0.8222246170043945
01:00:0A:00:00:00:00;1726186066;13/09/24;00:07:46;0.96;0.136;0.446;1.870469331741333;-0.27488934993743896;0.17959438264369965
01:00:0A:00:00:00:00;1726186067;13/09/24;00:07:47;1.068;-0.091;-0.067;1.3646730184555054;0.2577851116657257;0.3897320330142975
01:00:0A:00:00:00:00;1726186068;13/09/24;00:07:48;0.977;0.336;0.205;1.1801916360855103;0.4043927788734436;-0.051312677562236786
01:00:0A:00:00:00:00;1726186069;13/09/24;00:07:49;0.942;-0.066;0.391;0.7440338730812073;0.4508185386657715;0.8784241676330566
01:00:0A:00:00:00:00;1726186070;13/09/24;00:07:50;0.966;-0.148;0.194;1.1484266519546509;-0.3591887652873993;0.4141666293144226
01:00:0A:00:00:00:00;1726186071;13/09/24;00:07:51;0.944;0.001;0.174;1.3243558406829834;-0.03420845419168472;-0.19914205372333527
01:00:0A:00:00:00:00;1726186072;13/09/24;00:07:52;0.983;0.071;0.114;0.779464066028595;0.20402899384498596;0.5962044596672058
01:00:0A:00:00:00:00;1726186073;13/09/24;00:07:53;0.964;-0.077;0.354;0.9993755221366882;-0.11484266817569733;0.09040805697441101
01:00:0A:00:00:00:00;1726186074;13/09/24;00:07:54;1.032;0.019;0.179;0.9443976283073425;-0.051312677562236786;0.2626720666885376
01:00:0A:00:00:00:00;1726186075;13/09/24;00:07:55;1.015;-0.097;0.156;0.9175195693969727;0.13561207056045532;0.35063666105270386
01:00:0A:00:00:00:00;1726186076;13/09/24;00:07:56;0.92;-0.19;0.302;1.1582003831863403;-0.03176499158143997;0.5192354917526245
01:00:0A:00:00:00:00;1726186077;13/09/24;00:07:57;0.952;-0.196;0.122;1.6578881740570068;-0.6157521605491638;0.20525071024894714
01:00:0A:00:00:00:00;1726186078;13/09/24;00:07:58;0.981;0.038;0.041;1.7788395881652832;-0.23945917189121246;-0.3530800938606262
01:00:0A:00:00:00:00;1726186079;13/09/24;00:07:59;1.026;0.008;0.024;1.4098769426345825;0.4508185386657715;-0.08185594528913498
01:00:0A:00:00:00:00;1726186080;13/09/24;00:08:00;0.983;0.343;0.202;0.9859364628791809;0.15393804013729095;0.13927726447582245
01:00:0A:00:00:00:00;1726186081;13/09/24;00:08:01;1.007;-0.103;0.413;0.8234463334083557;0.18448130786418915;0.3640756905078888
01:00:0A:00:00:00:00;1726186082;13/09/24;00:08:02;1.057;0.075;-0.076;0.807563841342926;-0.17959438264369965;0.036651913076639175
01:00:0A:00:00:00:00;1726186083;13/09/24;00:08:03;0.961;-0.004;0.283;0.6145303845405579;0.5070181488990784;-0.025656338781118393
01:00:0A:00:00:00:00;1726186084;13/09/24;00:08:04;0.974;-0.026;0.029;0.40072759985923767;-0.45204028487205505;0.36163222789764404
01:00:0A:00:00:00:00;1726186085;13/09/24;00:08:05;0.949;-0.055;0.136;0.5705481767654419;0.43860122561454773;-0.32498031854629517
01:00:0A:00:00:00:00;1726186086;13/09/24;00:08:06;0.955;0.012;0.29;0.43249258399009705;-0.18936821818351746;0.6096435189247131
01:00:0A:00:00:00:00;1726186087;13/09/24;00:08:07;0.932;-0.442;0.184;1.1068878173828125;-1.0311404466629028;-0.13316862285137177
01:00:0A:00:00:00:00;1726186088;13/09/24;00:08:08;0.895;-0.394;-0.259;1.832595705986023;-0.7770205736160278;-1.2095131874084473
01:00:0A:00:00:00:00;1726186089;13/09/24;00:08:09;0.925;-0.195;-0.3;1.9303340911865234;-0.43860122561454773;-0.7122688889503479
01:00:0A:00:00:00:00;1726186090;13/09/24;00:08:10;0.977;-0.092;0.012;2.0622808933258057;-0.27977627515792847;-0.3640756905078888
01:00:0A:00:00:00:00;1726186091;13/09/24;00:08:11;0.966;-0.164;0.043;1.976759910583496;-0.161268413066864;0.09162978082895279
01:00:0A:00:00:00:00;1726186092;13/09/24;00:08:12;0.993;-0.249;0.035;2.188119411468506;-0.5534439086914062;-0.14294245839118958
01:00:0A:00:00:00:00;1726186093;13/09/24;00:08:13;0.962;-0.308;0.119;2.598620653152466;-0.8210028409957886;-0.4544837474822998
01:00:0A:00:00:00:00;1726186094;13/09/24;00:08:14;1.016;-0.182;0.315;2.680476665496826;-0.3286454975605011;0.2382374405860901
01:00:0A:00:00:00:00;1726186095;13/09/24;00:08:15;1.037;0.0;0.259;2.2577579021453857;0.31642818450927734;0.6609562039375305
01:00:0A:00:00:00:00;1726186096;13/09/24;00:08:16;0.899;0.16;0.479;1.8448129892349243;0.8197811245918274;0.6597344279289246
01:00:0A:00:00:00:00;1726186097;13/09/24;00:08:17;0.872;-0.255;0.495;1.7201964855194092;0.31154125928878784;1.2082914113998413
01:00:0A:00:00:00:00;1726186098;13/09/24;00:08:18;0.946;0.339;0.224;1.6591099500656128;0.1258382350206375;0.3799581527709961
01:00:0A:00:00:00:00;1726186099;13/09/24;00:08:19;0.91;-0.238;0.338;2.1783454418182373;-1.4220942258834839;1.8362609148025513
01:00:0A:00:00:00:00;1726186100;13/09/24;00:08:20;0.936;0.057;0.478;2.4239132404327393;-0.059864792972803116;0.11239919811487198
01:00:0A:00:00:00:00;1726186101;13/09/24;00:08:21;1.011;0.206;-0.14;1.4501941204071045;0.4789183437824249;0.23457224667072296
01:00:0A:00:00:00:00;1726186102;13/09/24;00:08:22;0.902;0.162;0.46;1.0702358484268188;0.7709119319915771;0.33964109420776367
01:00:0A:00:00:00:00;1726186103;13/09/24;00:08:23;0.892;0.065;0.459;0.7660250067710876;0.2834414541721344;1.0433577299118042
01:00:0A:00:00:00:00;1726186104;13/09/24;00:08:24;0.909;-0.348;0.281;1.2840386629104614;-0.6780604124069214;0.7721336483955383
01:00:0A:00:00:00:00;1726186105;13/09/24;00:08:25;0.949;-0.217;0.243;2.024407386779785;-0.49724429845809937;0.2626720666885376
01:00:0A:00:00:00:00;1726186106;13/09/24;00:08:26;0.954;-0.011;0.381;2.22477126121521;-0.1319468915462494;0.41172316670417786
01:00:0A:00:00:00:00;1726186107;13/09/24;00:08:27;0.996;0.119;0.333;1.8949038982391357;0.07941248267889023;0.7648032903671265
01:00:0A:00:00:00:00;1726186108;13/09/24;00:08:28;0.924;0.154;0.53;1.7287486791610718;0.1966986060142517;0.8747590184211731
01:00:0A:00:00:00:00;1726186109;13/09/24;00:08:29;0.878;0.03;0.567;1.5796974897384644;0.08429940044879913;1.1618657112121582
01:00:0A:00:00:00:00;1726186110;13/09/24;00:08:30;0.959;-0.17;0.358;1.5845844745635986;-0.1258382350206375;0.8295549750328064
01:00:0A:00:00:00:00;1726186111;13/09/24;00:08:31;0.963;0.143;0.262;1.5357152223587036;-0.03298672288656235;0.3543018400669098
01:00:0A:00:00:00:00;1726186112;13/09/24;00:08:32;0.965;-0.051;0.314;1.2192870378494263;0.34208452701568604;0.49724429845809937
01:00:0A:00:00:00:00;1726186113;13/09/24;00:08:33;0.917;0.202;0.432;1.1349875926971436;0.042760565876960754;0.33964109420776367
01:00:0A:00:00:00:00;1726186114;13/09/24;00:08:34;0.964;0.034;0.41;0.8515461683273315;-0.05497787147760391;0.8222246170043945
01:00:0A:00:00:00:00;1726186115;13/09/24;00:08:35;0.926;-0.299;0.41;1.27182137966156;-0.06230825558304787;0.34574973583221436
01:00:0A:00:00:00:00;1726186116;13/09/24;00:08:36;1.023;0.078;0.068;1.3329079151153564;-0.23335053026676178;0.28466320037841797
01:00:0A:00:00:00:00;1726186117;13/09/24;00:08:37;0.981;0.028;0.274;1.2327260971069336;0.4141666293144226;-0.05742133408784866
01:00:0A:00:00:00:00;1726186118;13/09/24;00:08:38;0.999;0.074;0.209;0.970054030418396;-0.09162978082895279;0.6096435189247131
01:00:0A:00:00:00:00;1726186119;13/09/24;00:08:39;0.927;-0.181;0.415;1.292590856552124;-0.06108652427792549;0.4752531349658966
01:00:0A:00:00:00:00;1726186120;13/09/24;00:08:40;0.921;-0.17;0.432;1.7018704414367676;-0.37629297375679016;0.836885392665863
01:00:0A:00:00:00:00;1726186121;13/09/24;00:08:41;0.88;0.0;0.534;1.9498817920684814;-0.11484266817569733;0.8112289905548096
01:00:0A:00:00:00:00;1726186122;13/09/24;00:08:42;0.941;-0.049;0.429;1.7702875137329102;0.16493360698223114;1.0616837739944458
01:00:0A:00:00:00:00;1726186123;13/09/24;00:08:43;0.925;0.045;0.414;1.722640037536621;0.0659734457731247;0.988379955291748
01:00:0A:00:00:00:00;1726186124;13/09/24;00:08:44;0.9;-0.137;0.482;1.7531832456588745;0.1820378452539444;1.1288789510726929
01:00:0A:00:00:00:00;1726186125;13/09/24;00:08:45;0.763;0.11;0.685;1.762956976890564;0.10018189996480942;1.29381263256073
01:00:0A:00:00:00:00;1726186126;13/09/24;00:08:46;0.923;-0.074;0.457;1.6468926668167114;-0.4862487316131592;1.1655309200286865
01:00:0A:00:00:00:00;1726186127;13/09/24;00:08:47;0.983;-0.265;0.206;2.1392500400543213;-0.46792274713516235;0.4642575681209564
01:00:0A:00:00:00:00;1726186128;13/09/24;00:08:48;1.013;-0.184;0.062;2.3640482425689697;-0.24678954482078552;0.2125810980796814
01:00:0A:00:00:00:00;1726186129;13/09/24;00:08:49;1.014;0.097;-0.008;2.166128158569336;-0.045204028487205505;-0.20891590416431427
01:00:0A:00:00:00:00;1726186130;13/09/24;00:08:50;1.011;0.079;0.011;1.6749924421310425;0.3677408695220947;-0.2687807083129883
01:00:0A:00:00:00:00;1726186131;13/09/24;00:08:51;0.977;0.181;0.149;1.1875219345092773;0.2370157092809677;0.2528982162475586
01:00:0A:00:00:00:00;1726186132;13/09/24;00:08:52;0.948;-0.079;0.343;1.6835445165634155;-0.5778785347938538;0.3445279896259308
01:00:0A:00:00:00:00;1726186133;13/09/24;00:08:53;1.021;-0.013;-0.082;1.6762142181396484;-0.015882495790719986;-0.14538592100143433
01:00:0A:00:00:00:00;1726186134;13/09/24;00:08:54;0.987;0.289;0.031;1.1899654865264893;0.38240164518356323;0.028099799528717995
01:00:0A:00:00:00:00;1726186135;13/09/24;00:08:55;1.017;0.016;0.195;0.8588765263557434;0.05375614017248154;0.5229006409645081
01:00:0A:00:00:00:00;1726186136;13/09/24;00:08:56;0.939;-0.319;0.299;1.4575244188308716;-0.08185594528913498;0.5143485069274902
01:00:0A:00:00:00:00;1726186137;13/09/24;00:08:57;0.966;0.154;0.317;1.6920967102050781;-0.22602014243602753;0.17348572611808777
01:00:0A:00:00:00:00;1726186138;13/09/24;00:08:58;0.993;-0.248;-0.065;1.2400563955307007;0.028099799528717995;0.4349360466003418
01:00:0A:00:00:00:00;1726186139;13/09/24;00:08:59;0.997;0.031;0.259;1.5784757137298584;-0.14049901068210602;-0.22968533635139465
01:00:0A:00:00:00:00;1726186140;13/09/24;00:09:00;1.028;-0.039;-0.02;0.7892378568649292;-0.17959438264369965;0.00855211354792118
01:00:0A:00:00:00:00;1726186141;13/09/24;00:09:01;0.995;0.148;0.105;0.6829473376274109;0.2993239760398865;-0.18570303916931152
01:00:0A:00:00:00:00;1726186142;13/09/24;00:09:02;0.983;-0.056;0.08;0.4043927788734436;-0.19547687470912933;0.42149701714515686
01:00:0A:00:00:00:00;1726186143;13/09/24;00:09:03;0.953;-0.103;0.121;0.8038986325263977;0.23579397797584534;-0.19547687470912933
01:00:0A:00:00:00:00;1726186144;13/09/24;00:09:04;0.943;0.11;0.224;0.7538076639175415;-0.07696902006864548;0.18814648687839508
01:00:0A:00:00:00:00;1726186145;13/09/24;00:09:05;0.976;0.026;0.219;0.5070181488990784;-0.2028072476387024;0.45814892649650574
01:00:0A:00:00:00:00;1726186146;13/09/24;00:09:06;1.029;-0.104;0.192;0.7660250067710876;-0.22968533635139465;-0.16249015927314758
01:00:0A:00:00:00:00;1726186147;13/09/24;00:09:07;1.049;0.112;-0.022;0.5253441333770752;0.16004669666290283;0.14294245839118958
01:00:0A:00:00:00:00;1726186148;13/09/24;00:09:08;0.995;0.011;0.365;0.4813618063926697;0.09773843735456467;0.15515977144241333
01:00:0A:00:00:00:00;1726186149;13/09/24;00:09:09;1.037;-0.021;0.048;0.5351179242134094;-0.2919935882091522;0.1673770695924759
01:00:0A:00:00:00:00;1726186150;13/09/24;00:09:10;1.02;0.0;0.1;0.5729915499687195;0.12950342893600464;-0.059864792972803116
01:00:0A:00:00:00:00;1726186151;13/09/24;00:09:11;1.003;0.089;0.16;0.42638394236564636;0.06352998316287994;0.05742133408784866
01:00:0A:00:00:00:00;1726186152;13/09/24;00:09:12;1.025;-0.039;0.128;0.3481931686401367;0.02687807008624077;0.10751228034496307
01:00:0A:00:00:00:00;1726186153;13/09/24;00:09:13;1.026;-0.009;0.11;0.43249258399009705;0.004886921960860491;-0.06841690838336945
01:00:0A:00:00:00:00;1726186154;13/09/24;00:09:14;1.02;0.049;0.112;0.294437050819397;0.05864306166768074;0.019547687843441963
01:00:0A:00:00:00:00;1726186155;13/09/24;00:09:15;0.998;-0.018;0.156;0.22846359014511108;0.0354301817715168;0.10384709388017654
01:00:0A:00:00:00:00;1726186156;13/09/24;00:09:16;0.993;0.008;0.113;0.2871066629886627;-0.11972958594560623;-0.018325956538319588
01:00:0A:00:00:00:00;1726186157;13/09/24;00:09:17;0.99;0.015;0.107;0.19303341209888458;0.05375614017248154;0.06841690838336945
01:00:0A:00:00:00:00;1726186158;13/09/24;00:09:18;0.997;0.007;0.177;0.18814648687839508;-0.021991148591041565;0.04398229718208313
01:00:0A:00:00:00:00;1726186159;13/09/24;00:09:19;1.009;0.023;0.13;0.17837265133857727;-0.09407324343919754;0.03176499158143997
01:00:0A:00:00:00:00;1726186160;13/09/24;00:09:20;1.03;0.033;0.093;0.11972958594560623;0.0354301817715168;0.018325956538319588
01:00:0A:00:00:00:00;1726186161;13/09/24;00:09:21;1.023;0.008;0.181;0.1270599663257599;0.015882495790719986;0.009773843921720982
01:00:0A:00:00:00:00;1726186162;13/09/24;00:09:22;1.022;0.006;0.116;0.15882496535778046;-0.08918632566928864;-0.012217304669320583
01:00:0A:00:00:00:00;1726186163;13/09/24;00:09:23;1.005;0.005;0.111;0.1368338167667389;0.030543262138962746;0.0012217304902151227
01:00:0A:00:00:00:00;1726186164;13/09/24;00:09:24;0.992;0.008;0.162;0.13316862285137177;-0.01710422709584236;0.014660765416920185
01:00:0A:00:00:00:00;1726186165;13/09/24;00:09:25;1.013;-0.014;0.153;0.42271876335144043;-0.1417207270860672;-0.03298672288656235
01:00:0A:00:00:00:00;1726186166;13/09/24;00:09:26;1.053;0.04;0.064;0.32009339332580566;0.025656338781118393;0.012217304669320583
01:00:0A:00:00:00:00;1726186167;13/09/24;00:09:27;1.038;0.004;0.184;0.25534167885780334;0.15271630883216858;0.04153883829712868
01:00:0A:00:00:00:00;1726186168;13/09/24;00:09:28;1.016;-0.017;0.105;0.2785545289516449;-0.04153883829712868;0.04153883829712868
01:00:0A:00:00:00:00;1726186169;13/09/24;00:09:29;0.947;-0.002;0.099;0.2785545289516449;0.0659734457731247;-0.036651913076639175
01:00:0A:00:00:00:00;1726186170;13/09/24;00:09:30;0.938;-0.016;0.111;0.21502456068992615;-0.06352998316287994;0.11362093687057495
01:00:0A:00:00:00:00;1726186171;13/09/24;00:09:31;0.996;-0.011;0.134;0.27488934993743896;-0.09896016865968704;-0.06230825558304787
01:00:0A:00:00:00:00;1726186172;13/09/24;00:09:32;1.034;0.045;0.13;0.11972958594560623;0.01710422709584236;0.1673770695924759
01:00:0A:00:00:00:00;1726186173;13/09/24;00:09:33;1.056;-0.066;0.194;0.19914205372333527;0.0036651913542300463;0.0
01:00:0A:00:00:00:00;1726186174;13/09/24;00:09:34;1.044;0.104;0.07;0.13561207056045532;0.015882495790719986;-0.006108652334660292
01:00:0A:00:00:00:00;1726186175;13/09/24;00:09:35;1.004;-0.029;0.155;0.0354301817715168;0.1368338167667389;0.16493360698223114
01:00:0A:00:00:00:00;1726186176;13/09/24;00:09:36;0.986;0.015;0.131;0.21502456068992615;-0.13561207056045532;-0.1258382350206375
01:00:0A:00:00:00:00;1726186177;13/09/24;00:09:37;1.001;0.074;0.094;0.06108652427792549;0.02076941914856434;0.039095375686883926
01:00:0A:00:00:00:00;1726186178;13/09/24;00:09:38;1.022;-0.009;0.186;0.042760565876960754;0.004886921960860491;-0.0036651913542300463
01:00:0A:00:00:00:00;1726186179;13/09/24;00:09:39;1.035;0.003;0.134;0.08796459436416626;-0.059864792972803116;-0.08552113175392151
01:00:0A:00:00:00:00;1726186180;13/09/24;00:09:40;1.016;0.006;0.097;0.006108652334660292;0.012217304669320583;0.009773843921720982
01:00:0A:00:00:00:00;1726186181;13/09/24;00:09:41;1.005;-0.018;0.054;0.17959438264369965;-0.02076941914856434;0.07696902006864548
01:00:0A:00:00:00:00;1726186182;13/09/24;00:09:42;0.995;0.006;0.139;0.1514945775270462;0.13561207056045532;0.02932153083384037
01:00:0A:00:00:00:00;1726186183;13/09/24;00:09:43;1.002;0.036;0.176;0.14416420459747314;-0.10262535512447357;0.080634206533432
01:00:0A:00:00:00:00;1726186184;13/09/24;00:09:44;1.023;0.031;0.061;0.2528982162475586;-0.12950342893600464;-0.12095131725072861
01:00:0A:00:00:00:00;1726186185;13/09/24;00:09:45;1.0;0.071;0.072;0.5900958180427551;0.14416420459747314;0.04398229718208313
01:00:0A:00:00:00:00;1726186186;13/09/24;00:09:46;0.968;0.005;0.237;1.1105530261993408;0.14416420459747314;0.22846359014511108
01:00:0A:00:00:00:00;1726186187;13/09/24;00:09:47;0.991;-0.014;0.133;1.0299187898635864;-0.24434609711170197;0.34574973583221436
01:00:0A:00:00:00:00;1726186188;13/09/24;00:09:48;1.008;-0.074;0.158;1.164309024810791;-0.021991148591041565;-0.10384709388017654
01:00:0A:00:00:00:00;1726186189;13/09/24;00:09:49;1.036;0.122;0.034;0.891863226890564;0.1417207270860672;0.13316862285137177
01:00:0A:00:00:00:00;1726186190;13/09/24;00:09:50;1.027;0.008;0.257;0.779464066028595;0.1258382350206375;0.04398229718208313
01:00:0A:00:00:00:00;1726186191;13/09/24;00:09:51;1.037;-0.005;0.113;0.6914994716644287;-0.10995574295520782;0.1417207270860672
01:00:0A:00:00:00:00;1726186192;13/09/24;00:09:52;1.013;-0.047;0.134;0.6572909951210022;0.09040805697441101;0.06475171446800232
01:00:0A:00:00:00:00;1726186193;13/09/24;00:09:53;0.99;0.07;0.12;0.5815436840057373;0.02687807008624077;0.030543262138962746
01:00:0A:00:00:00:00;1726186194;13/09/24;00:09:54;0.994;-0.001;0.107;0.42271876335144043;0.08185594528913498;0.18936821818351746
01:00:0A:00:00:00:00;1726186195;13/09/24;00:09:55;0.997;-0.013;0.153;0.5400049090385437;-0.09529497474431992;-0.024434609338641167
01:00:0A:00:00:00:00;1726186196;13/09/24;00:09:56;1.019;0.033;0.076;0.445931613445282;-0.05375614017248154;0.10506881773471832
01:00:0A:00:00:00:00;1726186197;13/09/24;00:09:57;1.021;-0.004;0.158;0.41294488310813904;0.05497787147760391;0.04886921867728233
01:00:0A:00:00:00:00;1726186198;13/09/24;00:09:58;1.022;0.042;0.172;0.40194931626319885;-0.05864306166768074;0.04642575979232788
01:00:0A:00:00:00:00;1726186199;13/09/24;00:09:59;1.023;-0.025;0.106;0.3604104816913605;0.0012217304902151227;0.07452555745840073
01:00:0A:00:00:00:00;1726186200;13/09/24;00:10:00;0.991;0.021;0.154;0.3836233615875244;0.059864792972803116;-0.04153883829712868
01:00:0A:00:00:00:00;1726186201;13/09/24;00:10:01;0.98;0.026;0.122;0.2638937830924988;-0.04642575979232788;0.1563815027475357
01:00:0A:00:00:00:00;1726186202;13/09/24;00:10:02;0.991;-0.009;0.114;0.3017674386501312;0.013439035043120384;0.0024434609804302454
01:00:0A:00:00:00:00;1726186203;13/09/24;00:10:03;1.014;0.04;0.125;0.2919935882091522;-0.039095375686883926;-0.0024434609804302454
01:00:0A:00:00:00:00;1726186204;13/09/24;00:10:04;1.024;0.015;0.12;0.20402899384498596;-0.03420845419168472;0.07941248267889023
01:00:0A:00:00:00:00;1726186205;13/09/24;00:10:05;1.019;-0.023;0.152;0.2382374405860901;-0.036651913076639175;0.02076941914856434
01:00:0A:00:00:00:00;1726186206;13/09/24;00:10:06;1.011;0.037;0.126;0.22357667982578278;-0.05375614017248154;0.013439035043120384
01:00:0A:00:00:00:00;1726186207;13/09/24;00:10:07;0.999;0.013;0.136;0.14782939851284027;0.019547687843441963;0.08918632566928864
01:00:0A:00:00:00:00;1726186208;13/09/24;00:10:08;1.004;0.004;0.157;0.19792033731937408;-0.05009094998240471;-0.0036651913542300463
01:00:0A:00:00:00:00;1726186209;13/09/24;00:10:09;1.03;0.036;0.122;0.16859880089759827;-0.014660765416920185;0.006108652334660292
01:00:0A:00:00:00:00;1726186210;13/09/24;00:10:10;1.046;0.003;0.148;0.13561207056045532;0.04764748737215996;0.010995574295520782
01:00:0A:00:00:00:00;1726186211;13/09/24;00:10:11;1.04;0.015;0.138;0.14905111491680145;0.036651913076639175;-0.01710422709584236
01:00:0A:00:00:00:00;1726186212;13/09/24;00:10:12;0.994;0.0;0.084;0.13439035415649414;-0.009773843921720982;-0.004886921960860491
01:00:0A:00:00:00:00;1726186213;13/09/24;00:10:13;0.961;0.001;0.112;0.1258382350206375;0.05497787147760391;-0.015882495790719986
01:00:0A:00:00:00:00;1726186214;13/09/24;00:10:14;0.957;0.002;0.112;0.11972958594560623;-0.15882496535778046;0.042760565876960754
01:00:0A:00:00:00:00;1726186215;13/09/24;00:10:15;0.985;-0.004;0.108;0.1062905490398407;0.012217304669320583;0.012217304669320583
01:00:0A:00:00:00:00;1726186216;13/09/24;00:10:16;1.023;0.014;0.182;0.10751228034496307;-0.080634206533432;0.03176499158143997
01:00:0A:00:00:00:00;1726186217;13/09/24;00:10:17;1.046;0.008;0.118;0.08429940044879913;0.0;0.025656338781118393
01:00:0A:00:00:00:00;1726186218;13/09/24;00:10:18;1.046;0.004;0.158;0.08918632566928864;0.07330382615327835;-0.014660765416920185
01:00:0A:00:00:00:00;1726186219;13/09/24;00:10:19;1.022;0.021;0.135;0.08674286305904388;0.02076941914856434;-0.021991148591041565
01:00:0A:00:00:00:00;1726186220;13/09/24;00:10:20;1.007;0.0;0.108;0.05742133408784866;0.02321287989616394;0.028099799528717995
01:00:0A:00:00:00:00;1726186221;13/09/24;00:10:21;0.979;0.003;0.123;0.07330382615327835;0.00855211354792118;-0.004886921960860491
01:00:0A:00:00:00:00;1726186222;13/09/24;00:10:22;0.982;0.018;0.119;0.06719517707824707;-0.06108652427792549;0.012217304669320583
01:00:0A:00:00:00:00;1726186223;13/09/24;00:10:23;1.001;0.004;0.121;0.05497787147760391;-0.025656338781118393;0.006108652334660292
01:00:0A:00:00:00:00;1726186224;13/09/24;00:10:24;1.009;0.005;0.149;0.06475171446800232;-0.05619959905743599;-0.0012217304902151227
01:00:0A:00:00:00:00;1726186225;13/09/24;00:10:25;1.025;0.014;0.144;0.05009094998240471;-0.02932153083384037;0.025656338781118393
01:00:0A:00:00:00:00;1726186226;13/09/24;00:10:26;1.027;0.005;0.133;0.042760565876960754;0.013439035043120384;0.024434609338641167
01:00:0A:00:00:00:00;1726186227;13/09/24;00:10:27;1.014;0.011;0.145;0.06230825558304787;0.02076941914856434;-0.00855211354792118
01:00:0A:00:00:00:00;1726186228;13/09/24;00:10:28;1.004;0.019;0.121;0.0659734457731247;-0.015882495790719986;-0.00855211354792118
01:00:0A:00:00:00:00;1726186229;13/09/24;00:10:29;1.006;0.005;0.094;-0.2773328125476837;-0.13072516024112701;-0.009773843921720982
01:00:0A:00:00:00:00;1726186230;13/09/24;00:10:30;1.018;0.013;0.073;-0.3799581527709961;-0.006108652334660292;-0.04764748737215996
01:00:0A:00:00:00:00;1726186231;13/09/24;00:10:31;1.022;0.023;0.138;-0.42760565876960754;-0.009773843921720982;-0.06719517707824707
01:00:0A:00:00:00:00;1726186232;13/09/24;00:10:32;1.025;0.017;0.15;-0.4043927788734436;-0.009773843921720982;-0.04764748737215996
01:00:0A:00:00:00:00;1726186233;13/09/24;00:10:33;1.02;0.003;0.124;-0.3701843321323395;-0.0036651913542300463;-0.05253440886735916
01:00:0A:00:00:00:00;1726186234;13/09/24;00:10:34;0.997;0.005;0.137;-0.35185837745666504;0.030543262138962746;-0.03787364438176155
01:00:0A:00:00:00:00;1726186235;13/09/24;00:10:35;0.99;0.005;0.122;-0.3152064383029938;-0.05253440886735916;-0.042760565876960754
01:00:0A:00:00:00:00;1726186236;13/09/24;00:10:36;0.998;0.017;0.113;-0.3127630054950714;-0.040317103266716;-0.03298672288656235
01:00:0A:00:00:00:00;1726186237;13/09/24;00:10:37;1.005;0.012;0.13;-0.32009339332580566;-0.03787364438176155;-0.0024434609804302454
01:00:0A:00:00:00:00;1726186238;13/09/24;00:10:38;1.016;0.011;0.139;-0.2773328125476837;-0.042760565876960754;-0.05742133408784866
01:00:0A:00:00:00:00;1726186239;13/09/24;00:10:39;1.022;0.027;0.136;-0.27977627515792847;-0.014660765416920185;-0.05742133408784866
01:00:0A:00:00:00:00;1726186240;13/09/24;00:10:40;1.022;0.002;0.142;-0.2871066629886627;-0.006108652334660292;-0.028099799528717995
01:00:0A:00:00:00:00;1726186241;13/09/24;00:10:41;1.015;0.0;0.129;-0.2590068578720093;0.0036651913542300463;-0.05253440886735916
01:00:0A:00:00:00:00;1726186242;13/09/24;00:10:42;1.012;0.017;0.14;-0.2675589621067047;0.0;-0.009773843921720982
01:00:0A:00:00:00:00;1726186243;13/09/24;00:10:43;1.007;0.009;0.127;-0.26145032048225403;-0.039095375686883926;-0.0024434609804302454
01:00:0A:00:00:00:00;1726186244;13/09/24;00:10:44;1.004;0.015;0.122;-0.2382374405860901;-0.00855211354792118;-0.03787364438176155
01:00:0A:00:00:00:00;1726186245;13/09/24;00:10:45;0.998;0.014;0.147;-0.23090705275535583;-0.030543262138962746;-0.025656338781118393
01:00:0A:00:00:00:00;1726186246;13/09/24;00:10:46;1.002;0.0;0.133;-0.21135938167572021;-0.06963863223791122;-0.02076941914856434
01:00:0A:00:00:00:00;1726186247;13/09/24;00:10:47;1.007;0.004;0.133;-0.2028072476387024;-0.006108652334660292;-0.015882495790719986
01:00:0A:00:00:00:00;1726186248;13/09/24;00:10:48;1.01;0.0;0.151;-0.18814648687839508;-0.013439035043120384;0.004886921960860491
01:00:0A:00:00:00:00;1726186249;13/09/24;00:10:49;1.012;-0.001;0.124;-0.14782939851284027;-0.04153883829712868;-0.018325956538319588
01:00:0A:00:00:00:00;1726186250;13/09/24;00:10:50;1.011;0.009;0.116;-0.1417207270860672;0.010995574295520782;-0.030543262138962746
01:00:0A:00:00:00:00;1726186251;13/09/24;00:10:51;1.008;0.012;0.131;-0.14782939851284027;0.0024434609804302454;-0.012217304669320583
01:00:0A:00:00:00:00;1726186252;13/09/24;00:10:52;1.016;0.001;0.114;-0.13439035415649414;-0.039095375686883926;-0.01710422709584236
01:00:0A:00:00:00:00;1726186253;13/09/24;00:10:53;1.022;-0.014;0.113;-0.11239919811487198;-0.028099799528717995;0.09285151958465576
01:00:0A:00:00:00:00;1726186254;13/09/24;00:10:54;1.023;-0.04;0.14;0.006108652334660292;-0.012217304669320583;-0.0659734457731247
01:00:0A:00:00:00:00;1726186255;13/09/24;00:10:55;1.016;0.023;0.143;-0.024434609338641167;-0.009773843921720982;-0.07819075137376785
01:00:0A:00:00:00:00;1726186256;13/09/24;00:10:56;0.998;0.021;0.15;-0.09407324343919754;0.015882495790719986;0.02932153083384037
01:00:0A:00:00:00:00;1726186257;13/09/24;00:10:57;0.999;-0.018;0.142;-0.06963863223791122;-0.0024434609804302454;0.024434609338641167
01:00:0A:00:00:00:00;1726186258;13/09/24;00:10:58;1.008;0.009;0.126;-0.018325956538319588;0.009773843921720982;-0.04153883829712868
01:00:0A:00:00:00:00;1726186259;13/09/24;00:10:59;1.013;0.035;0.119;-0.06841690838336945;-0.0036651913542300463;0.025656338781118393
01:00:0A:00:00:00:00;1726186260;13/09/24;00:11:00;1.016;-0.01;0.121;-0.05742133408784866;-0.012217304669320583;0.0073303827084600925
01:00:0A:00:00:00:00;1726186261;13/09/24;00:11:01;1.007;0.017;0.121;-0.019547687843441963;-0.021991148591041565;-0.06963863223791122
01:00:0A:00:00:00:00;1726186262;13/09/24;00:11:02;0.998;0.02;0.131;-0.0708603635430336;-0.02076941914856434;0.004886921960860491
01:00:0A:00:00:00:00;1726186263;13/09/24;00:11:03;0.992;-0.007;0.128;-0.0659734457731247;-0.04886921867728233;0.006108652334660292
01:00:0A:00:00:00:00;1726186264;13/09/24;00:11:04;1.009;0.008;0.132;-0.04886921867728233;-0.03298672288656235;-0.019547687843441963
01:00:0A:00:00:00:00;1726186265;13/09/24;00:11:05;1.017;0.019;0.148;-0.08429940044879913;-0.030543262138962746;0.02687807008624077
01:00:0A:00:00:00:00;1726186266;13/09/24;00:11:06;1.026;0.018;0.175;0.6695082783699036;-0.01710422709584236;0.09896016865968704
01:00:0A:00:00:00:00;1726186267;13/09/24;00:11:07;1.029;-0.019;0.135;0.6328563690185547;-0.0073303827084600925;0.07208210229873657
01:00:0A:00:00:00:00;1726186268;13/09/24;00:11:08;1.011;0.021;0.13;0.6157521605491638;0.02687807008624077;0.0
01:00:0A:00:00:00:00;1726186269;13/09/24;00:11:09;1.003;0.019;0.11;0.2773328125476837;-0.015882495790719986;0.03298672288656235
01:00:0A:00:00:00:00;1726186270;13/09/24;00:11:10;0.989;-0.011;0.138;0.2724458873271942;0.04642575979232788;0.03176499158143997
01:00:0A:00:00:00:00;1726186271;13/09/24;00:11:11;0.99;0.009;0.152;0.294437050819397;-0.05253440886735916;0.0073303827084600925
01:00:0A:00:00:00:00;1726186272;13/09/24;00:11:12;1.005;0.002;0.121;0.24190263450145721;-0.012217304669320583;0.07330382615327835
01:00:0A:00:00:00:00;1726186273;13/09/24;00:11:13;1.016;-0.004;0.149;0.2590068578720093;0.02076941914856434;0.019547687843441963
01:00:0A:00:00:00:00;1726186274;13/09/24;00:11:14;1.018;0.026;0.148;0.24434609711170197;-0.02321287989616394;0.03420845419168472
01:00:0A:00:00:00:00;1726186275;13/09/24;00:11:15;1.024;0.0;0.128;0.21502456068992615;0.006108652334660292;0.045204028487205505
01:00:0A:00:00:00:00;1726186276;13/09/24;00:11:16;1.02;0.009;0.158;0.22968533635139465;0.019547687843441963;0.004886921960860491
01:00:0A:00:00:00:00;1726186277;13/09/24;00:11:17;1.016;0.027;0.133;0.20036379992961884;0.0;0.019547687843441963
01:00:0A:00:00:00:00;1726186278;13/09/24;00:11:18;1.014;0.003;0.131;0.17592918872833252;0.03298672288656235;0.02687807008624077
01:00:0A:00:00:00:00;1726186279;13/09/24;00:11:19;1.001;0.012;0.129;0.1869247555732727;0.0073303827084600925;-0.009773843921720982
01:00:0A:00:00:00:00;1726186280;13/09/24;00:11:20;0.997;0.01;0.113;0.14905111491680145;-0.030543262138962746;0.04153883829712868
01:00:0A:00:00:00:00;1726186281;13/09/24;00:11:21;0.995;0.004;0.124;0.14049901068210602;-0.021991148591041565;0.030543262138962746
01:00:0A:00:00:00:00;1726186282;13/09/24;00:11:22;1.004;0.026;0.142;0.13561207056045532;-0.05375614017248154;0.018325956538319588
01:00:0A:00:00:00:00;1726186283;13/09/24;00:11:23;1.009;0.024;0.131;0.1062905490398407;-0.03420845419168472;0.025656338781118393
01:00:0A:00:00:00:00;1726186284;13/09/24;00:11:24;1.016;0.008;0.141;0.10262535512447357;0.0024434609804302454;-0.00855211354792118
01:00:0A:00:00:00:00;1726186285;13/09/24;00:11:25;1.017;0.018;0.142;0.09407324343919754;-0.0024434609804302454;-0.015882495790719986
01:00:0A:00:00:00:00;1726186286;13/09/24;00:11:26;1.019;0.0;0.127;0.0708603635430336;-0.0036651913542300463;0.012217304669320583
01:00:0A:00:00:00:00;1726186287;13/09/24;00:11:27;1.019;-0.005;0.13;0.0659734457731247;0.006108652334660292;0.019547687843441963
01:00:0A:00:00:00:00;1726186288;13/09/24;00:11:28;1.016;0.012;0.131;0.05619959905743599;-0.006108652334660292;0.03176499158143997
01:00:0A:00:00:00:00;1726186289;13/09/24;00:11:29;1.015;0.012;0.124;0.04398229718208313;-0.004886921960860491;0.03176499158143997
01:00:0A:00:00:00:00;1726186290;13/09/24;00:11:30;1.008;0.014;0.123;0.051312677562236786;-0.0036651913542300463;-0.0012217304902151227
01:00:0A:00:00:00:00;1726186291;13/09/24;00:11:31;1.003;0.017;0.127;0.05009094998240471;-0.024434609338641167;-0.0073303827084600925
01:00:0A:00:00:00:00;1726186292;13/09/24;00:11:32;0.996;0.004;0.13;0.045204028487205505;-0.03298672288656235;0.0024434609804302454
01:00:0A:00:00:00:00;1726186293;13/09/24;00:11:33;1.001;0.0;0.134;0.051312677562236786;-0.030543262138962746;0.0
01:00:0A:00:00:00:00;1726186294;13/09/24;00:11:34;1.007;0.009;0.139;0.042760565876960754;-0.021991148591041565;0.019547687843441963
01:00:0A:00:00:00:00;1726186295;13/09/24;00:11:35;1.019;0.007;0.139;0.040317103266716;-0.012217304669320583;0.021991148591041565
01:00:0A:00:00:00:00;1726186296;13/09/24;00:11:36;1.021;0.008;0.134;0.05253440886735916;0.004886921960860491;-0.0024434609804302454
01:00:0A:00:00:00:00;1726186297;13/09/24;00:11:37;1.019;0.011;0.129;0.05009094998240471;0.006108652334660292;-0.0073303827084600925
01:00:0A:00:00:00:00;1726186298;13/09/24;00:11:38;1.016;0.004;0.132;0.045204028487205505;-0.013439035043120384;0.0024434609804302454
01:00:0A:00:00:00:00;1726186299;13/09/24;00:11:39;1.013;0.0;0.13;0.04764748737215996;-0.013439035043120384;0.0073303827084600925
01:00:0A:00:00:00:00;1726186300;13/09/24;00:11:40;1.012;0.012;0.132;0.039095375686883926;0.010995574295520782;0.00855211354792118
01:00:0A:00:00:00:00;1726186301;13/09/24;00:11:41;1.006;0.007;0.131;0.02932153083384037;0.013439035043120384;0.012217304669320583
01:00:0A:00:00:00:00;1726186302;13/09/24;00:11:42;1.0;0.009;0.118;0.03176499158143997;-0.019547687843441963;0.0024434609804302454
01:00:0A:00:00:00:00;1726186303;13/09/24;00:11:43;0.997;0.016;0.122;0.02687807008624077;-0.013439035043120384;-0.006108652334660292
01:00:0A:00:00:00:00;1726186304;13/09/24;00:11:44;1.002;0.015;0.136;0.01710422709584236;-0.03298672288656235;0.004886921960860491
01:00:0A:00:00:00:00;1726186305;13/09/24;00:11:45;1.009;0.006;0.131;0.019547687843441963;-0.036651913076639175;0.0
01:00:0A:00:00:00:00;1726186306;13/09/24;00:11:46;1.017;0.011;0.136;0.018325956538319588;-0.0024434609804302454;-0.009773843921720982
01:00:0A:00:00:00:00;1726186307;13/09/24;00:11:47;1.018;0.011;0.144;0.013439035043120384;-0.006108652334660292;-0.0036651913542300463
01:00:0A:00:00:00:00;1726186308;13/09/24;00:11:48;1.018;0.0;0.126;0.01710422709584236;-0.0012217304902151227;-0.0012217304902151227
01:00:0A:00:00:00:00;1726186309;13/09/24;00:11:49;1.009;0.002;0.124;0.018325956538319588;0.009773843921720982;-0.0036651913542300463
01:00:0A:00:00:00:00;1726186310;13/09/24;00:11:50;1.004;0.007;0.134;0.010995574295520782;-0.0036651913542300463;0.010995574295520782
01:00:0A:00:00:00:00;1726186311;13/09/24;00:11:51;1.003;0.003;0.124;0.013439035043120384;-0.025656338781118393;0.014660765416920185
01:00:0A:00:00:00:00;1726186312;13/09/24;00:11:52;1.004;0.007;0.123;0.013439035043120384;-0.00855211354792118;0.012217304669320583
01:00:0A:00:00:00:00;1726186313;13/09/24;00:11:53;1.009;0.02;0.135;0.0073303827084600925;-0.02932153083384037;0.015882495790719986
01:00:0A:00:00:00:00;1726186314;13/09/24;00:11:54;1.013;0.009;0.127;0.009773843921720982;-0.036651913076639175;0.004886921960860491
01:00:0A:00:00:00:00;1726186315;13/09/24;00:11:55;1.019;0.011;0.13;0.013439035043120384;-0.0024434609804302454;-0.014660765416920185
01:00:0A:00:00:00:00;1726186316;13/09/24;00:11:56;1.018;0.013;0.142;0.006108652334660292;-0.006108652334660292;-0.0036651913542300463
01:00:0A:00:00:00:00;1726186317;13/09/24;00:11:57;1.014;0.002;0.127;0.004886921960860491;-0.014660765416920185;0.0024434609804302454
01:00:0A:00:00:00:00;1726186318;13/09/24;00:11:58;1.004;0.001;0.126;0.00855211354792118;0.009773843921720982;-0.0073303827084600925
01:00:0A:00:00:00:00;1726186319;13/09/24;00:11:59;1.0;0.009;0.136;0.0024434609804302454;-0.012217304669320583;0.014660765416920185
01:00:0A:00:00:00:00;1726186320;13/09/24;00:12:00;1.002;0.004;0.127;0.009773843921720982;-0.045204028487205505;0.015882495790719986
01:00:0A:00:00:00:00;1726186321;13/09/24;00:12:01;1.004;0.007;0.129;0.01710422709584236;-0.014660765416920185;0.0036651913542300463
01:00:0A:00:00:00:00;1726186322;13/09/24;00:12:02;1.012;0.013;0.151;0.02076941914856434;-0.02076941914856434;0.009773843921720982
01:00:0A:00:00:00:00;1726186323;13/09/24;00:12:03;1.018;0.003;0.14;0.02687807008624077;-0.024434609338641167;0.00855211354792118
01:00:0A:00:00:00:00;1726186324;13/09/24;00:12:04;1.025;0.005;0.134;0.03298672288656235;0.015882495790719986;-0.0024434609804302454
01:00:0A:00:00:00:00;1726186325;13/09/24;00:12:05;1.019;0.008;0.146;0.03176499158143997;0.012217304669320583;0.010995574295520782
01:00:0A:00:00:00:00;1726186326;13/09/24;00:12:06;1.012;0.002;0.123;0.03420845419168472;-0.015882495790719986;0.021991148591041565
01:00:0A:00:00:00:00;1726186327;13/09/24;00:12:07;1.004;0.005;0.122;0.045204028487205505;0.0012217304902151227;-0.0024434609804302454
01:00:0A:00:00:00:00;1726186328;13/09/24;00:12:08;0.999;0.011;0.137;0.04398229718208313;-0.01710422709584236;0.00855211354792118
01:00:0A:00:00:00:00;1726186329;13/09/24;00:12:09;0.999;0.005;0.133;0.04642575979232788;-0.04398229718208313;0.014660765416920185
01:00:0A:00:00:00:00;1726186330;13/09/24;00:12:10;1.005;0.003;0.129;0.05497787147760391;-0.009773843921720982;0.0
01:00:0A:00:00:00:00;1726186331;13/09/24;00:12:11;1.016;0.015;0.148;0.05009094998240471;-0.012217304669320583;0.014660765416920185
01:00:0A:00:00:00:00;1726186332;13/09/24;00:12:12;1.022;0.004;0.137;0.05253440886735916;-0.00855211354792118;0.009773843921720982
01:00:0A:00:00:00:00;1726186333;13/09/24;00:12:13;1.021;0.004;0.13;0.06352998316287994;0.009773843921720982;-0.004886921960860491
01:00:0A:00:00:00:00;1726186334;13/09/24;00:12:14;1.013;0.013;0.142;0.059864792972803116;0.012217304669320583;0.0
01:00:0A:00:00:00:00;1726186335;13/09/24;00:12:15;1.002;0.0;0.129;0.05742133408784866;-0.014660765416920185;0.019547687843441963
01:00:0A:00:00:00:00;1726186336;13/09/24;00:12:16;0.995;0.002;0.129;0.07330382615327835;0.0024434609804302454;-0.0036651913542300463
01:00:0A:00:00:00:00;1726186337;13/09/24;00:12:17;0.996;0.011;0.133;0.06230825558304787;-0.013439035043120384;0.021991148591041565
01:00:0A:00:00:00:00;1726186338;13/09/24;00:12:18;1.01;0.003;0.13;0.059864792972803116;-0.03420845419168472;0.03176499158143997
01:00:0A:00:00:00:00;1726186339;13/09/24;00:12:19;1.017;0.005;0.132;0.080634206533432;-0.021991148591041565;0.0
01:00:0A:00:00:00:00;1726186340;13/09/24;00:12:20;1.021;0.019;0.141;0.06963863223791122;-0.013439035043120384;0.010995574295520782
01:00:0A:00:00:00:00;1726186341;13/09/24;00:12:21;1.018;0.001;0.139;0.06352998316287994;-0.009773843921720982;0.019547687843441963
01:00:0A:00:00:00:00;1726186342;13/09/24;00:12:22;1.012;0.007;0.139;0.080634206533432;0.009773843921720982;-0.00855211354792118
01:00:0A:00:00:00:00;1726186343;13/09/24;00:12:23;1.006;0.022;0.137;0.06352998316287994;0.013439035043120384;0.0073303827084600925
01:00:0A:00:00:00:00;1726186344;13/09/24;00:12:24;1.002;0.005;0.127;0.05864306166768074;-0.006108652334660292;0.012217304669320583
01:00:0A:00:00:00:00;1726186345;13/09/24;00:12:25;1.004;0.001;0.125;0.07696902006864548;-0.02321287989616394;-0.015882495790719986
01:00:0A:00:00:00:00;1726186346;13/09/24;00:12:26;1.006;0.01;0.128;0.05864306166768074;-0.02932153083384037;0.012217304669320583
01:00:0A:00:00:00:00;1726186347;13/09/24;00:12:27;1.011;0.0;0.137;0.04886921867728233;-0.018325956538319588;0.030543262138962746
01:00:0A:00:00:00:00;1726186348;13/09/24;00:12:28;1.013;0.006;0.138;0.0659734457731247;-0.018325956538319588;0.0
01:00:0A:00:00:00:00;1726186349;13/09/24;00:12:29;1.017;0.018;0.136;0.051312677562236786;0.0036651913542300463;0.010995574295520782
01:00:0A:00:00:00:00;1726186350;13/09/24;00:12:30;1.019;0.003;0.134;0.04764748737215996;0.00855211354792118;0.018325956538319588
01:00:0A:00:00:00:00;1726186351;13/09/24;00:12:31;1.015;0.007;0.128;0.06352998316287994;-0.006108652334660292;-0.006108652334660292
01:00:0A:00:00:00:00;1726186352;13/09/24;00:12:32;1.009;0.013;0.123;0.05253440886735916;-0.0073303827084600925;0.0073303827084600925
01:00:0A:00:00:00:00;1726186353;13/09/24;00:12:33;0.998;0.003;0.132;0.05253440886735916;-0.015882495790719986;0.010995574295520782
01:00:0A:00:00:00:00;1726186354;13/09/24;00:12:34;1.002;0.006;0.134;0.06719517707824707;-0.03420845419168472;-0.004886921960860491
01:00:0A:00:00:00:00;1726186355;13/09/24;00:12:35;1.009;0.015;0.133;0.05497787147760391;-0.03176499158143997;0.02076941914856434
01:00:0A:00:00:00:00;1726186356;13/09/24;00:12:36;1.023;0.004;0.146;0.05742133408784866;-0.0036651913542300463;0.009773843921720982
01:00:0A:00:00:00:00;1726186357;13/09/24;00:12:37;1.028;0.01;0.146;0.0659734457731247;-0.0012217304902151227;-0.0012217304902151227
01:00:0A:00:00:00:00;1726186358;13/09/24;00:12:38;1.017;0.015;0.135;0.05619959905743599;0.015882495790719986;0.0
01:00:0A:00:00:00:00;1726186359;13/09/24;00:12:39;1.006;0.007;0.132;0.05253440886735916;0.02076941914856434;0.0036651913542300463
01:00:0A:00:00:00:00;1726186360;13/09/24;00:12:40;0.991;0.009;0.126;0.06352998316287994;-0.024434609338641167;-0.00855211354792118
01:00:0A:00:00:00:00;1726186361;13/09/24;00:12:41;0.995;0.007;0.122;0.04886921867728233;-0.028099799528717995;0.012217304669320583
01:00:0A:00:00:00:00;1726186362;13/09/24;00:12:42;1.009;0.003;0.135;0.05009094998240471;-0.039095375686883926;0.013439035043120384
01:00:0A:00:00:00:00;1726186363;13/09/24;00:12:43;1.023;0.011;0.145;0.05497787147760391;-0.025656338781118393;0.00855211354792118
01:00:0A:00:00:00:00;1726186364;13/09/24;00:12:44;1.025;0.012;0.136;0.045204028487205505;-0.004886921960860491;0.010995574295520782
01:00:0A:00:00:00:00;1726186365;13/09/24;00:12:45;1.016;0.006;0.142;0.04764748737215996;0.01710422709584236;0.004886921960860491
01:00:0A:00:00:00:00;1726186366;13/09/24;00:12:46;1.009;0.012;0.135;0.05253440886735916;0.006108652334660292;-0.0036651913542300463
01:00:0A:00:00:00:00;1726186367;13/09/24;00:12:47;1.001;0.009;0.12;0.045204028487205505;-0.0073303827084600925;0.009773843921720982
01:00:0A:00:00:00:00;1726186368;13/09/24;00:12:48;0.999;0.007;0.126;0.045204028487205505;-0.013439035043120384;0.009773843921720982
01:00:0A:00:00:00:00;1726186369;13/09/24;00:12:49;1.006;0.009;0.133;0.051312677562236786;-0.04153883829712868;0.0036651913542300463
01:00:0A:00:00:00:00;1726186370;13/09/24;00:12:50;1.013;0.01;0.129;0.042760565876960754;-0.030543262138962746;0.012217304669320583
01:00:0A:00:00:00:00;1726186371;13/09/24;00:12:51;1.016;0.006;0.139;0.042760565876960754;-0.004886921960860491;0.0012217304902151227
01:00:0A:00:00:00:00;1726186372;13/09/24;00:12:52;1.014;0.009;0.14;0.045204028487205505;-0.009773843921720982;0.0
01:00:0A:00:00:00:00;1726186373;13/09/24;00:12:53;1.014;0.008;0.129;0.039095375686883926;-0.004886921960860491;0.006108652334660292
01:00:0A:00:00:00:00;1726186374;13/09/24;00:12:54;1.01;0.003;0.131;0.03787364438176155;0.010995574295520782;0.004886921960860491
01:00:0A:00:00:00:00;1726186375;13/09/24;00:12:55;1.009;0.008;0.133;0.04153883829712868;-0.012217304669320583;0.006108652334660292
01:00:0A:00:00:00:00;1726186376;13/09/24;00:12:56;1.008;0.007;0.121;0.0354301817715168;-0.019547687843441963;0.01710422709584236
01:00:0A:00:00:00:00;1726186377;13/09/24;00:12:57;1.005;0.006;0.13;0.039095375686883926;-0.009773843921720982;0.00855211354792118
01:00:0A:00:00:00:00;1726186378;13/09/24;00:12:58;1.007;0.012;0.135;0.04398229718208313;-0.02932153083384037;0.0036651913542300463
01:00:0A:00:00:00:00;1726186379;13/09/24;00:12:59;1.009;0.011;0.123;0.040317103266716;-0.028099799528717995;0.010995574295520782
01:00:0A:00:00:00:00;1726186380;13/09/24;00:13:00;1.014;0.005;0.139;0.04398229718208313;-0.010995574295520782;0.0
01:00:0A:00:00:00:00;1726186381;13/09/24;00:13:01;1.016;0.009;0.146;0.045204028487205505;-0.010995574295520782;0.0036651913542300463
01:00:0A:00:00:00:00;1726186382;13/09/24;00:13:02;1.019;0.006;0.131;0.039095375686883926;-0.0024434609804302454;0.009773843921720982
01:00:0A:00:00:00:00;1726186383;13/09/24;00:13:03;1.015;0.005;0.131;0.040317103266716;0.021991148591041565;0.006108652334660292
01:00:0A:00:00:00:00;1726186384;13/09/24;00:13:04;1.01;0.012;0.136;0.042760565876960754;0.0;0.0036651913542300463
01:00:0A:00:00:00:00;1726186385;13/09/24;00:13:05;1.003;0.007;0.122;0.040317103266716;-0.012217304669320583;0.0073303827084600925
01:00:0A:00:00:00:00;1726186386;13/09/24;00:13:06;1.0;0.006;0.125;0.042760565876960754;0.0036651913542300463;-0.0036651913542300463
01:00:0A:00:00:00:00;1726186387;13/09/24;00:13:07;1.002;0.008;0.137;0.040317103266716;-0.02932153083384037;0.010995574295520782
01:00:0A:00:00:00:00;1726186388;13/09/24;00:13:08;1.011;0.002;0.124;0.036651913076639175;-0.03298672288656235;0.02076941914856434
01:00:0A:00:00:00:00;1726186389;13/09/24;00:13:09;1.015;0.005;0.133;0.039095375686883926;-0.006108652334660292;0.013439035043120384
01:00:0A:00:00:00:00;1726186390;13/09/24;00:13:10;1.018;0.016;0.142;0.039095375686883926;-0.01710422709584236;0.013439035043120384
01:00:0A:00:00:00:00;1726186391;13/09/24;00:13:11;1.02;0.009;0.127;0.040317103266716;-0.019547687843441963;0.009773843921720982
01:00:0A:00:00:00:00;1726186392;13/09/24;00:13:12;1.015;0.01;0.134;0.045204028487205505;0.012217304669320583;-0.00855211354792118
01:00:0A:00:00:00:00;1726186393;13/09/24;00:13:13;1.009;0.01;0.143;0.04398229718208313;-0.004886921960860491;0.0
01:00:0A:00:00:00:00;1726186394;13/09/24;00:13:14;1.004;0.001;0.127;0.04153883829712868;-0.009773843921720982;0.010995574295520782
01:00:0A:00:00:00:00;1726186395;13/09/24;00:13:15;1.004;0.004;0.132;0.045204028487205505;0.015882495790719986;-0.0036651913542300463
01:00:0A:00:00:00:00;1726186396;13/09/24;00:13:16;1.004;0.01;0.134;0.039095375686883926;-0.015882495790719986;0.018325956538319588
01:00:0A:00:00:00:00;1726186397;13/09/24;00:13:17;1.01;0.004;0.122;0.040317103266716;-0.03176499158143997;0.015882495790719986
01:00:0A:00:00:00:00;1726186398;13/09/24;00:13:18;1.012;0.008;0.127;0.04398229718208313;-0.00855211354792118;0.0012217304902151227
01:00:0A:00:00:00:00;1726186399;13/09/24;00:13:19;1.014;0.014;0.14;0.03787364438176155;-0.02076941914856434;0.012217304669320583
01:00:0A:00:00:00:00;1726186400;13/09/24;00:13:20;1.015;0.003;0.126;0.03787364438176155;-0.019547687843441963;0.013439035043120384
01:00:0A:00:00:00:00;1726186401;13/09/24;00:13:21;1.008;0.011;0.13;0.042760565876960754;0.0073303827084600925;-0.006108652334660292
01:00:0A:00:00:00:00;1726186402;13/09/24;00:13:22;1.007;0.014;0.138;0.03176499158143997;-0.01710422709584236;0.013439035043120384
01:00:0A:00:00:00:00;1726186403;13/09/24;00:13:23;1.01;0.004;0.124;0.03420845419168472;-0.02076941914856434;0.004886921960860491
01:00:0A:00:00:00:00;1726186404;13/09/24;00:13:24;1.01;0.01;0.132;0.040317103266716;0.004886921960860491;-0.01710422709584236
01:00:0A:00:00:00:00;1726186405;13/09/24;00:13:25;1.011;0.01;0.139;0.028099799528717995;-0.01710422709584236;0.012217304669320583
01:00:0A:00:00:00:00;1726186406;13/09/24;00:13:26;1.013;0.0;0.125;0.02932153083384037;-0.01710422709584236;0.013439035043120384
01:00:0A:00:00:00:00;1726186407;13/09/24;00:13:27;1.014;0.009;0.131;0.0354301817715168;0.009773843921720982;-0.0036651913542300463
01:00:0A:00:00:00:00;1726186408;13/09/24;00:13:28;1.01;0.014;0.137;0.02321287989616394;-0.015882495790719986;0.01710422709584236
01:00:0A:00:00:00:00;1726186409;13/09/24;00:13:29;1.009;0.001;0.122;0.028099799528717995;-0.01710422709584236;0.010995574295520782
01:00:0A:00:00:00:00;1726186410;13/09/24;00:13:30;1.005;0.013;0.129;0.0354301817715168;0.0036651913542300463;-0.012217304669320583
01:00:0A:00:00:00:00;1726186411;13/09/24;00:13:31;1.004;0.015;0.136;0.02076941914856434;-0.021991148591041565;0.014660765416920185
01:00:0A:00:00:00:00;1726186412;13/09/24;00:13:32;1.009;0.0;0.126;0.028099799528717995;-0.025656338781118393;0.0024434609804302454
01:00:0A:00:00:00:00;1726186413;13/09/24;00:13:33;1.01;0.011;0.132;0.03176499158143997;-0.004886921960860491;-0.00855211354792118
01:00:0A:00:00:00:00;1726186414;13/09/24;00:13:34;1.016;0.013;0.143;0.018325956538319588;-0.01710422709584236;0.018325956538319588
01:00:0A:00:00:00:00;1726186415;13/09/24;00:13:35;1.017;0.0;0.131;0.025656338781118393;-0.019547687843441963;0.010995574295520782
01:00:0A:00:00:00:00;1726186416;13/09/24;00:13:36;1.014;0.012;0.132;0.03420845419168472;0.009773843921720982;-0.009773843921720982
01:00:0A:00:00:00:00;1726186417;13/09/24;00:13:37;1.006;0.014;0.138;0.02076941914856434;-0.004886921960860491;0.014660765416920185
01:00:0A:00:00:00:00;1726186418;13/09/24;00:13:38;1.006;0.001;0.127;0.02932153083384037;-0.02076941914856434;0.0073303827084600925
01:00:0A:00:00:00:00;1726186419;13/09/24;00:13:39;1.006;0.01;0.127;0.03787364438176155;-0.0012217304902151227;-0.010995574295520782
01:00:0A:00:00:00:00;1726186420;13/09/24;00:13:40;1.006;0.011;0.138;0.021991148591041565;-0.012217304669320583;0.018325956538319588
01:00:0A:00:00:00:00;1726186421;13/09/24;00:13:41;1.009;-0.002;0.126;0.030543262138962746;-0.025656338781118393;0.009773843921720982
01:00:0A:00:00:00:00;1726186422;13/09/24;00:13:42;1.008;0.008;0.127;0.036651913076639175;-0.0024434609804302454;-0.004886921960860491
01:00:0A:00:00:00:00;1726186423;13/09/24;00:13:43;1.012;0.014;0.135;0.021991148591041565;-0.015882495790719986;0.019547687843441963
01:00:0A:00:00:00:00;1726186424;13/09/24;00:13:44;1.013;0.0;0.129;0.030543262138962746;-0.02321287989616394;0.012217304669320583
01:00:0A:00:00:00:00;1726186425;13/09/24;00:13:45;1.01;0.013;0.13;0.039095375686883926;-0.006108652334660292;-0.009773843921720982
01:00:0A:00:00:00:00;1726186426;13/09/24;00:13:46;1.011;0.015;0.139;0.02076941914856434;-0.010995574295520782;0.019547687843441963
01:00:0A:00:00:00:00;1726186427;13/09/24;00:13:47;1.011;0.0;0.129;0.030543262138962746;-0.015882495790719986;0.0073303827084600925
01:00:0A:00:00:00:00;1726186428;13/09/24;00:13:48;1.009;0.011;0.129;0.039095375686883926;0.0036651913542300463;-0.01710422709584236
01:00:0A:00:00:00:00;1726186429;13/09/24;00:13:49;1.009;0.011;0.135;0.019547687843441963;-0.00855211354792118;0.015882495790719986
01:00:0A:00:00:00:00;1726186430;13/09/24;00:13:50;1.009;-0.001;0.128;0.02932153083384037;-0.019547687843441963;0.0073303827084600925
01:00:0A:00:00:00:00;1726186431;13/09/24;00:13:51;1.008;0.01;0.128;0.0354301817715168;-0.0036651913542300463;-0.006108652334660292
01:00:0A:00:00:00:00;1726186432;13/09/24;00:13:52;1.01;0.012;0.135;0.015882495790719986;-0.014660765416920185;0.024434609338641167
01:00:0A:00:00:00:00;1726186433;13/09/24;00:13:53;1.014;0.0;0.128;0.024434609338641167;-0.019547687843441963;0.013439035043120384
01:00:0A:00:00:00:00;1726186434;13/09/24;00:13:54;1.015;0.014;0.129;0.03420845419168472;-0.0073303827084600925;-0.006108652334660292
01:00:0A:00:00:00:00;1726186435;13/09/24;00:13:55;1.012;0.015;0.135;0.01710422709584236;-0.009773843921720982;0.014660765416920185
01:00:0A:00:00:00:00;1726186436;13/09/24;00:13:56;1.009;0.0;0.13;0.024434609338641167;-0.013439035043120384;0.006108652334660292
01:00:0A:00:00:00:00;1726186437;13/09/24;00:13:57;1.003;0.01;0.13;0.03420845419168472;-0.0024434609804302454;-0.014660765416920185
01:00:0A:00:00:00:00;1726186438;13/09/24;00:13:58;1.005;0.012;0.134;0.012217304669320583;-0.013439035043120384;0.021991148591041565
01:00:0A:00:00:00:00;1726186439;13/09/24;00:13:59;1.011;0.0;0.131;0.02321287989616394;-0.018325956538319588;0.006108652334660292
01:00:0A:00:00:00:00;1726186440;13/09/24;00:14:00;1.015;0.011;0.129;0.030543262138962746;-0.009773843921720982;-0.006108652334660292
01:00:0A:00:00:00:00;1726186441;13/09/24;00:14:01;1.014;0.015;0.136;0.012217304669320583;-0.013439035043120384;0.019547687843441963
01:00:0A:00:00:00:00;1726186442;13/09/24;00:14:02;1.014;0.0;0.134;0.02321287989616394;-0.012217304669320583;0.004886921960860491
01:00:0A:00:00:00:00;1726186443;13/09/24;00:14:03;1.011;0.012;0.134;0.03176499158143997;0.0036651913542300463;-0.012217304669320583
01:00:0A:00:00:00:00;1726186444;13/09/24;00:14:04;1.006;0.013;0.133;0.012217304669320583;0.004886921960860491;0.015882495790719986
01:00:0A:00:00:00:00;1726186445;13/09/24;00:14:05;1.007;0.0;0.128;0.021991148591041565;-0.00855211354792118;0.0073303827084600925
01:00:0A:00:00:00:00;1726186446;13/09/24;00:14:06;1.005;0.011;0.124;0.03176499158143997;-0.014660765416920185;-0.010995574295520782
01:00:0A:00:00:00:00;1726186447;13/09/24;00:14:07;1.006;0.011;0.128;0.012217304669320583;-0.021991148591041565;0.021991148591041565
01:00:0A:00:00:00:00;1726186448;13/09/24;00:14:08;1.009;0.001;0.133;0.021991148591041565;-0.028099799528717995;0.0073303827084600925
01:00:0A:00:00:00:00;1726186449;13/09/24;00:14:09;1.012;0.013;0.135;0.02932153083384037;-0.019547687843441963;-0.010995574295520782
01:00:0A:00:00:00:00;1726186450;13/09/24;00:14:10;1.016;0.013;0.14;0.012217304669320583;-0.0024434609804302454;0.010995574295520782
01:00:0A:00:00:00:00;1726186451;13/09/24;00:14:11;1.017;-0.001;0.133;0.018325956538319588;0.0012217304902151227;0.0036651913542300463
01:00:0A:00:00:00:00;1726186452;13/09/24;00:14:12;1.015;0.009;0.13;0.025656338781118393;0.0036651913542300463;-0.009773843921720982
01:00:0A:00:00:00:00;1726186453;13/09/24;00:14:13;1.006;0.009;0.128;0.00855211354792118;-0.006108652334660292;0.01710422709584236
01:00:0A:00:00:00:00;1726186454;13/09/24;00:14:14;1.003;0.0;0.129;0.01710422709584236;-0.01710422709584236;0.00855211354792118
01:00:0A:00:00:00:00;1726186455;13/09/24;00:14:15;1.003;0.01;0.129;0.02321287989616394;-0.015882495790719986;-0.0012217304902151227
01:00:0A:00:00:00:00;1726186456;13/09/24;00:14:16;1.006;0.011;0.133;0.00855211354792118;-0.01710422709584236;0.018325956538319588
01:00:0A:00:00:00:00;1726186452;13/09/24;00:14:12;1.011;0.002;0.131;0.01710422709584236;-0.01710422709584236;0.0024434609804302454
01:00:0A:00:00:00:00;1726186453;13/09/24;00:14:13;1.014;0.009;0.129;0.02321287989616394;-0.013439035043120384;-0.012217304669320583
01:00:0A:00:00:00:00;1726186454;13/09/24;00:14:14;1.014;0.009;0.134;0.00855211354792118;-0.014660765416920185;0.009773843921720982
01:00:0A:00:00:00:00;1726186455;13/09/24;00:14:15;1.013;0.001;0.134;0.013439035043120384;-0.012217304669320583;0.006108652334660292
01:00:0A:00:00:00:00;1726186456;13/09/24;00:14:16;1.012;0.01;0.132;0.018325956538319588;-0.0024434609804302454;-0.006108652334660292
01:00:0A:00:00:00:00;1726186457;13/09/24;00:14:17;1.009;0.01;0.132;0.006108652334660292;-0.0012217304902151227;0.012217304669320583
01:00:0A:00:00:00:00;1726186458;13/09/24;00:14:18;1.008;0.002;0.129;0.013439035043120384;-0.0036651913542300463;0.0036651913542300463
01:00:0A:00:00:00:00;1726186459;13/09/24;00:14:19;1.007;0.008;0.125;0.01710422709584236;-0.009773843921720982;-0.0012217304902151227
01:00:0A:00:00:00:00;1726186460;13/09/24;00:14:20;1.009;0.008;0.128;0.0073303827084600925;-0.01710422709584236;0.012217304669320583
01:00:0A:00:00:00:00;1726186461;13/09/24;00:14:21;1.011;0.002;0.13;0.013439035043120384;-0.02321287989616394;0.0036651913542300463
01:00:0A:00:00:00:00;1726186462;13/09/24;00:14:22;1.012;0.01;0.132;0.015882495790719986;-0.015882495790719986;-0.0024434609804302454
01:00:0A:00:00:00:00;1726186463;13/09/24;00:14:23;1.016;0.008;0.135;0.0073303827084600925;-0.0073303827084600925;0.009773843921720982
01:00:0A:00:00:00:00;1726186464;13/09/24;00:14:24;1.012;0.003;0.134;0.010995574295520782;-0.004886921960860491;0.0036651913542300463
01:00:0A:00:00:00:00;1726186465;13/09/24;00:14:25;1.009;0.008;0.13;0.013439035043120384;0.0;-0.004886921960860491
01:00:0A:00:00:00:00;1726186466;13/09/24;00:14:26;1.006;0.008;0.131;0.0036651913542300463;-0.009773843921720982;0.013439035043120384
01:00:0A:00:00:00:00;1726186467;13/09/24;00:14:27;1.008;0.004;0.13;0.00855211354792118;-0.014660765416920185;0.004886921960860491
01:00:0A:00:00:00:00;1726186468;13/09/24;00:14:28;1.012;0.011;0.131;0.0073303827084600925;-0.014660765416920185;0.0
01:00:0A:00:00:00:00;1726186469;13/09/24;00:14:29;1.014;0.01;0.135;-0.0024434609804302454;-0.012217304669320583;0.00855211354792118
01:00:0A:00:00:00:00;1726186470;13/09/24;00:14:30;1.015;0.016;0.136;-0.1258382350206375;-0.006108652334660292;-0.059864792972803116
01:00:0A:00:00:00:00;1726186471;13/09/24;00:14:31;1.011;0.024;0.14;-0.17837265133857727;-0.018325956538319588;0.02076941914856434
01:00:0A:00:00:00:00;1726186472;13/09/24;00:14:32;1.01;-0.014;0.122;-0.1514945775270462;-0.018325956538319588;0.0
01:00:0A:00:00:00:00;1726186473;13/09/24;00:14:33;1.005;0.011;0.132;-0.11484266817569733;0.009773843921720982;-0.051312677562236786
01:00:0A:00:00:00:00;1726186474;13/09/24;00:14:34;1.004;0.016;0.14;-0.14416420459747314;-0.039095375686883926;0.02076941914856434
01:00:0A:00:00:00:00;1726186475;13/09/24;00:14:35;1.012;-0.005;0.12;-0.1258382350206375;-0.03176499158143997;-0.0036651913542300463
01:00:0A:00:00:00:00;1726186476;13/09/24;00:14:36;1.011;0.014;0.136;-0.10995574295520782;0.009773843921720982;-0.02687807008624077
01:00:0A:00:00:00:00;1726186477;13/09/24;00:14:37;1.012;0.012;0.146;-0.11850785464048386;-0.03176499158143997;0.0024434609804302454
01:00:0A:00:00:00:00;1726186478;13/09/24;00:14:38;1.013;0.0;0.117;-0.10751228034496307;-0.02076941914856434;-0.010995574295520782
01:00:0A:00:00:00:00;1726186479;13/09/24;00:14:39;1.011;0.01;0.135;-0.10384709388017654;0.014660765416920185;-0.01710422709584236
01:00:0A:00:00:00:00;1726186480;13/09/24;00:14:40;1.009;0.005;0.141;-0.1014036238193512;-0.036651913076639175;0.0012217304902151227
01:00:0A:00:00:00:00;1726186481;13/09/24;00:14:41;1.012;0.004;0.119;-0.09285151958465576;-0.025656338781118393;-0.009773843921720982
01:00:0A:00:00:00:00;1726186482;13/09/24;00:14:42;1.011;0.01;0.135;-0.09773843735456467;0.00855211354792118;-0.0036651913542300463
01:00:0A:00:00:00:00;1726186483;13/09/24;00:14:43;1.011;0.007;0.14;-0.08429940044879913;-0.03420845419168472;-0.004886921960860491
01:00:0A:00:00:00:00;1726186484;13/09/24;00:14:44;1.01;0.008;0.122;-0.07941248267889023;-0.015882495790719986;-0.014660765416920185
01:00:0A:00:00:00:00;1726186485;13/09/24;00:14:45;1.007;0.008;0.136;-0.08552113175392151;0.00855211354792118;-0.006108652334660292
01:00:0A:00:00:00:00;1726186486;13/09/24;00:14:46;1.008;0.0;0.136;-0.0708603635430336;-0.028099799528717995;-0.009773843921720982
01:00:0A:00:00:00:00;1726186487;13/09/24;00:14:47;1.008;0.005;0.122;-0.0708603635430336;-0.01710422709584236;-0.006108652334660292
01:00:0A:00:00:00:00;1726186488;13/09/24;00:14:48;1.011;0.003;0.135;-0.0757472887635231;-0.0036651913542300463;0.00855211354792118
01:00:0A:00:00:00:00;1726186489;13/09/24;00:14:49;1.011;0.006;0.133;-0.06230825558304787;-0.025656338781118393;-0.0012217304902151227
01:00:0A:00:00:00:00;1726186490;13/09/24;00:14:50;1.013;0.013;0.125;-0.059864792972803116;-0.021991148591041565;-0.00855211354792118
01:00:0A:00:00:00:00;1726186491;13/09/24;00:14:51;1.011;0.007;0.135;-0.06352998316287994;-0.006108652334660292;-0.006108652334660292
01:00:0A:00:00:00:00;1726186492;13/09/24;00:14:52;1.011;0.004;0.134;-0.051312677562236786;-0.018325956538319588;-0.014660765416920185
01:00:0A:00:00:00:00;1726186493;13/09/24;00:14:53;1.011;0.006;0.129;-0.05497787147760391;-0.010995574295520782;-0.004886921960860491
01:00:0A:00:00:00:00;1726186494;13/09/24;00:14:54;1.011;0.004;0.132;-0.05742133408784866;-0.0073303827084600925;0.0036651913542300463
01:00:0A:00:00:00:00;1726186495;13/09/24;00:14:55;1.009;0.004;0.133;-0.05009094998240471;-0.015882495790719986;-0.0024434609804302454
01:00:0A:00:00:00:00;1726186496;13/09/24;00:14:56;1.009;0.012;0.13;-0.05009094998240471;-0.012217304669320583;-0.0012217304902151227
01:00:0A:00:00:00:00;1726186497;13/09/24;00:14:57;1.011;0.008;0.132;-0.04886921867728233;-0.012217304669320583;-0.0024434609804302454
01:00:0A:00:00:00:00;1726186498;13/09/24;00:14:58;1.011;0.007;0.131;-0.042760565876960754;-0.012217304669320583;-0.00855211354792118
01:00:0A:00:00:00:00;1726186499;13/09/24;00:14:59;1.011;0.007;0.13;-0.042760565876960754;-0.014660765416920185;-0.004886921960860491
01:00:0A:00:00:00:00;1726186500;13/09/24;00:15:00;1.01;0.003;0.13;-0.04153883829712868;-0.01710422709584236;0.0012217304902151227
01:00:0A:00:00:00:00;1726186501;13/09/24;00:15:01;1.009;0.005;0.13;-0.039095375686883926;-0.014660765416920185;0.0
01:00:0A:00:00:00:00;1726186502;13/09/24;00:15:02;1.01;0.008;0.134;-0.03787364438176155;-0.018325956538319588;-0.0012217304902151227
01:00:0A:00:00:00:00;1726186503;13/09/24;00:15:03;1.013;0.008;0.132;-0.0354301817715168;-0.01710422709584236;-0.0024434609804302454
01:00:0A:00:00:00:00;1726186504;13/09/24;00:15:04;1.016;0.008;0.132;-0.036651913076639175;-0.006108652334660292;-0.0024434609804302454
01:00:0A:00:00:00:00;1726186505;13/09/24;00:15:05;1.017;0.007;0.136;-0.0354301817715168;-0.0036651913542300463;-0.0024434609804302454
01:00:0A:00:00:00:00;1726186506;13/09/24;00:15:06;1.012;0.009;0.128;-0.03176499158143997;-0.00855211354792118;-0.006108652334660292
01:00:0A:00:00:00:00;1726186507;13/09/24;00:15:07;1.006;0.007;0.131;-0.0354301817715168;-0.0073303827084600925;0.0
01:00:0A:00:00:00:00;1726186508;13/09/24;00:15:08;1.002;0.006;0.132;-0.03298672288656235;-0.014660765416920185;0.0012217304902151227
01:00:0A:00:00:00:00;1726186509;13/09/24;00:15:09;1.007;0.011;0.13;-0.02932153083384037;-0.025656338781118393;-0.0036651913542300463
01:00:0A:00:00:00:00;1726186510;13/09/24;00:15:10;1.012;0.01;0.131;-0.0354301817715168;-0.01710422709584236;0.004886921960860491
01:00:0A:00:00:00:00;1726186511;13/09/24;00:15:11;1.016;0.005;0.138;-0.028099799528717995;-0.013439035043120384;-0.004886921960860491
01:00:0A:00:00:00:00;1726186512;13/09/24;00:15:12;1.018;0.011;0.133;-0.024434609338641167;-0.013439035043120384;-0.0073303827084600925
01:00:0A:00:00:00:00;1726186513;13/09/24;00:15:13;1.013;0.009;0.132;-0.03176499158143997;-0.0012217304902151227;0.0012217304902151227
01:00:0A:00:00:00:00;1726186514;13/09/24;00:15:14;1.01;0.003;0.135;-0.025656338781118393;-0.0024434609804302454;-0.0024434609804302454
01:00:0A:00:00:00:00;1726186515;13/09/24;00:15:15;1.006;0.01;0.128;-0.021991148591041565;-0.009773843921720982;-0.006108652334660292
01:00:0A:00:00:00:00;1726186516;13/09/24;00:15:16;1.006;0.008;0.128;-0.03176499158143997;-0.009773843921720982;0.0073303827084600925
01:00:0A:00:00:00:00;1726186517;13/09/24;00:15:17;1.006;0.003;0.132;-0.024434609338641167;-0.014660765416920185;0.0
01:00:0A:00:00:00:00;1726186518;13/09/24;00:15:18;1.01;0.012;0.129;-0.018325956538319588;-0.021991148591041565;-0.00855211354792118
01:00:0A:00:00:00:00;1726186519;13/09/24;00:15:19;1.009;0.01;0.129;-0.02932153083384037;-0.015882495790719986;0.00855211354792118
01:00:0A:00:00:00:00;1726186520;13/09/24;00:15:20;1.011;0.003;0.134;-0.02076941914856434;-0.015882495790719986;-0.0036651913542300463
01:00:0A:00:00:00:00;1726186521;13/09/24;00:15:21;1.015;0.01;0.132;-0.015882495790719986;-0.015882495790719986;-0.009773843921720982
01:00:0A:00:00:00:00;1726186522;13/09/24;00:15:22;1.014;0.009;0.133;-0.028099799528717995;-0.006108652334660292;0.00855211354792118
01:00:0A:00:00:00:00;1726186523;13/09/24;00:15:23;1.013;0.0;0.133;-0.01710422709584236;-0.006108652334660292;-0.0036651913542300463
01:00:0A:00:00:00:00;1726186524;13/09/24;00:15:24;1.008;0.01;0.131;-0.013439035043120384;-0.009773843921720982;-0.0073303827084600925
01:00:0A:00:00:00:00;1726186525;13/09/24;00:15:25;1.009;0.009;0.129;-0.02687807008624077;-0.00855211354792118;0.012217304669320583
01:00:0A:00:00:00:00;1726186526;13/09/24;00:15:26;1.009;0.002;0.131;-0.015882495790719986;-0.012217304669320583;-0.0024434609804302454
01:00:0A:00:00:00:00;1726186527;13/09/24;00:15:27;1.009;0.013;0.13;-0.010995574295520782;-0.013439035043120384;-0.00855211354792118
01:00:0A:00:00:00:00;1726186528;13/09/24;00:15:28;1.01;0.009;0.129;-0.02321287989616394;-0.014660765416920185;0.010995574295520782
01:00:0A:00:00:00:00;1726186529;13/09/24;00:15:29;1.012;0.0;0.131;-0.013439035043120384;-0.015882495790719986;-0.0036651913542300463
01:00:0A:00:00:00:00;1726186530;13/09/24;00:15:30;1.01;0.011;0.131;-0.009773843921720982;-0.013439035043120384;-0.009773843921720982
01:00:0A:00:00:00:00;1726186531;13/09/24;00:15:31;1.011;0.007;0.132;-0.024434609338641167;-0.013439035043120384;0.014660765416920185
01:00:0A:00:00:00:00;1726186532;13/09/24;00:15:32;1.011;0.001;0.132;-0.013439035043120384;-0.012217304669320583;-0.0024434609804302454
01:00:0A:00:00:00:00;1726186533;13/09/24;00:15:33;1.01;0.012;0.132;-0.010995574295520782;-0.006108652334660292;-0.0073303827084600925
01:00:0A:00:00:00:00;1726186534;13/09/24;00:15:34;1.012;0.008;0.132;-0.025656338781118393;-0.010995574295520782;0.014660765416920185
01:00:0A:00:00:00:00;1726186535;13/09/24;00:15:35;1.01;0.003;0.13;-0.014660765416920185;-0.009773843921720982;-0.004886921960860491
01:00:0A:00:00:00:00;1726186536;13/09/24;00:15:36;1.009;0.013;0.131;-0.012217304669320583;-0.00855211354792118;-0.012217304669320583
01:00:0A:00:00:00:00;1726186537;13/09/24;00:15:37;1.008;0.007;0.131;-0.025656338781118393;-0.014660765416920185;0.009773843921720982
01:00:0A:00:00:00:00;1726186538;13/09/24;00:15:38;1.01;0.0;0.127;-0.015882495790719986;-0.014660765416920185;-0.0012217304902151227
01:00:0A:00:00:00:00;1726186539;13/09/24;00:15:39;1.009;0.012;0.132;-0.012217304669320583;-0.012217304669320583;-0.0073303827084600925
01:00:0A:00:00:00:00;1726186540;13/09/24;00:15:40;1.009;0.007;0.132;-0.024434609338641167;-0.02076941914856434;0.013439035043120384
01:00:0A:00:00:00:00;1726186541;13/09/24;00:15:41;1.012;0.0;0.129;-0.013439035043120384;-0.01710422709584236;-0.0024434609804302454
01:00:0A:00:00:00:00;1726186542;13/09/24;00:15:42;1.012;0.011;0.133;-0.013439035043120384;-0.006108652334660292;-0.0073303827084600925
01:00:0A:00:00:00:00;1726186543;13/09/24;00:15:43;1.011;0.009;0.133;-0.025656338781118393;-0.013439035043120384;0.012217304669320583
01:00:0A:00:00:00:00;1726186544;13/09/24;00:15:44;1.012;0.002;0.127;-0.01710422709584236;-0.00855211354792118;-0.0024434609804302454
01:00:0A:00:00:00:00;1726186545;13/09/24;00:15:45;1.008;0.013;0.129;-0.01710422709584236;-0.004886921960860491;-0.009773843921720982
01:00:0A:00:00:00:00;1726186546;13/09/24;00:15:46;1.008;0.009;0.13;-0.030543262138962746;-0.019547687843441963;0.010995574295520782
01:00:0A:00:00:00:00;1726186547;13/09/24;00:15:47;1.01;0.001;0.125;-0.021991148591041565;-0.018325956538319588;-0.004886921960860491
01:00:0A:00:00:00:00;1726186548;13/09/24;00:15:48;1.011;0.01;0.132;-0.02321287989616394;-0.010995574295520782;-0.0073303827084600925
