Source;Epoch timestamp (UTC);Date;Time (UTC);Accel X (G);Accel Y (G);Accel Z (G);Gyro X (rad/s);Gyro Y (rad/s);Gyro Z (rad/s)
01:00:0A:00:00:00:00;1725148803;01/09/24;00:00:03;1.016;-0.019;0.069;0.014660765416920185;-0.010995574295520782;0.004886921960860491
01:00:0A:00:00:00:00;1725148804;01/09/24;00:00:04;1.016;-0.017;0.068;0.014660765416920185;-0.00855211354792118;0.004886921960860491
01:00:0A:00:00:00:00;1725148805;01/09/24;00:00:05;1.016;-0.018;0.067;0.014660765416920185;-0.009773843921720982;0.0036651913542300463
01:00:0A:00:00:00:00;1725148806;01/09/24;00:00:06;1.016;-0.018;0.066;0.013439035043120384;-0.009773843921720982;0.0036651913542300463
01:00:0A:00:00:00:00;1725148807;01/09/24;00:00:07;1.016;-0.018;0.067;0.013439035043120384;-0.013439035043120384;0.0036651913542300463
01:00:0A:00:00:00:00;1725148808;01/09/24;00:00:08;1.014;-0.016;0.068;0.013439035043120384;-0.014660765416920185;0.0024434609804302454
01:00:0A:00:00:00:00;1725148809;01/09/24;00:00:09;1.015;-0.018;0.07;0.013439035043120384;-0.012217304669320583;0.0024434609804302454
01:00:0A:00:00:00:00;1725148810;01/09/24;00:00:10;1.015;-0.019;0.069;0.013439035043120384;-0.009773843921720982;0.004886921960860491
01:00:0A:00:00:00:00;1725148811;01/09/24;00:00:11;1.016;-0.019;0.069;0.012217304669320583;-0.00855211354792118;0.006108652334660292
01:00:0A:00:00:00:00;1725148812;01/09/24;00:00:12;1.016;-0.017;0.068;0.012217304669320583;-0.00855211354792118;0.0073303827084600925
01:00:0A:00:00:00:00;1725148813;01/09/24;00:00:13;1.016;-0.017;0.066;0.012217304669320583;-0.012217304669320583;0.004886921960860491
01:00:0A:00:00:00:00;1725148814;01/09/24;00:00:14;1.015;-0.018;0.067;0.012217304669320583;-0.015882495790719986;0.0012217304902151227
01:00:0A:00:00:00:00;1725148815;01/09/24;00:00:15;1.013;-0.018;0.068;0.012217304669320583;-0.015882495790719986;0.0024434609804302454
01:00:0A:00:00:00:00;1725148816;01/09/24;00:00:16;1.013;-0.017;0.07;0.012217304669320583;-0.012217304669320583;0.004886921960860491
01:00:0A:00:00:00:00;1725148817;01/09/24;00:00:17;1.015;-0.017;0.069;0.012217304669320583;-0.00855211354792118;0.0036651913542300463
01:00:0A:00:00:00:00;1725148818;01/09/24;00:00:18;1.016;-0.017;0.068;0.012217304669320583;-0.00855211354792118;0.0036651913542300463
01:00:0A:00:00:00:00;1725148819;01/09/24;00:00:19;1.016;-0.017;0.066;0.010995574295520782;-0.009773843921720982;0.004886921960860491
01:00:0A:00:00:00:00;1725148820;01/09/24;00:00:20;1.015;-0.017;0.066;0.010995574295520782;-0.013439035043120384;0.0024434609804302454
01:00:0A:00:00:00:00;1725148821;01/09/24;00:00:21;1.014;-0.017;0.068;0.010995574295520782;-0.014660765416920185;0.0024434609804302454
01:00:0A:00:00:00:00;1725148822;01/09/24;00:00:22;1.013;-0.018;0.069;0.010995574295520782;-0.013439035043120384;0.0036651913542300463
01:00:0A:00:00:00:00;1725148823;01/09/24;00:00:23;1.015;-0.018;0.07;0.010995574295520782;-0.00855211354792118;0.0036651913542300463
01:00:0A:00:00:00:00;1725148824;01/09/24;00:00:24;1.017;-0.018;0.069;0.010995574295520782;-0.0073303827084600925;0.0036651913542300463
01:00:0A:00:00:00:00;1725148825;01/09/24;00:00:25;1.018;-0.017;0.066;0.010995574295520782;-0.009773843921720982;0.004886921960860491
01:00:0A:00:00:00:00;1725148826;01/09/24;00:00:26;1.017;-0.018;0.067;0.010995574295520782;-0.010995574295520782;0.0036651913542300463
01:00:0A:00:00:00:00;1725148827;01/09/24;00:00:27;1.013;-0.018;0.067;0.010995574295520782;-0.013439035043120384;0.004886921960860491
01:00:0A:00:00:00:00;1725148828;01/09/24;00:00:28;1.012;-0.018;0.07;0.010995574295520782;-0.013439035043120384;0.006108652334660292
01:00:0A:00:00:00:00;1725148829;01/09/24;00:00:29;1.013;-0.017;0.071;0.012217304669320583;-0.00855211354792118;0.0012217304902151227
01:00:0A:00:00:00:00;1725148830;01/09/24;00:00:30;1.015;-0.017;0.068;0.012217304669320583;-0.0073303827084600925;0.0012217304902151227
01:00:0A:00:00:00:00;1725148831;01/09/24;00:00:31;1.018;-0.019;0.067;0.010995574295520782;-0.00855211354792118;0.0036651913542300463
01:00:0A:00:00:00:00;1725148832;01/09/24;00:00:32;1.016;-0.018;0.066;0.012217304669320583;-0.012217304669320583;0.004886921960860491
01:00:0A:00:00:00:00;1725148833;01/09/24;00:00:33;1.015;-0.017;0.068;0.012217304669320583;-0.013439035043120384;0.004886921960860491
01:00:0A:00:00:00:00;1725148834;01/09/24;00:00:34;1.012;-0.017;0.069;0.012217304669320583;-0.012217304669320583;0.004886921960860491
01:00:0A:00:00:00:00;1725148835;01/09/24;00:00:35;1.013;-0.017;0.07;0.012217304669320583;-0.012217304669320583;0.0024434609804302454
01:00:0A:00:00:00:00;1725148836;01/09/24;00:00:36;1.016;-0.018;0.068;0.013439035043120384;-0.009773843921720982;0.0012217304902151227
01:00:0A:00:00:00:00;1725148837;01/09/24;00:00:37;1.019;-0.019;0.068;0.013439035043120384;-0.009773843921720982;0.0024434609804302454
01:00:0A:00:00:00:00;1725148838;01/09/24;00:00:38;1.019;-0.019;0.067;0.013439035043120384;-0.010995574295520782;0.0036651913542300463
01:00:0A:00:00:00:00;1725148839;01/09/24;00:00:39;1.017;-0.018;0.066;0.013439035043120384;-0.012217304669320583;0.006108652334660292
01:00:0A:00:00:00:00;1725148840;01/09/24;00:00:40;1.013;-0.017;0.068;0.013439035043120384;-0.012217304669320583;0.0073303827084600925
01:00:0A:00:00:00:00;1725148841;01/09/24;00:00:41;1.013;-0.017;0.068;0.014660765416920185;-0.010995574295520782;0.0024434609804302454
01:00:0A:00:00:00:00;1725148842;01/09/24;00:00:42;1.014;-0.017;0.068;0.014660765416920185;-0.010995574295520782;0.0012217304902151227
01:00:0A:00:00:00:00;1725148843;01/09/24;00:00:43;1.015;-0.018;0.067;0.014660765416920185;-0.010995574295520782;0.0036651913542300463
01:00:0A:00:00:00:00;1725148844;01/09/24;00:00:44;1.016;-0.018;0.067;0.015882495790719986;-0.012217304669320583;0.0036651913542300463
01:00:0A:00:00:00:00;1725148845;01/09/24;00:00:45;1.016;-0.017;0.067;0.014660765416920185;-0.012217304669320583;0.004886921960860491
01:00:0A:00:00:00:00;1725148846;01/09/24;00:00:46;1.014;-0.017;0.068;0.014660765416920185;-0.012217304669320583;0.004886921960860491
01:00:0A:00:00:00:00;1725148847;01/09/24;00:00:47;1.013;-0.018;0.067;0.015882495790719986;-0.012217304669320583;0.0024434609804302454
01:00:0A:00:00:00:00;1725148848;01/09/24;00:00:48;1.014;-0.016;0.068;0.015882495790719986;-0.012217304669320583;0.0024434609804302454
01:00:0A:00:00:00:00;1725148849;01/09/24;00:00:49;1.016;-0.017;0.067;0.015882495790719986;-0.010995574295520782;0.0024434609804302454
01:00:0A:00:00:00:00;1725148850;01/09/24;00:00:50;1.016;-0.018;0.069;0.01710422709584236;-0.012217304669320583;0.0024434609804302454
01:00:0A:00:00:00:00;1725148851;01/09/24;00:00:51;1.016;-0.018;0.067;0.015882495790719986;-0.012217304669320583;0.0036651913542300463
01:00:0A:00:00:00:00;1725148852;01/09/24;00:00:52;1.016;-0.017;0.067;0.015882495790719986;-0.010995574295520782;0.006108652334660292
01:00:0A:00:00:00:00;1725148853;01/09/24;00:00:53;1.015;-0.019;0.068;0.01710422709584236;-0.010995574295520782;0.0036651913542300463
01:00:0A:00:00:00:00;1725148854;01/09/24;00:00:54;1.016;-0.018;0.069;0.01710422709584236;-0.010995574295520782;0.0036651913542300463
01:00:0A:00:00:00:00;1725148855;01/09/24;00:00:55;1.016;-0.019;0.069;0.01710422709584236;-0.010995574295520782;0.004886921960860491
01:00:0A:00:00:00:00;1725148856;01/09/24;00:00:56;1.016;-0.018;0.067;0.01710422709584236;-0.012217304669320583;0.0024434609804302454
01:00:0A:00:00:00:00;1725148857;01/09/24;00:00:57;1.016;-0.018;0.068;0.018325956538319588;-0.010995574295520782;0.0024434609804302454
01:00:0A:00:00:00:00;1725148858;01/09/24;00:00:58;1.015;-0.018;0.069;0.018325956538319588;-0.009773843921720982;0.004886921960860491
01:00:0A:00:00:00:00;1725148859;01/09/24;00:00:59;1.016;-0.019;0.068;0.018325956538319588;-0.009773843921720982;0.0036651913542300463
01:00:0A:00:00:00:00;1725148860;01/09/24;00:01:00;1.016;-0.017;0.067;0.018325956538319588;-0.010995574295520782;0.004886921960860491
01:00:0A:00:00:00:00;1725148861;01/09/24;00:01:01;1.016;-0.018;0.067;0.018325956538319588;-0.010995574295520782;0.006108652334660292
01:00:0A:00:00:00:00;1725148862;01/09/24;00:01:02;1.015;-0.018;0.068;0.018325956538319588;-0.010995574295520782;0.0036651913542300463
01:00:0A:00:00:00:00;1725148863;01/09/24;00:01:03;1.016;-0.016;0.067;0.019547687843441963;-0.010995574295520782;0.0024434609804302454
01:00:0A:00:00:00:00;1725148864;01/09/24;00:01:04;1.015;-0.018;0.068;0.019547687843441963;-0.009773843921720982;0.0036651913542300463
01:00:0A:00:00:00:00;1725148865;01/09/24;00:01:05;1.016;-0.019;0.067;0.019547687843441963;-0.009773843921720982;0.0036651913542300463
01:00:0A:00:00:00:00;1725148866;01/09/24;00:01:06;1.016;-0.019;0.067;0.019547687843441963;-0.010995574295520782;0.004886921960860491
01:00:0A:00:00:00:00;1725148867;01/09/24;00:01:07;1.016;-0.019;0.067;0.019547687843441963;-0.010995574295520782;0.006108652334660292
01:00:0A:00:00:00:00;1725148868;01/09/24;00:01:08;1.014;-0.017;0.068;0.02076941914856434;-0.012217304669320583;0.0024434609804302454
01:00:0A:00:00:00:00;1725148869;01/09/24;00:01:09;1.015;-0.017;0.068;0.02076941914856434;-0.012217304669320583;0.0024434609804302454
01:00:0A:00:00:00:00;1725148870;01/09/24;00:01:10;1.015;-0.018;0.067;0.019547687843441963;-0.010995574295520782;0.0036651913542300463
01:00:0A:00:00:00:00;1725148871;01/09/24;00:01:11;1.016;-0.019;0.068;0.02076941914856434;-0.010995574295520782;0.0024434609804302454
01:00:0A:00:00:00:00;1725148872;01/09/24;00:01:12;1.017;-0.018;0.068;0.02076941914856434;-0.012217304669320583;0.004886921960860491
01:00:0A:00:00:00:00;1725148873;01/09/24;00:01:13;1.016;-0.018;0.068;0.019547687843441963;-0.010995574295520782;0.0073303827084600925
01:00:0A:00:00:00:00;1725148874;01/09/24;00:01:14;1.014;-0.017;0.067;0.019547687843441963;-0.012217304669320583;0.004886921960860491
01:00:0A:00:00:00:00;1725148875;01/09/24;00:01:15;1.014;-0.016;0.068;0.019547687843441963;-0.010995574295520782;0.0036651913542300463
01:00:0A:00:00:00:00;1725148876;01/09/24;00:01:16;1.015;-0.017;0.067;0.02076941914856434;-0.010995574295520782;0.0024434609804302454
01:00:0A:00:00:00:00;1725148877;01/09/24;00:01:17;1.016;-0.019;0.068;0.019547687843441963;-0.010995574295520782;0.0024434609804302454
01:00:0A:00:00:00:00;1725148878;01/09/24;00:01:18;1.018;-0.017;0.067;0.019547687843441963;-0.010995574295520782;0.004886921960860491
01:00:0A:00:00:00:00;1725148879;01/09/24;00:01:19;1.016;-0.017;0.067;0.019547687843441963;-0.010995574295520782;0.006108652334660292
01:00:0A:00:00:00:00;1725148880;01/09/24;00:01:20;1.015;-0.018;0.068;0.019547687843441963;-0.012217304669320583;0.0036651913542300463
01:00:0A:00:00:00:00;1725148881;01/09/24;00:01:21;1.016;-0.017;0.068;0.019547687843441963;-0.010995574295520782;0.0024434609804302454
01:00:0A:00:00:00:00;1725148882;01/09/24;00:01:22;1.016;-0.018;0.069;0.018325956538319588;-0.009773843921720982;0.0036651913542300463
01:00:0A:00:00:00:00;1725148883;01/09/24;00:01:23;1.017;-0.019;0.068;0.019547687843441963;-0.009773843921720982;0.0012217304902151227
01:00:0A:00:00:00:00;1725148884;01/09/24;00:01:24;1.016;-0.017;0.068;0.018325956538319588;-0.010995574295520782;0.0036651913542300463
01:00:0A:00:00:00:00;1725148885;01/09/24;00:01:25;1.016;-0.019;0.068;0.018325956538319588;-0.010995574295520782;0.006108652334660292
01:00:0A:00:00:00:00;1725148886;01/09/24;00:01:26;1.014;-0.017;0.069;0.018325956538319588;-0.012217304669320583;0.0036651913542300463
01:00:0A:00:00:00:00;1725148887;01/09/24;00:01:27;1.015;-0.016;0.067;0.018325956538319588;-0.010995574295520782;0.0036651913542300463
01:00:0A:00:00:00:00;1725148888;01/09/24;00:01:28;1.016;-0.019;0.068;0.018325956538319588;-0.010995574295520782;0.0024434609804302454
01:00:0A:00:00:00:00;1725148889;01/09/24;00:01:29;1.017;-0.018;0.068;0.018325956538319588;-0.010995574295520782;0.0024434609804302454
01:00:0A:00:00:00:00;1725148890;01/09/24;00:01:30;1.016;-0.017;0.067;0.01710422709584236;-0.010995574295520782;0.004886921960860491
01:00:0A:00:00:00:00;1725148891;01/09/24;00:01:31;1.014;-0.018;0.068;0.01710422709584236;-0.010995574295520782;0.004886921960860491
01:00:0A:00:00:00:00;1725148892;01/09/24;00:01:32;1.015;-0.018;0.068;0.01710422709584236;-0.013439035043120384;0.0024434609804302454
01:00:0A:00:00:00:00;1725148893;01/09/24;00:01:33;1.014;-0.018;0.068;0.01710422709584236;-0.010995574295520782;0.0024434609804302454
01:00:0A:00:00:00:00;1725148894;01/09/24;00:01:34;1.016;-0.019;0.068;0.015882495790719986;-0.009773843921720982;0.0036651913542300463
01:00:0A:00:00:00:00;1725148895;01/09/24;00:01:35;1.015;-0.019;0.068;0.015882495790719986;-0.010995574295520782;0.0012217304902151227
01:00:0A:00:00:00:00;1725148896;01/09/24;00:01:36;1.015;-0.017;0.067;0.015882495790719986;-0.012217304669320583;0.0036651913542300463
01:00:0A:00:00:00:00;1725148897;01/09/24;00:01:37;1.016;-0.018;0.068;0.014660765416920185;-0.010995574295520782;0.006108652334660292
01:00:0A:00:00:00:00;1725148898;01/09/24;00:01:38;1.015;-0.018;0.069;0.014660765416920185;-0.012217304669320583;0.0036651913542300463
01:00:0A:00:00:00:00;1725148899;01/09/24;00:01:39;1.016;-0.016;0.068;0.014660765416920185;-0.009773843921720982;0.0036651913542300463
01:00:0A:00:00:00:00;1725148900;01/09/24;00:01:40;1.016;-0.019;0.069;0.014660765416920185;-0.009773843921720982;0.0036651913542300463
01:00:0A:00:00:00:00;1725148901;01/09/24;00:01:41;1.015;-0.019;0.068;0.013439035043120384;-0.010995574295520782;0.0024434609804302454
01:00:0A:00:00:00:00;1725148902;01/09/24;00:01:42;1.016;-0.018;0.068;0.013439035043120384;-0.010995574295520782;0.004886921960860491
01:00:0A:00:00:00:00;1725148903;01/09/24;00:01:43;1.016;-0.018;0.069;0.013439035043120384;-0.012217304669320583;0.0036651913542300463
01:00:0A:00:00:00:00;1725148904;01/09/24;00:01:44;1.015;-0.019;0.068;0.013439035043120384;-0.012217304669320583;0.0024434609804302454
01:00:0A:00:00:00:00;1725148905;01/09/24;00:01:45;1.015;-0.018;0.069;0.013439035043120384;-0.010995574295520782;0.0036651913542300463
01:00:0A:00:00:00:00;1725148906;01/09/24;00:01:46;1.016;-0.018;0.068;0.013439035043120384;-0.00855211354792118;0.0036651913542300463
01:00:0A:00:00:00:00;1725148907;01/09/24;00:01:47;1.016;-0.019;0.067;0.012217304669320583;-0.012217304669320583;0.0024434609804302454
01:00:0A:00:00:00:00;1725148908;01/09/24;00:01:48;1.016;-0.019;0.067;0.013439035043120384;-0.012217304669320583;0.0024434609804302454
01:00:0A:00:00:00:00;1725148909;01/09/24;00:01:49;1.015;-0.019;0.068;0.012217304669320583;-0.012217304669320583;0.004886921960860491
01:00:0A:00:00:00:00;1725148910;01/09/24;00:01:50;1.014;-0.018;0.07;0.012217304669320583;-0.010995574295520782;0.0036651913542300463
01:00:0A:00:00:00:00;1725148911;01/09/24;00:01:51;1.015;-0.017;0.068;0.012217304669320583;-0.009773843921720982;0.0024434609804302454
01:00:0A:00:00:00:00;1725148912;01/09/24;00:01:52;1.016;-0.018;0.069;0.012217304669320583;-0.009773843921720982;0.0024434609804302454
01:00:0A:00:00:00:00;1725148913;01/09/24;00:01:53;1.016;-0.019;0.067;0.012217304669320583;-0.012217304669320583;0.0024434609804302454
01:00:0A:00:00:00:00;1725148914;01/09/24;00:01:54;1.016;-0.017;0.068;0.010995574295520782;-0.012217304669320583;0.004886921960860491
01:00:0A:00:00:00:00;1725148915;01/09/24;00:01:55;1.015;-0.019;0.069;0.010995574295520782;-0.012217304669320583;0.004886921960860491
01:00:0A:00:00:00:00;1725148916;01/09/24;00:01:56;1.015;-0.018;0.07;0.010995574295520782;-0.012217304669320583;0.0024434609804302454
01:00:0A:00:00:00:00;1725148917;01/09/24;00:01:57;1.016;-0.017;0.068;0.010995574295520782;-0.009773843921720982;0.0024434609804302454
01:00:0A:00:00:00:00;1725148918;01/09/24;00:01:58;1.016;-0.018;0.068;0.010995574295520782;-0.009773843921720982;0.0036651913542300463
01:00:0A:00:00:00:00;1725148919;01/09/24;00:01:59;1.016;-0.019;0.067;0.009773843921720982;-0.012217304669320583;0.0024434609804302454
01:00:0A:00:00:00:00;1725148920;01/09/24;00:02:00;1.016;-0.018;0.067;0.009773843921720982;-0.013439035043120384;0.0036651913542300463
01:00:0A:00:00:00:00;1725148921;01/09/24;00:02:01;1.016;-0.019;0.068;0.009773843921720982;-0.010995574295520782;0.004886921960860491
01:00:0A:00:00:00:00;1725148922;01/09/24;00:02:02;1.016;-0.018;0.069;0.00855211354792118;-0.012217304669320583;0.0036651913542300463
01:00:0A:00:00:00:00;1725148923;01/09/24;00:02:03;1.016;-0.017;0.068;0.009773843921720982;-0.009773843921720982;0.0024434609804302454
01:00:0A:00:00:00:00;1725148924;01/09/24;00:02:04;1.016;-0.018;0.069;0.00855211354792118;-0.009773843921720982;0.0036651913542300463
01:00:0A:00:00:00:00;1725148925;01/09/24;00:02:05;1.016;-0.019;0.068;0.00855211354792118;-0.012217304669320583;0.0024434609804302454
01:00:0A:00:00:00:00;1725148926;01/09/24;00:02:06;1.016;-0.018;0.068;0.00855211354792118;-0.010995574295520782;0.0036651913542300463
01:00:0A:00:00:00:00;1725148927;01/09/24;00:02:07;1.016;-0.017;0.068;0.0073303827084600925;-0.010995574295520782;0.004886921960860491
01:00:0A:00:00:00:00;1725148928;01/09/24;00:02:08;1.016;-0.019;0.069;0.0073303827084600925;-0.012217304669320583;0.0024434609804302454
01:00:0A:00:00:00:00;1725148929;01/09/24;00:02:09;1.016;-0.018;0.068;0.0073303827084600925;-0.009773843921720982;0.0036651913542300463
01:00:0A:00:00:00:00;1725148930;01/09/24;00:02:10;1.014;-0.019;0.068;0.0073303827084600925;-0.00855211354792118;0.004886921960860491
01:00:0A:00:00:00:00;1725148931;01/09/24;00:02:11;1.015;-0.019;0.067;0.0073303827084600925;-0.013439035043120384;0.0024434609804302454
01:00:0A:00:00:00:00;1725148932;01/09/24;00:02:12;1.016;-0.018;0.067;0.0073303827084600925;-0.012217304669320583;0.0036651913542300463
01:00:0A:00:00:00:00;1725148933;01/09/24;00:02:13;1.016;-0.018;0.068;0.006108652334660292;-0.010995574295520782;0.004886921960860491
01:00:0A:00:00:00:00;1725148934;01/09/24;00:02:14;1.016;-0.018;0.069;0.006108652334660292;-0.010995574295520782;0.0024434609804302454
01:00:0A:00:00:00:00;1725148935;01/09/24;00:02:15;1.015;-0.018;0.068;0.006108652334660292;-0.009773843921720982;0.0036651913542300463
01:00:0A:00:00:00:00;1725148936;01/09/24;00:02:16;1.016;-0.018;0.069;0.006108652334660292;-0.009773843921720982;0.0036651913542300463
01:00:0A:00:00:00:00;1725148937;01/09/24;00:02:17;1.016;-0.018;0.068;0.006108652334660292;-0.012217304669320583;0.0024434609804302454
01:00:0A:00:00:00:00;1725148938;01/09/24;00:02:18;1.016;-0.017;0.068;0.006108652334660292;-0.010995574295520782;0.0036651913542300463
01:00:0A:00:00:00:00;1725148939;01/09/24;00:02:19;1.016;-0.019;0.069;0.006108652334660292;-0.010995574295520782;0.0036651913542300463
01:00:0A:00:00:00:00;1725148940;01/09/24;00:02:20;1.016;-0.019;0.068;0.006108652334660292;-0.012217304669320583;0.0024434609804302454
01:00:0A:00:00:00:00;1725148941;01/09/24;00:02:21;1.016;-0.019;0.068;0.004886921960860491;-0.009773843921720982;0.0036651913542300463
01:00:0A:00:00:00:00;1725148942;01/09/24;00:02:22;1.015;-0.018;0.068;0.004886921960860491;-0.010995574295520782;0.004886921960860491
01:00:0A:00:00:00:00;1725148943;01/09/24;00:02:23;1.015;-0.018;0.068;0.004886921960860491;-0.012217304669320583;0.0024434609804302454
01:00:0A:00:00:00:00;1725148944;01/09/24;00:02:24;1.016;-0.018;0.068;0.004886921960860491;-0.012217304669320583;0.0024434609804302454
01:00:0A:00:00:00:00;1725148945;01/09/24;00:02:25;1.016;-0.019;0.069;0.004886921960860491;-0.010995574295520782;0.0036651913542300463
01:00:0A:00:00:00:00;1725148946;01/09/24;00:02:26;1.015;-0.018;0.068;0.004886921960860491;-0.010995574295520782;0.0036651913542300463
01:00:0A:00:00:00:00;1725148947;01/09/24;00:02:27;1.015;-0.018;0.068;0.004886921960860491;-0.009773843921720982;0.0036651913542300463
01:00:0A:00:00:00:00;1725148948;01/09/24;00:02:28;1.015;-0.019;0.068;0.0036651913542300463;-0.010995574295520782;0.0036651913542300463
01:00:0A:00:00:00:00;1725148949;01/09/24;00:02:29;1.016;-0.018;0.068;0.0036651913542300463;-0.012217304669320583;0.0036651913542300463
01:00:0A:00:00:00:00;1725148950;01/09/24;00:02:30;1.016;-0.017;0.068;0.0036651913542300463;-0.010995574295520782;0.0036651913542300463
01:00:0A:00:00:00:00;1725148951;01/09/24;00:02:31;1.016;-0.019;0.069;0.0036651913542300463;-0.009773843921720982;0.0036651913542300463
01:00:0A:00:00:00:00;1725148952;01/09/24;00:02:32;1.015;-0.018;0.069;0.0036651913542300463;-0.010995574295520782;0.0024434609804302454
01:00:0A:00:00:00:00;1725148953;01/09/24;00:02:33;1.015;-0.018;0.068;0.0036651913542300463;-0.010995574295520782;0.0036651913542300463
01:00:0A:00:00:00:00;1725148954;01/09/24;00:02:34;1.014;-0.018;0.069;0.0036651913542300463;-0.009773843921720982;0.004886921960860491
01:00:0A:00:00:00:00;1725148955;01/09/24;00:02:35;1.016;-0.017;0.069;0.0024434609804302454;-0.012217304669320583;0.0024434609804302454
01:00:0A:00:00:00:00;1725148956;01/09/24;00:02:36;1.016;-0.018;0.067;0.0036651913542300463;-0.010995574295520782;0.0024434609804302454
01:00:0A:00:00:00:00;1725148957;01/09/24;00:02:37;1.016;-0.018;0.069;0.0024434609804302454;-0.010995574295520782;0.004886921960860491
01:00:0A:00:00:00:00;1725148958;01/09/24;00:02:38;1.015;-0.019;0.069;0.0024434609804302454;-0.010995574295520782;0.0024434609804302454
01:00:0A:00:00:00:00;1725148959;01/09/24;00:02:39;1.014;-0.017;0.068;0.0024434609804302454;-0.010995574295520782;0.0036651913542300463
01:00:0A:00:00:00:00;1725148960;01/09/24;00:02:40;1.015;-0.018;0.069;0.0024434609804302454;-0.010995574295520782;0.0036651913542300463
01:00:0A:00:00:00:00;1725148961;01/09/24;00:02:41;1.016;-0.018;0.068;0.0024434609804302454;-0.012217304669320583;0.0024434609804302454
01:00:0A:00:00:00:00;1725148962;01/09/24;00:02:42;1.016;-0.017;0.066;0.0024434609804302454;-0.010995574295520782;0.0036651913542300463
01:00:0A:00:00:00:00;1725148963;01/09/24;00:02:43;1.016;-0.018;0.069;0.0024434609804302454;-0.009773843921720982;0.0036651913542300463
01:00:0A:00:00:00:00;1725148964;01/09/24;00:02:44;1.016;-0.019;0.068;0.0024434609804302454;-0.012217304669320583;0.0024434609804302454
01:00:0A:00:00:00:00;1725148965;01/09/24;00:02:45;1.016;-0.016;0.069;0.0024434609804302454;-0.010995574295520782;0.0036651913542300463
01:00:0A:00:00:00:00;1725148966;01/09/24;00:02:46;1.014;-0.018;0.069;0.0024434609804302454;-0.010995574295520782;0.0036651913542300463
01:00:0A:00:00:00:00;1725148967;01/09/24;00:02:47;1.015;-0.018;0.068;0.0024434609804302454;-0.012217304669320583;0.0012217304902151227
01:00:0A:00:00:00:00;1725148968;01/09/24;00:02:48;1.016;-0.017;0.067;0.0024434609804302454;-0.010995574295520782;0.0024434609804302454
01:00:0A:00:00:00:00;1725148969;01/09/24;00:02:49;1.016;-0.018;0.068;0.0024434609804302454;-0.010995574295520782;0.004886921960860491
01:00:0A:00:00:00:00;1725148970;01/09/24;00:02:50;1.016;-0.018;0.068;0.0024434609804302454;-0.012217304669320583;0.0036651913542300463
01:00:0A:00:00:00:00;1725148971;01/09/24;00:02:51;1.015;-0.018;0.067;0.0024434609804302454;-0.010995574295520782;0.0036651913542300463
01:00:0A:00:00:00:00;1725148972;01/09/24;00:02:52;1.014;-0.019;0.07;0.0024434609804302454;-0.010995574295520782;0.0036651913542300463
01:00:0A:00:00:00:00;1725148973;01/09/24;00:02:53;1.016;-0.019;0.069;0.0024434609804302454;-0.012217304669320583;0.0024434609804302454
01:00:0A:00:00:00:00;1725148974;01/09/24;00:02:54;1.016;-0.018;0.068;0.0024434609804302454;-0.009773843921720982;0.0024434609804302454
01:00:0A:00:00:00:00;1725148975;01/09/24;00:02:55;1.016;-0.019;0.069;0.0024434609804302454;-0.010995574295520782;0.0036651913542300463
01:00:0A:00:00:00:00;1725148976;01/09/24;00:02:56;1.016;-0.019;0.068;0.0024434609804302454;-0.012217304669320583;0.0024434609804302454
01:00:0A:00:00:00:00;1725148977;01/09/24;00:02:57;1.015;-0.017;0.068;0.0012217304902151227;-0.010995574295520782;0.0036651913542300463
01:00:0A:00:00:00:00;1725148978;01/09/24;00:02:58;1.016;-0.019;0.068;0.0012217304902151227;-0.009773843921720982;0.0036651913542300463
01:00:0A:00:00:00:00;1725148979;01/09/24;00:02:59;1.015;-0.018;0.069;0.0012217304902151227;-0.012217304669320583;0.0012217304902151227
01:00:0A:00:00:00:00;1725148980;01/09/24;00:03:00;1.015;-0.018;0.067;0.0012217304902151227;-0.009773843921720982;0.0024434609804302454
01:00:0A:00:00:00:00;1725148981;01/09/24;00:03:01;1.016;-0.019;0.068;0.0012217304902151227;-0.010995574295520782;0.0036651913542300463
01:00:0A:00:00:00:00;1725148982;01/09/24;00:03:02;1.016;-0.018;0.068;0.0012217304902151227;-0.012217304669320583;0.0024434609804302454
01:00:0A:00:00:00:00;1725148983;01/09/24;00:03:03;1.016;-0.017;0.068;0.0012217304902151227;-0.012217304669320583;0.0036651913542300463
01:00:0A:00:00:00:00;1725148984;01/09/24;00:03:04;1.014;-0.017;0.069;0.0012217304902151227;-0.010995574295520782;0.0036651913542300463
01:00:0A:00:00:00:00;1725148985;01/09/24;00:03:05;1.015;-0.019;0.068;0.0012217304902151227;-0.012217304669320583;0.0012217304902151227
01:00:0A:00:00:00:00;1725148986;01/09/24;00:03:06;1.016;-0.018;0.068;0.0012217304902151227;-0.010995574295520782;0.0024434609804302454
01:00:0A:00:00:00:00;1725148987;01/09/24;00:03:07;1.016;-0.017;0.068;0.0012217304902151227;-0.010995574295520782;0.0024434609804302454
01:00:0A:00:00:00:00;1725148988;01/09/24;00:03:08;1.016;-0.018;0.067;0.0;-0.012217304669320583;0.0024434609804302454
01:00:0A:00:00:00:00;1725148989;01/09/24;00:03:09;1.016;-0.018;0.068;0.0;-0.010995574295520782;0.0036651913542300463
01:00:0A:00:00:00:00;1725148990;01/09/24;00:03:10;1.015;-0.018;0.069;0.0;-0.010995574295520782;0.0036651913542300463
01:00:0A:00:00:00:00;1725148991;01/09/24;00:03:11;1.016;-0.018;0.068;0.0;-0.012217304669320583;0.0012217304902151227
01:00:0A:00:00:00:00;1725148992;01/09/24;00:03:12;1.015;-0.017;0.068;0.0;-0.010995574295520782;0.0024434609804302454
01:00:0A:00:00:00:00;1725148993;01/09/24;00:03:13;1.014;-0.018;0.069;0.0;-0.010995574295520782;0.0036651913542300463
01:00:0A:00:00:00:00;1725148994;01/09/24;00:03:14;1.016;-0.018;0.069;0.0;-0.012217304669320583;0.0024434609804302454
01:00:0A:00:00:00:00;1725148995;01/09/24;00:03:15;1.016;-0.016;0.068;0.0;-0.009773843921720982;0.0024434609804302454
01:00:0A:00:00:00:00;1725148996;01/09/24;00:03:16;1.016;-0.018;0.069;-0.0012217304902151227;-0.009773843921720982;0.0024434609804302454
01:00:0A:00:00:00:00;1725148997;01/09/24;00:03:17;1.016;-0.017;0.068;-0.0012217304902151227;-0.012217304669320583;0.0024434609804302454
01:00:0A:00:00:00:00;1725148998;01/09/24;00:03:18;1.015;-0.017;0.068;-0.0012217304902151227;-0.010995574295520782;0.0036651913542300463
01:00:0A:00:00:00:00;1725148999;01/09/24;00:03:19;1.015;-0.018;0.069;-0.0012217304902151227;-0.010995574295520782;0.0036651913542300463
01:00:0A:00:00:00:00;1725149000;01/09/24;00:03:20;1.015;-0.017;0.068;-0.0012217304902151227;-0.010995574295520782;0.0024434609804302454
01:00:0A:00:00:00:00;1725149001;01/09/24;00:03:21;1.015;-0.018;0.068;-0.0012217304902151227;-0.009773843921720982;0.0036651913542300463
01:00:0A:00:00:00:00;1725149002;01/09/24;00:03:22;1.015;-0.018;0.069;-0.0012217304902151227;-0.009773843921720982;0.0036651913542300463
01:00:0A:00:00:00:00;1725149003;01/09/24;00:03:23;1.015;-0.018;0.067;-0.0012217304902151227;-0.012217304669320583;0.0012217304902151227
01:00:0A:00:00:00:00;1725149004;01/09/24;00:03:24;1.016;-0.017;0.068;-0.0024434609804302454;-0.012217304669320583;0.0036651913542300463
01:00:0A:00:00:00:00;1725149005;01/09/24;00:03:25;1.016;-0.018;0.068;-0.0024434609804302454;-0.012217304669320583;0.0036651913542300463
01:00:0A:00:00:00:00;1725149006;01/09/24;00:03:26;1.016;-0.018;0.069;-0.0024434609804302454;-0.012217304669320583;0.0024434609804302454
01:00:0A:00:00:00:00;1725149007;01/09/24;00:03:27;1.016;-0.018;0.068;-0.0024434609804302454;-0.009773843921720982;0.0024434609804302454
01:00:0A:00:00:00:00;1725149008;01/09/24;00:03:28;1.015;-0.017;0.068;-0.0024434609804302454;-0.009773843921720982;0.0024434609804302454
01:00:0A:00:00:00:00;1725149009;01/09/24;00:03:29;1.014;-0.018;0.068;-0.0024434609804302454;-0.012217304669320583;0.0024434609804302454
01:00:0A:00:00:00:00;1725149010;01/09/24;00:03:30;1.015;-0.017;0.067;-0.0024434609804302454;-0.012217304669320583;0.0036651913542300463
01:00:0A:00:00:00:00;1725149011;01/09/24;00:03:31;1.016;-0.018;0.068;-0.0036651913542300463;-0.012217304669320583;0.0036651913542300463
01:00:0A:00:00:00:00;1725149012;01/09/24;00:03:32;1.016;-0.018;0.068;-0.0024434609804302454;-0.010995574295520782;0.0024434609804302454
01:00:0A:00:00:00:00;1725149013;01/09/24;00:03:33;1.016;-0.019;0.07;-0.0036651913542300463;-0.009773843921720982;0.0036651913542300463
01:00:0A:00:00:00:00;1725149014;01/09/24;00:03:34;1.015;-0.018;0.068;-0.0036651913542300463;-0.009773843921720982;0.0036651913542300463
01:00:0A:00:00:00:00;1725149015;01/09/24;00:03:35;1.015;-0.018;0.067;-0.0036651913542300463;-0.010995574295520782;0.0024434609804302454
01:00:0A:00:00:00:00;1725149016;01/09/24;00:03:36;1.015;-0.018;0.067;-0.0036651913542300463;-0.012217304669320583;0.0024434609804302454
01:00:0A:00:00:00:00;1725149017;01/09/24;00:03:37;1.016;-0.018;0.068;-0.0036651913542300463;-0.013439035043120384;0.0012217304902151227
01:00:0A:00:00:00:00;1725149018;01/09/24;00:03:38;1.015;-0.019;0.068;-0.004886921960860491;-0.00855211354792118;0.006108652334660292
01:00:0A:00:00:00:00;1725149019;01/09/24;00:03:39;1.012;-0.023;0.066;-0.004886921960860491;-0.00855211354792118;0.004886921960860491
01:00:0A:00:00:00:00;1725149020;01/09/24;00:03:40;1.017;-0.02;0.066;-0.006108652334660292;-0.019547687843441963;0.009773843921720982
01:00:0A:00:00:00:00;1725149021;01/09/24;00:03:41;1.022;-0.02;0.073;-0.004886921960860491;-0.009773843921720982;0.013439035043120384
01:00:0A:00:00:00:00;1725149022;01/09/24;00:03:42;1.02;-0.018;0.076;-0.004886921960860491;-0.0024434609804302454;0.018325956538319588
01:00:0A:00:00:00:00;1725149023;01/09/24;00:03:43;1.007;-0.014;0.064;-0.0012217304902151227;0.006108652334660292;0.010995574295520782
01:00:0A:00:00:00:00;1725149024;01/09/24;00:03:44;0.996;-0.017;0.05;0.00855211354792118;-0.00855211354792118;-0.0024434609804302454
01:00:0A:00:00:00:00;1725149025;01/09/24;00:03:45;1.001;-0.023;0.03;0.02687807008624077;-0.040317103266716;-0.0024434609804302454
01:00:0A:00:00:00:00;1725149026;01/09/24;00:03:46;1.024;-0.011;0.062;0.042760565876960754;0.025656338781118393;-0.0659734457731247
01:00:0A:00:00:00:00;1725149027;01/09/24;00:03:47;1.042;0.022;0.166;-0.04153883829712868;-0.07941248267889023;0.039095375686883926
01:00:0A:00:00:00:00;1725149028;01/09/24;00:03:48;1.049;-0.061;0.04;-0.042760565876960754;-0.039095375686883926;0.03298672288656235
01:00:0A:00:00:00:00;1725149029;01/09/24;00:03:49;1.005;0.021;0.128;-0.019547687843441963;0.1966986060142517;-0.04764748737215996
01:00:0A:00:00:00:00;1725149030;01/09/24;00:03:50;0.98;0.0;0.078;-0.10384709388017654;-0.07208210229873657;0.0659734457731247
01:00:0A:00:00:00:00;1725149031;01/09/24;00:03:51;0.99;-0.019;0.041;-0.10873401165008545;0.039095375686883926;0.045204028487205505
01:00:0A:00:00:00:00;1725149032;01/09/24;00:03:52;1.012;-0.096;0.105;-0.10018189996480942;-0.08307767659425735;-0.08674286305904388
01:00:0A:00:00:00:00;1725149033;01/09/24;00:03:53;1.018;-0.089;0.108;-0.12217304855585098;-0.17959438264369965;-0.0024434609804302454
01:00:0A:00:00:00:00;1725149034;01/09/24;00:03:54;1.014;-0.171;0.051;-0.06719517707824707;0.0073303827084600925;0.009773843921720982
01:00:0A:00:00:00:00;1725149035;01/09/24;00:03:55;1.024;-0.026;0.135;-0.03787364438176155;0.0708603635430336;-0.04398229718208313
01:00:0A:00:00:00:00;1725149036;01/09/24;00:03:56;1.035;0.011;0.074;-0.1062905490398407;0.04398229718208313;0.08674286305904388
01:00:0A:00:00:00:00;1725149037;01/09/24;00:03:57;1.03;0.037;0.094;-0.13805554807186127;0.07208210229873657;-0.014660765416920185
01:00:0A:00:00:00:00;1725149038;01/09/24;00:03:58;0.987;0.005;0.045;-0.15271630883216858;-0.08307767659425735;0.0012217304902151227
01:00:0A:00:00:00:00;1725149039;01/09/24;00:03:59;0.944;0.003;0.042;-0.1368338167667389;0.08674286305904388;-0.030543262138962746
01:00:0A:00:00:00:00;1725149040;01/09/24;00:04:00;0.961;0.033;0.039;-0.18081611394882202;-0.2028072476387024;0.03787364438176155
01:00:0A:00:00:00:00;1725149041;01/09/24;00:04:01;1.037;0.081;-0.04;-0.09773843735456467;0.15027284622192383;0.0024434609804302454
01:00:0A:00:00:00:00;1725149042;01/09/24;00:04:02;1.059;0.014;0.208;-0.19425514340400696;-0.2993239760398865;-0.05253440886735916
01:00:0A:00:00:00:00;1725149043;01/09/24;00:04:03;1.061;-0.083;-0.179;-0.05619959905743599;0.03176499158143997;-0.18936821818351746
01:00:0A:00:00:00:00;1725149044;01/09/24;00:04:04;0.973;0.005;0.46;-0.08552113175392151;0.4447098970413208;0.1270599663257599
01:00:0A:00:00:00:00;1725149045;01/09/24;00:04:05;1.008;-0.07;-0.117;-0.15882496535778046;-0.6499606370925903;0.06963863223791122
01:00:0A:00:00:00:00;1725149046;01/09/24;00:04:06;0.973;0.102;0.112;0.010995574295520782;0.5485569834709167;-0.07819075137376785
01:00:0A:00:00:00:00;1725149047;01/09/24;00:04:07;0.957;0.026;0.151;-0.19914205372333527;-0.4740314185619354;0.15882496535778046
01:00:0A:00:00:00:00;1725149048;01/09/24;00:04:08;1.017;-0.06;-0.104;-0.08429940044879913;0.11972958594560623;-0.14782939851284027
01:00:0A:00:00:00:00;1725149049;01/09/24;00:04:09;1.059;0.041;0.102;-0.1270599663257599;-0.161268413066864;0.16859880089759827
01:00:0A:00:00:00:00;1725149050;01/09/24;00:04:10;1.021;-0.248;-0.122;-0.036651913076639175;-0.10262535512447357;0.1966986060142517
01:00:0A:00:00:00:00;1725149051;01/09/24;00:04:11;0.956;0.309;0.108;0.12217304855585098;0.19914205372333527;-0.455705463886261
01:00:0A:00:00:00:00;1725149052;01/09/24;00:04:12;0.959;-0.072;0.04;-0.06352998316287994;-0.09651670604944229;0.7525859475135803
01:00:0A:00:00:00:00;1725149053;01/09/24;00:04:13;0.923;0.035;0.186;0.11972958594560623;0.3188716471195221;-1.0005972385406494
01:00:0A:00:00:00:00;1725149054;01/09/24;00:04:14;0.907;0.288;0.071;-0.4593706727027893;-1.0067058801651;0.5461135506629944
01:00:0A:00:00:00:00;1725149055;01/09/24;00:04:15;0.985;0.046;-0.244;-0.5546656250953674;0.22968533635139465;0.10751228034496307
01:00:0A:00:00:00:00;1725149056;01/09/24;00:04:16;1.079;-0.092;0.02;-0.5229006409645081;0.2382374405860901;0.38117989897727966
01:00:0A:00:00:00:00;1725149057;01/09/24;00:04:17;1.005;-0.237;0.163;-1.1423180103302002;0.5070181488990784;0.14905111491680145
01:00:0A:00:00:00:00;1725149058;01/09/24;00:04:18;0.936;0.007;0.319;-1.0445796251296997;0.39828410744667053;-0.6084217429161072
01:00:0A:00:00:00:00;1725149059;01/09/24;00:04:19;0.925;0.034;0.086;-1.1166616678237915;-0.4043927788734436;-0.8894197940826416
01:00:0A:00:00:00:00;1725149060;01/09/24;00:04:20;0.851;0.188;0.305;-1.6126842498779297;-0.8051203489303589;-0.28099802136421204
01:00:0A:00:00:00:00;1725149061;01/09/24;00:04:21;0.977;0.136;0.182;-1.7470746040344238;-1.0910052061080933;-0.40194931626319885
01:00:0A:00:00:00:00;1725149062;01/09/24;00:04:22;0.975;0.189;0.33;-1.9682077169418335;-0.29077184200286865;0.4642575681209564
01:00:0A:00:00:00:00;1725149063;01/09/24;00:04:23;1.057;-0.056;-0.129;-1.6102406978607178;-0.06230825558304787;-0.17348572611808777
01:00:0A:00:00:00:00;1725149064;01/09/24;00:04:24;0.987;-0.302;0.252;-1.3964378833770752;0.11484266817569733;0.17104226350784302
01:00:0A:00:00:00:00;1725149065;01/09/24;00:04:25;0.966;0.219;0.057;-1.0934487581253052;0.0012217304902151227;-0.7330382466316223
01:00:0A:00:00:00:00;1725149066;01/09/24;00:04:26;0.96;-0.091;0.176;-1.2730430364608765;-0.44226640462875366;0.44226640462875366
01:00:0A:00:00:00:00;1725149067;01/09/24;00:04:27;0.994;-0.026;0.122;-0.8930849432945251;0.5167919993400574;-0.33719760179519653
01:00:0A:00:00:00:00;1725149068;01/09/24;00:04:28;0.97;-0.175;0.385;-0.911410927772522;-0.30543261766433716;-0.13805554807186127
01:00:0A:00:00:00:00;1725149069;01/09/24;00:04:29;1.049;0.213;-0.028;-0.8405505418777466;-0.11484266817569733;-0.042760565876960754
01:00:0A:00:00:00:00;1725149070;01/09/24;00:04:30;1.058;-0.235;0.025;-0.8002334833145142;0.09407324343919754;0.3335324227809906
01:00:0A:00:00:00:00;1725149071;01/09/24;00:04:31;1.004;0.032;0.286;-0.6536257863044739;0.39828410744667053;-0.15027284622192383
01:00:0A:00:00:00:00;1725149072;01/09/24;00:04:32;0.939;-0.11;-0.123;-0.5839871764183044;-0.7428121566772461;0.009773843921720982
01:00:0A:00:00:00:00;1725149073;01/09/24;00:04:33;0.934;0.03;0.169;-0.3090977966785431;0.8332201242446899;0.021991148591041565
01:00:0A:00:00:00:00;1725149074;01/09/24;00:04:34;0.931;0.128;0.214;-0.49235740303993225;-0.7965682148933411;-0.49724429845809937
01:00:0A:00:00:00:00;1725149075;01/09/24;00:04:35;0.972;0.294;0.008;-0.7831292152404785;-0.2431243658065796;0.5143485069274902
01:00:0A:00:00:00:00;1725149076;01/09/24;00:04:36;1.055;0.008;-0.112;-0.7843509316444397;0.08552113175392151;0.13927726447582245
01:00:0A:00:00:00:00;1725149077;01/09/24;00:04:37;1.037;0.193;0.145;-0.7806857824325562;0.09651670604944229;-0.00855211354792118
01:00:0A:00:00:00:00;1725149078;01/09/24;00:04:38;0.985;-0.227;-0.176;-0.7061601877212524;-0.3530800938606262;0.4300491213798523
01:00:0A:00:00:00:00;1725149079;01/09/24;00:04:39;0.956;-0.053;0.033;-0.36529743671417236;0.7159340977668762;-0.26511549949645996
01:00:0A:00:00:00:00;1725149080;01/09/24;00:04:40;0.947;0.029;0.053;-0.5155702233314514;-0.251676470041275;-0.039095375686883926
01:00:0A:00:00:00:00;1725149081;01/09/24;00:04:41;1.004;-0.019;0.033;-0.44715335965156555;0.34208452701568604;-0.1514945775270462
01:00:0A:00:00:00:00;1725149082;01/09/24;00:04:42;1.023;0.055;0.171;-0.6243042349815369;-0.7867944240570068;-0.21135938167572021
01:00:0A:00:00:00:00;1725149083;01/09/24;00:04:43;0.99;0.292;-0.264;-0.6768386960029602;0.14294245839118958;0.04886921867728233
01:00:0A:00:00:00:00;1725149084;01/09/24;00:04:44;1.027;-0.242;-0.145;-0.6206390857696533;-0.39706242084503174;0.5937609672546387
01:00:0A:00:00:00:00;1725149085;01/09/24;00:04:45;0.913;-0.479;-0.086;-0.11972958594560623;0.9334021210670471;0.30054569244384766
01:00:0A:00:00:00:00;1725149086;01/09/24;00:04:46;0.766;0.128;0.6;-0.35552355647087097;0.15271630883216858;-1.1618657112121582
01:00:0A:00:00:00:00;1725149087;01/09/24;00:04:47;0.926;0.22;0.234;-1.1533136367797852;-1.1911872625350952;-0.8417722582817078
01:00:0A:00:00:00:00;1725149088;01/09/24;00:04:48;0.957;0.108;-0.154;-1.7177530527114868;-0.00855211354792118;0.5094615817070007
01:00:0A:00:00:00:00;1725149089;01/09/24;00:04:49;1.017;-0.085;-0.013;-1.4501941204071045;0.013439035043120384;-0.24190263450145721
01:00:0A:00:00:00:00;1725149090;01/09/24;00:04:50;1.049;-0.024;0.16;-1.2840386629104614;0.0659734457731247;-0.22479839622974396
01:00:0A:00:00:00:00;1725149091;01/09/24;00:04:51;1.023;0.17;0.16;-1.3048081398010254;-0.010995574295520782;-0.42149701714515686
01:00:0A:00:00:00:00;1725149092;01/09/24;00:04:52;0.923;0.11;0.244;-1.4037683010101318;-0.0024434609804302454;-0.4789183437824249
01:00:0A:00:00:00:00;1725149093;01/09/24;00:04:53;0.932;0.015;-0.04;-1.852143406867981;-0.8979718685150146;-0.19792033731937408
01:00:0A:00:00:00:00;1725149094;01/09/24;00:04:54;0.958;-0.058;0.123;-1.7104226350784302;0.07208210229873657;0.8405505418777466
01:00:0A:00:00:00:00;1725149095;01/09/24;00:04:55;0.967;-0.132;-0.241;-1.0286970138549805;0.6291911602020264;-0.50335294008255
01:00:0A:00:00:00:00;1725149096;01/09/24;00:04:56;0.987;-0.037;0.42;-1.038470983505249;-0.2687807083129883;0.2028072476387024
01:00:0A:00:00:00:00;1725149097;01/09/24;00:04:57;1.078;-0.009;-0.146;-0.836885392665863;-0.14049901068210602;-0.24678954482078552
01:00:0A:00:00:00:00;1725149098;01/09/24;00:04:58;0.995;-0.221;0.338;-0.8026769161224365;0.3836233615875244;0.27611109614372253
01:00:0A:00:00:00:00;1725149099;01/09/24;00:04:59;0.935;0.228;0.002;-0.7232644557952881;-0.3836233615875244;-0.8026769161224365
01:00:0A:00:00:00:00;1725149100;01/09/24;00:05:00;0.923;-0.279;0.175;-1.0238101482391357;-0.015882495790719986;0.9443976283073425
01:00:0A:00:00:00:00;1725149101;01/09/24;00:05:01;0.982;-0.146;-0.033;-0.445931613445282;0.080634206533432;-0.6316346526145935
01:00:0A:00:00:00:00;1725149102;01/09/24;00:05:02;0.97;0.284;0.221;-0.5558874011039734;-0.11239919811487198;0.2528982162475586
01:00:0A:00:00:00:00;1725149103;01/09/24;00:05:03;1.076;-0.145;-0.057;-0.5510004162788391;-0.13805554807186127;0.080634206533432
01:00:0A:00:00:00:00;1725149104;01/09/24;00:05:04;1.066;0.129;0.137;-0.47769662737846375;0.16004669666290283;0.0036651913542300463
01:00:0A:00:00:00:00;1725149105;01/09/24;00:05:05;1.003;-0.208;-0.041;-0.46181410551071167;-0.22113320231437683;0.43249258399009705
01:00:0A:00:00:00:00;1725149106;01/09/24;00:05:06;0.927;0.096;0.001;-0.20891590416431427;0.3433062732219696;-0.685390830039978
01:00:0A:00:00:00:00;1725149107;01/09/24;00:05:07;0.924;-0.097;0.162;-0.5082398653030396;0.3152064383029938;0.39095374941825867
01:00:0A:00:00:00:00;1725149108;01/09/24;00:05:08;0.954;0.001;0.203;-0.4703662395477295;-0.50335294008255;-0.949284553527832
01:00:0A:00:00:00:00;1725149109;01/09/24;00:05:09;0.947;0.304;0.031;-0.9004153609275818;-0.26511549949645996;0.455705463886261
01:00:0A:00:00:00:00;1725149110;01/09/24;00:05:10;1.052;-0.064;0.011;-0.9028588533401489;-0.294437050819397;0.04886921867728233
01:00:0A:00:00:00:00;1725149111;01/09/24;00:05:11;1.017;0.176;-0.017;-0.7953465580940247;0.14049901068210602;-0.10506881773471832
01:00:0A:00:00:00:00;1725149112;01/09/24;00:05:12;0.983;-0.189;-0.031;-0.7660250067710876;-0.4605923891067505;0.48380526900291443
01:00:0A:00:00:00:00;1725149113;01/09/24;00:05:13;0.942;0.015;0.122;-0.4105014204978943;0.6499606370925903;-0.3298672139644623
01:00:0A:00:00:00:00;1725149114;01/09/24;00:05:14;0.944;-0.087;-0.061;-0.49724429845809937;-0.8576548099517822;-0.019547687843441963
01:00:0A:00:00:00:00;1725149115;01/09/24;00:05:15;0.945;0.138;-0.099;-0.23457224667072296;0.7867944240570068;0.09529497474431992
01:00:0A:00:00:00:00;1725149116;01/09/24;00:05:16;0.962;-0.07;0.277;-0.38240164518356323;-0.5485569834709167;0.09529497474431992
01:00:0A:00:00:00:00;1725149117;01/09/24;00:05:17;1.02;-0.197;-0.149;-0.24556782841682434;0.4349360466003418;0.3078760802745819
01:00:0A:00:00:00:00;1725149118;01/09/24;00:05:18;0.928;-0.046;0.593;-0.2675589621067047;0.0659734457731247;-0.6230825185775757
01:00:0A:00:00:00:00;1725149119;01/09/24;00:05:19;1.001;0.277;0.083;-0.7819074988365173;-0.5314527750015259;-0.09040805697441101
01:00:0A:00:00:00:00;1725149120;01/09/24;00:05:20;0.972;-0.013;-0.001;-0.949284553527832;0.24434609711170197;0.5241223573684692
01:00:0A:00:00:00:00;1725149121;01/09/24;00:05:21;0.951;-0.15;0.105;-0.6524040699005127;-0.07452555745840073;-0.37262779474258423
01:00:0A:00:00:00:00;1725149122;01/09/24;00:05:22;1.019;0.11;0.067;-0.6010913848876953;-0.09896016865968704;-0.07941248267889023
01:00:0A:00:00:00:00;1725149123;01/09/24;00:05:23;1.061;0.011;-0.039;-0.7232644557952881;0.19058994948863983;0.48258352279663086
01:00:0A:00:00:00:00;1725149124;01/09/24;00:05:24;1.06;-0.204;0.06;-0.6096435189247131;0.161268413066864;0.01710422709584236
01:00:0A:00:00:00:00;1725149125;01/09/24;00:05:25;1.03;0.087;0.037;-0.6340781450271606;0.13927726447582245;-0.2577851116657257
01:00:0A:00:00:00:00;1725149126;01/09/24;00:05:26;0.947;-0.062;0.128;-0.7354817390441895;0.019547687843441963;0.01710422709584236
01:00:0A:00:00:00:00;1725149127;01/09/24;00:05:27;0.944;0.053;0.026;-0.6218608021736145;-0.2773328125476837;-0.5937609672546387
01:00:0A:00:00:00:00;1725149128;01/09/24;00:05:28;0.889;-0.018;-0.143;-0.9651670455932617;0.7648032903671265;0.9859364628791809
01:00:0A:00:00:00:00;1725149129;01/09/24;00:05:29;0.965;-0.166;0.061;-0.6096435189247131;0.05497787147760391;-0.8552113175392151
01:00:0A:00:00:00:00;1725149130;01/09/24;00:05:30;0.957;0.244;0.198;-0.76846843957901;-0.5681046843528748;-0.05742133408784866
01:00:0A:00:00:00:00;1725149131;01/09/24;00:05:31;1.021;0.09;-0.047;-0.9456194043159485;-0.161268413066864;0.21013763546943665
01:00:0A:00:00:00:00;1725149132;01/09/24;00:05:32;1.013;-0.102;-0.009;-0.862541675567627;0.04642575979232788;0.22113320231437683
01:00:0A:00:00:00:00;1725149133;01/09/24;00:05:33;0.973;-0.02;0.169;-0.7354817390441895;0.13927726447582245;-0.2321287840604782
01:00:0A:00:00:00:00;1725149134;01/09/24;00:05:34;0.889;0.02;0.475;-3.721391201019287;0.0354301817715168;-0.9566149115562439
01:00:0A:00:00:00:00;1725149135;01/09/24;00:05:35;0.872;-0.488;0.181;-2.7085764408111572;0.9346237778663635;-0.7024949789047241
01:00:0A:00:00:00:00;1725149136;01/09/24;00:05:36;0.942;-0.358;-0.074;-1.644449234008789;0.6340781450271606;-0.626747727394104
01:00:0A:00:00:00:00;1725149137;01/09/24;00:05:37;1.046;-0.058;0.186;-1.4208725690841675;-0.045204028487205505;-0.14049901068210602
01:00:0A:00:00:00:00;1725149138;01/09/24;00:05:38;0.922;-0.198;0.495;-2.7269022464752197;0.09407324343919754;-0.322536826133728
01:00:0A:00:00:00:00;1725149139;01/09/24;00:05:39;0.99;0.199;0.169;-2.3383920192718506;0.2076941877603531;-0.4508185386657715
01:00:0A:00:00:00:00;1725149140;01/09/24;00:05:40;0.999;-0.176;-0.022;-2.1978931427001953;-0.43249258399009705;-0.2638937830924988
01:00:0A:00:00:00:00;1725149141;01/09/24;00:05:41;0.964;0.048;0.253;-1.9816468954086304;0.1062905490398407;0.17837265133857727
01:00:0A:00:00:00:00;1725149142;01/09/24;00:05:42;1.009;-0.085;-0.015;-1.623679757118225;0.06719517707824707;-0.4105014204978943
01:00:0A:00:00:00:00;1725149143;01/09/24;00:05:43;1.016;-0.072;0.169;-1.5760324001312256;-0.26511549949645996;0.1258382350206375
01:00:0A:00:00:00:00;1725149144;01/09/24;00:05:44;1.042;0.035;-0.127;-1.3133602142333984;0.12339477241039276;0.02076941914856434
01:00:0A:00:00:00:00;1725149145;01/09/24;00:05:45;1.033;-0.178;0.158;-1.1472049951553345;0.1270599663257599;0.22113320231437683
01:00:0A:00:00:00:00;1725149146;01/09/24;00:05:46;1.015;0.17;-0.083;-0.9578366875648499;-0.251676470041275;-0.2981022298336029
01:00:0A:00:00:00:00;1725149147;01/09/24;00:05:47;0.991;-0.11;0.082;-0.9737191796302795;0.2687807083129883;0.4544837474822998
01:00:0A:00:00:00:00;1725149148;01/09/24;00:05:48;0.99;-0.048;0.136;-0.7049384713172913;0.27611109614372253;-0.3604104816913605
01:00:0A:00:00:00:00;1725149149;01/09/24;00:05:49;0.973;0.039;0.223;-0.8576548099517822;-0.24068090319633484;-0.03176499158143997
01:00:0A:00:00:00:00;1725149150;01/09/24;00:05:50;0.998;-0.028;-0.025;-0.7806857824325562;-0.16371189057826996;-0.04398229718208313
01:00:0A:00:00:00:00;1725149151;01/09/24;00:05:51;1.027;-0.024;0.01;-0.685390830039978;0.1368338167667389;0.11484266817569733
01:00:0A:00:00:00:00;1725149152;01/09/24;00:05:52;1.015;-0.081;0.111;-0.5510004162788391;-0.10873401165008545;-0.19303341209888458
01:00:0A:00:00:00:00;1725149153;01/09/24;00:05:53;1.012;0.049;0.057;-0.5082398653030396;-0.161268413066864;-0.14416420459747314
01:00:0A:00:00:00:00;1725149154;01/09/24;00:05:54;1.021;0.013;0.069;-0.6035348773002625;-0.07819075137376785;0.1722639948129654
01:00:0A:00:00:00:00;1725149155;01/09/24;00:05:55;1.042;-0.077;0.048;-0.4996877610683441;-0.028099799528717995;-0.2028072476387024
01:00:0A:00:00:00:00;1725149156;01/09/24;00:05:56;1.064;0.065;0.211;-0.5375614166259766;-0.08185594528913498;-0.08552113175392151
01:00:0A:00:00:00:00;1725149157;01/09/24;00:05:57;1.076;-0.17;-0.113;-0.44715335965156555;-0.0073303827084600925;-0.030543262138962746
01:00:0A:00:00:00:00;1725149158;01/09/24;00:05:58;1.013;0.0;0.305;-0.4043927788734436;0.40683624148368835;-0.11239919811487198
01:00:0A:00:00:00:00;1725149159;01/09/24;00:05:59;1.013;-0.044;-0.21;-0.5277875661849976;-0.5522221922874451;0.09773843735456467
01:00:0A:00:00:00:00;1725149160;01/09/24;00:06:00;0.981;-0.086;0.219;-0.41661006212234497;0.4312708377838135;0.07819075137376785
01:00:0A:00:00:00:00;1725149161;01/09/24;00:06:01;0.989;-0.017;0.162;-0.4239404499530792;-0.38728854060173035;-0.37629297375679016
01:00:0A:00:00:00:00;1725149162;01/09/24;00:06:02;0.987;-0.034;-0.012;-0.49235740303993225;-0.06108652427792549;0.15515977144241333
01:00:0A:00:00:00:00;1725149163;01/09/24;00:06:03;0.992;-0.108;0.053;-0.3995058536529541;0.13927726447582245;0.1466076523065567
01:00:0A:00:00:00:00;1725149164;01/09/24;00:06:04;1.007;0.012;0.101;-0.29688048362731934;-0.16493360698223114;-0.27000245451927185
01:00:0A:00:00:00:00;1725149165;01/09/24;00:06:05;1.016;0.108;0.072;-0.38728854060173035;-0.09040805697441101;-0.04886921867728233
01:00:0A:00:00:00:00;1725149166;01/09/24;00:06:06;1.015;-0.128;0.05;-0.37751471996307373;-0.0012217304902151227;0.09773843735456467
01:00:0A:00:00:00:00;1725149167;01/09/24;00:06:07;0.99;-0.044;0.09;-0.2223549485206604;0.09162978082895279;-0.2577851116657257
01:00:0A:00:00:00:00;1725149168;01/09/24;00:06:08;0.98;0.007;0.103;-0.31031954288482666;-0.17837265133857727;0.02321287989616394
01:00:0A:00:00:00:00;1725149169;01/09/24;00:06:09;1.002;-0.085;0.028;-0.2626720666885376;-0.040317103266716;0.04886921867728233
01:00:0A:00:00:00:00;1725149170;01/09/24;00:06:10;1.018;-0.037;0.099;-0.1563815027475357;0.10506881773471832;-0.0659734457731247
01:00:0A:00:00:00:00;1725149171;01/09/24;00:06:11;1.016;0.05;0.163;-0.21502456068992615;-0.05497787147760391;0.03298672288656235
01:00:0A:00:00:00:00;1725149172;01/09/24;00:06:12;1.017;-0.029;0.036;-0.1918116807937622;-0.1160643920302391;-0.028099799528717995
01:00:0A:00:00:00:00;1725149173;01/09/24;00:06:13;1.016;-0.001;0.072;-0.08796459436416626;0.14538592100143433;-0.17348572611808777
01:00:0A:00:00:00:00;1725149174;01/09/24;00:06:14;1.017;-0.055;0.118;-0.1270599663257599;-0.036651913076639175;0.0073303827084600925
01:00:0A:00:00:00:00;1725149175;01/09/24;00:06:15;1.017;-0.097;-0.033;-0.07819075137376785;-0.13927726447582245;0.025656338781118393
01:00:0A:00:00:00:00;1725149176;01/09/24;00:06:16;0.986;-0.043;0.07;-0.02076941914856434;0.1062905490398407;0.07819075137376785
01:00:0A:00:00:00:00;1725149177;01/09/24;00:06:17;0.957;-0.027;0.104;-0.04886921867728233;-0.1673770695924759;0.10506881773471832
01:00:0A:00:00:00:00;1725149178;01/09/24;00:06:18;0.976;0.011;0.083;-0.0073303827084600925;-0.028099799528717995;-0.039095375686883926
01:00:0A:00:00:00:00;1725149179;01/09/24;00:06:19;1.011;0.018;0.129;-0.025656338781118393;0.01710422709584236;0.0354301817715168
01:00:0A:00:00:00:00;1725149180;01/09/24;00:06:20;1.06;-0.049;0.117;-0.00855211354792118;0.024434609338641167;-0.040317103266716
01:00:0A:00:00:00:00;1725149181;01/09/24;00:06:21;1.062;0.031;0.024;-0.012217304669320583;0.030543262138962746;-0.0036651913542300463
01:00:0A:00:00:00:00;1725149182;01/09/24;00:06:22;1.033;-0.036;0.099;-0.03176499158143997;0.051312677562236786;0.10751228034496307
01:00:0A:00:00:00:00;1725149183;01/09/24;00:06:23;0.992;0.023;0.068;-0.012217304669320583;-0.07208210229873657;-0.08307767659425735
01:00:0A:00:00:00:00;1725149184;01/09/24;00:06:24;0.99;0.006;0.095;-0.039095375686883926;0.05009094998240471;0.02932153083384037
01:00:0A:00:00:00:00;1725149185;01/09/24;00:06:25;1.006;-0.043;0.119;-0.019547687843441963;-0.02321287989616394;-0.0659734457731247
01:00:0A:00:00:00:00;1725149186;01/09/24;00:06:26;1.026;-0.015;0.056;-0.019547687843441963;-0.02932153083384037;-0.04764748737215996
01:00:0A:00:00:00:00;1725149187;01/09/24;00:06:27;1.018;-0.027;0.05;-0.042760565876960754;-0.013439035043120384;0.08552113175392151
01:00:0A:00:00:00:00;1725149188;01/09/24;00:06:28;1.01;-0.038;0.06;-0.0354301817715168;-0.10751228034496307;0.07208210229873657
01:00:0A:00:00:00:00;1725149189;01/09/24;00:06:29;1.005;0.007;0.086;-0.03420845419168472;-0.1270599663257599;0.04642575979232788
01:00:0A:00:00:00:00;1725149190;01/09/24;00:06:30;1.006;0.019;0.14;-0.04398229718208313;0.014660765416920185;0.045204028487205505
01:00:0A:00:00:00:00;1725149191;01/09/24;00:06:31;0.999;-0.001;0.159;-0.04398229718208313;0.036651913076639175;-0.02321287989616394
01:00:0A:00:00:00:00;1725149192;01/09/24;00:06:32;0.976;0.0;0.11;-0.05375614017248154;0.07941248267889023;-0.00855211354792118
01:00:0A:00:00:00:00;1725149193;01/09/24;00:06:33;0.961;-0.018;0.075;-0.06352998316287994;0.059864792972803116;0.042760565876960754
01:00:0A:00:00:00:00;1725149194;01/09/24;00:06:34;1.004;-0.02;0.064;-0.03176499158143997;-0.04764748737215996;-0.08796459436416626
01:00:0A:00:00:00:00;1725149195;01/09/24;00:06:35;1.044;0.041;0.081;-0.08185594528913498;-0.03176499158143997;0.08552113175392151
01:00:0A:00:00:00:00;1725149196;01/09/24;00:06:36;1.103;-0.143;0.104;0.03298672288656235;0.0012217304902151227;-0.23945917189121246
01:00:0A:00:00:00:00;1725149197;01/09/24;00:06:37;1.088;0.288;0.026;-0.08918632566928864;0.09285151958465576;0.06475171446800232
01:00:0A:00:00:00:00;1725149198;01/09/24;00:06:38;0.92;-0.698;0.052;0.07696902006864548;0.021991148591041565;0.6133087277412415
01:00:0A:00:00:00:00;1725149199;01/09/24;00:06:39;0.991;0.392;-0.02;0.2577851116657257;-0.24678954482078552;-0.8442157506942749
01:00:0A:00:00:00:00;1725149200;01/09/24;00:06:40;1.026;-0.232;0.179;-0.05864306166768074;0.16859880089759827;0.6902776956558228
01:00:0A:00:00:00:00;1725149201;01/09/24;00:06:41;0.983;0.053;0.072;0.09407324343919754;-0.22602014243602753;-0.38728854060173035
01:00:0A:00:00:00:00;1725149202;01/09/24;00:06:42;0.961;0.026;0.131;-0.08674286305904388;0.15882496535778046;0.3176499307155609
01:00:0A:00:00:00:00;1725149203;01/09/24;00:06:43;0.979;-0.065;0.13;-0.028099799528717995;-0.15027284622192383;-0.12217304855585098
01:00:0A:00:00:00:00;1725149204;01/09/24;00:06:44;1.015;0.032;0.054;-0.028099799528717995;0.059864792972803116;-0.02687807008624077
01:00:0A:00:00:00:00;1725149205;01/09/24;00:06:45;1.03;-0.022;0.119;-0.08307767659425735;0.042760565876960754;0.1062905490398407
01:00:0A:00:00:00:00;1725149206;01/09/24;00:06:46;1.017;-0.055;0.062;-0.06719517707824707;-0.08674286305904388;0.019547687843441963
01:00:0A:00:00:00:00;1725149207;01/09/24;00:06:47;0.976;0.025;0.069;-0.05375614017248154;0.0073303827084600925;-0.02321287989616394
01:00:0A:00:00:00:00;1725149208;01/09/24;00:06:48;0.976;0.009;0.11;-0.1111774742603302;-0.04886921867728233;0.16859880089759827
01:00:0A:00:00:00:00;1725149209;01/09/24;00:06:49;1.011;-0.035;0.098;-0.02687807008624077;0.0;-0.16249015927314758
01:00:0A:00:00:00:00;1725149210;01/09/24;00:06:50;1.062;0.094;0.096;-0.07452555745840073;0.0354301817715168;0.025656338781118393
01:00:0A:00:00:00:00;1725149211;01/09/24;00:06:51;1.079;-0.153;0.072;-0.0073303827084600925;0.030543262138962746;-0.06719517707824707
01:00:0A:00:00:00:00;1725149212;01/09/24;00:06:52;1.041;0.136;0.074;0.015882495790719986;0.03420845419168472;-0.28588491678237915
01:00:0A:00:00:00:00;1725149213;01/09/24;00:06:53;0.97;-0.242;0.036;-0.051312677562236786;-0.028099799528717995;0.5754350423812866
01:00:0A:00:00:00:00;1725149214;01/09/24;00:06:54;0.913;0.133;0.024;0.19547687470912933;-0.02687807008624077;-0.8576548099517822
01:00:0A:00:00:00:00;1725149215;01/09/24;00:06:55;0.923;-0.099;0.033;-0.18570303916931152;0.0659734457731247;1.0958921909332275
01:00:0A:00:00:00:00;1725149216;01/09/24;00:06:56;0.934;-0.125;0.016;0.26022857427597046;-0.17959438264369965;-0.8991935849189758
01:00:0A:00:00:00:00;1725149217;01/09/24;00:06:57;0.978;0.203;-0.009;0.06841690838336945;0.06352998316287994;0.33108896017074585
01:00:0A:00:00:00:00;1725149218;01/09/24;00:06:58;1.029;-0.14;0.148;0.06352998316287994;-0.20891590416431427;-0.010995574295520782
01:00:0A:00:00:00:00;1725149219;01/09/24;00:06:59;1.058;-0.029;0.044;0.1673770695924759;-0.06841690838336945;-0.14294245839118958
01:00:0A:00:00:00:00;1725149220;01/09/24;00:07:00;1.039;0.072;0.095;0.12339477241039276;0.12828169763088226;0.021991148591041565
01:00:0A:00:00:00:00;1725149221;01/09/24;00:07:01;1.003;-0.115;0.104;0.080634206533432;0.06963863223791122;0.24556782841682434
01:00:0A:00:00:00:00;1725149222;01/09/24;00:07:02;0.992;-0.012;0.022;0.17837265133857727;-0.1014036238193512;-0.15882496535778046
01:00:0A:00:00:00:00;1725149223;01/09/24;00:07:03;0.975;0.024;0.047;0.1160643920302391;0.11239919811487198;0.2223549485206604
01:00:0A:00:00:00:00;1725149224;01/09/24;00:07:04;0.978;-0.034;0.12;0.13316862285137177;-0.1661553531885147;0.004886921960860491
01:00:0A:00:00:00:00;1725149225;01/09/24;00:07:05;1.024;0.027;0.055;0.17348572611808777;-0.006108652334660292;-0.1160643920302391
01:00:0A:00:00:00:00;1725149226;01/09/24;00:07:06;1.06;0.017;0.095;0.14049901068210602;0.07208210229873657;-0.0354301817715168
01:00:0A:00:00:00:00;1725149227;01/09/24;00:07:07;1.065;-0.096;0.125;0.1319468915462494;0.013439035043120384;-0.059864792972803116
01:00:0A:00:00:00:00;1725149228;01/09/24;00:07:08;1.046;-0.005;-0.01;0.11239919811487198;-0.051312677562236786;-0.04398229718208313
01:00:0A:00:00:00:00;1725149229;01/09/24;00:07:09;1.012;-0.082;0.111;0.06352998316287994;0.15271630883216858;0.21502456068992615
01:00:0A:00:00:00:00;1725149230;01/09/24;00:07:10;0.98;0.001;0.039;0.0708603635430336;-0.21624629199504852;0.014660765416920185
01:00:0A:00:00:00:00;1725149231;01/09/24;00:07:11;0.978;0.047;0.044;0.05619959905743599;0.0757472887635231;0.12950342893600464
01:00:0A:00:00:00:00;1725149232;01/09/24;00:07:12;0.992;0.024;0.138;0.05375614017248154;-0.07696902006864548;0.0024434609804302454
01:00:0A:00:00:00:00;1725149233;01/09/24;00:07:13;1.008;0.006;0.082;0.06841690838336945;-0.1014036238193512;-0.10873401165008545
01:00:0A:00:00:00:00;1725149234;01/09/24;00:07:14;0.999;0.016;0.072;0.06475171446800232;0.08918632566928864;-0.028099799528717995
01:00:0A:00:00:00:00;1725149235;01/09/24;00:07:15;1.003;-0.028;0.128;0.045204028487205505;0.03176499158143997;-0.0036651913542300463
01:00:0A:00:00:00:00;1725149236;01/09/24;00:07:16;1.016;-0.019;0.076;0.04886921867728233;-0.014660765416920185;-0.051312677562236786
01:00:0A:00:00:00:00;1725149237;01/09/24;00:07:17;1.037;0.009;0.046;0.04153883829712868;0.05497787147760391;0.0012217304902151227
01:00:0A:00:00:00:00;1725149238;01/09/24;00:07:18;1.037;-0.034;0.111;0.02932153083384037;-0.042760565876960754;-0.012217304669320583
01:00:0A:00:00:00:00;1725149239;01/09/24;00:07:19;1.039;-0.017;0.052;0.018325956538319588;-0.09407324343919754;0.009773843921720982
01:00:0A:00:00:00:00;1725149240;01/09/24;00:07:20;1.031;-0.011;0.075;0.00855211354792118;-0.018325956538319588;0.039095375686883926
01:00:0A:00:00:00:00;1725149241;01/09/24;00:07:21;1.022;-0.023;0.131;-0.009773843921720982;-0.036651913076639175;0.05619959905743599
01:00:0A:00:00:00:00;1725149242;01/09/24;00:07:22;1.02;-0.017;0.098;-0.012217304669320583;-0.05009094998240471;0.009773843921720982
01:00:0A:00:00:00:00;1725149243;01/09/24;00:07:23;1.014;-0.012;0.1;-0.00855211354792118;0.059864792972803116;0.010995574295520782
01:00:0A:00:00:00:00;1725149244;01/09/24;00:07:24;0.983;-0.018;0.107;-0.012217304669320583;0.05619959905743599;0.015882495790719986
01:00:0A:00:00:00:00;1725149245;01/09/24;00:07:25;0.973;-0.011;0.061;-0.01710422709584236;-0.02932153083384037;0.00855211354792118
01:00:0A:00:00:00:00;1725149246;01/09/24;00:07:26;0.993;0.001;0.04;-0.014660765416920185;0.07208210229873657;0.05864306166768074
01:00:0A:00:00:00:00;1725149247;01/09/24;00:07:27;1.011;0.007;0.078;-0.018325956538319588;-0.059864792972803116;0.0073303827084600925
01:00:0A:00:00:00:00;1725149248;01/09/24;00:07:28;1.043;0.02;0.048;-0.014660765416920185;-0.0757472887635231;-0.06230825558304787
01:00:0A:00:00:00:00;1725149249;01/09/24;00:07:29;1.043;-0.003;0.085;-0.012217304669320583;-0.019547687843441963;-0.051312677562236786
01:00:0A:00:00:00:00;1725149250;01/09/24;00:07:30;1.025;-0.023;0.115;-0.015882495790719986;-0.04764748737215996;-0.06230825558304787
01:00:0A:00:00:00:00;1725149251;01/09/24;00:07:31;1.008;-0.042;0.091;-0.024434609338641167;-0.006108652334660292;0.0012217304902151227
01:00:0A:00:00:00:00;1725149252;01/09/24;00:07:32;1.007;-0.05;0.092;-0.021991148591041565;0.0354301817715168;0.04153883829712868
01:00:0A:00:00:00:00;1725149253;01/09/24;00:07:33;1.019;-0.022;0.09;-0.03298672288656235;-0.02321287989616394;0.059864792972803116
01:00:0A:00:00:00:00;1725149254;01/09/24;00:07:34;1.03;-0.003;0.066;-0.040317103266716;0.0;0.08429940044879913
01:00:0A:00:00:00:00;1725149255;01/09/24;00:07:35;1.016;0.016;0.087;-0.036651913076639175;0.01710422709584236;0.009773843921720982
01:00:0A:00:00:00:00;1725149256;01/09/24;00:07:36;1.0;0.006;0.09;-0.04153883829712868;-0.012217304669320583;-0.025656338781118393
01:00:0A:00:00:00:00;1725149257;01/09/24;00:07:37;0.984;-0.013;0.068;-0.045204028487205505;-0.0354301817715168;-0.04764748737215996
01:00:0A:00:00:00:00;1725149258;01/09/24;00:07:38;0.983;-0.027;0.063;-0.042760565876960754;0.0012217304902151227;-0.039095375686883926
01:00:0A:00:00:00:00;1725149259;01/09/24;00:07:39;1.01;-0.025;0.069;-0.05497787147760391;-0.051312677562236786;-0.004886921960860491
01:00:0A:00:00:00:00;1725149260;01/09/24;00:07:40;1.039;-0.017;0.074;-0.05864306166768074;-0.051312677562236786;0.024434609338641167
01:00:0A:00:00:00:00;1725149261;01/09/24;00:07:41;1.046;0.0;0.09;-0.05375614017248154;0.0012217304902151227;0.004886921960860491
01:00:0A:00:00:00:00;1725149262;01/09/24;00:07:42;1.047;-0.017;0.094;-0.04153883829712868;0.02076941914856434;-0.03420845419168472
01:00:0A:00:00:00:00;1725149263;01/09/24;00:07:43;1.043;-0.025;0.071;-0.025656338781118393;0.028099799528717995;-0.05375614017248154
01:00:0A:00:00:00:00;1725149264;01/09/24;00:07:44;1.015;-0.046;0.066;-0.024434609338641167;0.05009094998240471;0.030543262138962746
01:00:0A:00:00:00:00;1725149265;01/09/24;00:07:45;0.993;-0.046;0.052;-0.02321287989616394;-0.02321287989616394;0.04764748737215996
01:00:0A:00:00:00:00;1725149266;01/09/24;00:07:46;0.947;-0.015;0.046;-0.012217304669320583;-0.03420845419168472;0.028099799528717995
01:00:0A:00:00:00:00;1725149267;01/09/24;00:07:47;0.939;0.002;0.051;-0.012217304669320583;-0.05253440886735916;0.015882495790719986
01:00:0A:00:00:00:00;1725149268;01/09/24;00:07:48;1.0;0.008;0.065;-0.0073303827084600925;-0.06108652427792549;-0.028099799528717995
01:00:0A:00:00:00:00;1725149269;01/09/24;00:07:49;1.044;0.001;0.068;-0.00855211354792118;-0.051312677562236786;-0.04764748737215996
01:00:0A:00:00:00:00;1725149270;01/09/24;00:07:50;1.097;-0.007;0.068;-0.018325956538319588;-0.030543262138962746;0.0036651913542300463
01:00:0A:00:00:00:00;1725149271;01/09/24;00:07:51;1.08;-0.021;0.113;-0.028099799528717995;0.042760565876960754;0.04398229718208313
01:00:0A:00:00:00:00;1725149272;01/09/24;00:07:52;1.036;0.015;0.048;-0.03420845419168472;-0.013439035043120384;-0.0012217304902151227
01:00:0A:00:00:00:00;1725149273;01/09/24;00:07:53;0.939;-0.026;0.093;-0.04398229718208313;0.1722639948129654;0.12828169763088226
01:00:0A:00:00:00:00;1725149274;01/09/24;00:07:54;0.931;0.02;0.012;-0.01710422709584236;-0.20036379992961884;-0.15027284622192383
01:00:0A:00:00:00:00;1725149275;01/09/24;00:07:55;0.983;0.021;0.014;-0.05619959905743599;0.3017674386501312;0.2638937830924988
01:00:0A:00:00:00:00;1725149276;01/09/24;00:07:56;0.999;-0.076;0.161;0.013439035043120384;-0.3848450779914856;-0.29688048362731934
01:00:0A:00:00:00:00;1725149277;01/09/24;00:07:57;1.034;0.14;-0.098;-0.0354301817715168;0.05742133408784866;0.07696902006864548
01:00:0A:00:00:00:00;1725149278;01/09/24;00:07:58;1.038;-0.129;0.195;-0.025656338781118393;0.10751228034496307;0.04642575979232788
01:00:0A:00:00:00:00;1725149279;01/09/24;00:07:59;1.045;0.002;0.071;0.004886921960860491;-0.1417207270860672;-0.1869247555732727
01:00:0A:00:00:00:00;1725149280;01/09/24;00:08:00;1.019;0.005;0.007;-0.05009094998240471;-0.014660765416920185;0.06475171446800232
01:00:0A:00:00:00:00;1725149281;01/09/24;00:08:01;0.992;-0.098;0.137;-0.040317103266716;0.10506881773471832;0.13316862285137177
01:00:0A:00:00:00:00;1725149282;01/09/24;00:08:02;0.974;-0.007;0.092;-0.018325956538319588;-0.21502456068992615;-0.09407324343919754
01:00:0A:00:00:00:00;1725149283;01/09/24;00:08:03;0.969;0.027;0.064;-0.0659734457731247;0.0708603635430336;0.20036379992961884
01:00:0A:00:00:00:00;1725149284;01/09/24;00:08:04;1.002;-0.04;0.132;-0.02076941914856434;-0.05009094998240471;-0.07452555745840073
01:00:0A:00:00:00:00;1725149285;01/09/24;00:08:05;1.039;0.024;0.082;-0.028099799528717995;-0.02932153083384037;0.02321287989616394
01:00:0A:00:00:00:00;1725149286;01/09/24;00:08:06;1.078;-0.027;0.066;-0.010995574295520782;0.059864792972803116;0.0024434609804302454
01:00:0A:00:00:00:00;1725149287;01/09/24;00:08:07;1.062;-0.015;0.124;-0.006108652334660292;0.059864792972803116;-0.013439035043120384
01:00:0A:00:00:00:00;1725149288;01/09/24;00:08:08;1.031;-0.014;0.013;-0.010995574295520782;-0.1014036238193512;0.012217304669320583
01:00:0A:00:00:00:00;1725149289;01/09/24;00:08:09;0.946;-0.023;0.125;0.006108652334660292;0.21502456068992615;0.04642575979232788
01:00:0A:00:00:00:00;1725149290;01/09/24;00:08:10;0.934;0.001;0.036;-0.009773843921720982;-0.3530800938606262;-0.08307767659425735
01:00:0A:00:00:00:00;1725149291;01/09/24;00:08:11;0.975;0.003;0.039;0.013439035043120384;0.35185837745666504;0.10262535512447357
01:00:0A:00:00:00:00;1725149292;01/09/24;00:08:12;0.989;-0.049;0.197;-0.0024434609804302454;-0.4899139106273651;-0.1160643920302391
01:00:0A:00:00:00:00;1725149293;01/09/24;00:08:13;1.044;0.035;-0.109;0.028099799528717995;0.2223549485206604;0.08429940044879913
01:00:0A:00:00:00:00;1725149294;01/09/24;00:08:14;1.036;-0.061;0.273;0.028099799528717995;-0.024434609338641167;0.02321287989616394
01:00:0A:00:00:00:00;1725149295;01/09/24;00:08:15;1.064;0.024;-0.008;0.019547687843441963;-0.15027284622192383;-0.021991148591041565
01:00:0A:00:00:00:00;1725149296;01/09/24;00:08:16;1.022;-0.002;0.047;0.0;0.18570303916931152;0.039095375686883926
01:00:0A:00:00:00:00;1725149297;01/09/24;00:08:17;0.999;-0.022;0.08;0.0354301817715168;-0.009773843921720982;0.03298672288656235
01:00:0A:00:00:00:00;1725149298;01/09/24;00:08:18;0.969;0.011;0.057;0.06230825558304787;-0.05497787147760391;-0.10384709388017654
01:00:0A:00:00:00:00;1725149299;01/09/24;00:08:19;0.975;-0.008;0.077;0.03420845419168472;0.030543262138962746;0.04398229718208313
01:00:0A:00:00:00:00;1725149300;01/09/24;00:08:20;0.99;-0.043;0.095;0.05742133408784866;-0.08552113175392151;-0.08429940044879913
01:00:0A:00:00:00:00;1725149301;01/09/24;00:08:21;1.003;-0.001;0.064;0.04642575979232788;-0.040317103266716;-0.02076941914856434
01:00:0A:00:00:00:00;1725149302;01/09/24;00:08:22;1.025;-0.024;0.088;0.028099799528717995;0.014660765416920185;0.0708603635430336
01:00:0A:00:00:00:00;1725149303;01/09/24;00:08:23;1.027;-0.036;0.104;0.039095375686883926;-0.03298672288656235;0.00855211354792118
01:00:0A:00:00:00:00;1725149304;01/09/24;00:08:24;1.037;0.013;0.077;0.03420845419168472;-0.0073303827084600925;0.009773843921720982
01:00:0A:00:00:00:00;1725149305;01/09/24;00:08:25;1.035;-0.004;0.08;0.024434609338641167;0.030543262138962746;0.04398229718208313
01:00:0A:00:00:00:00;1725149306;01/09/24;00:08:26;1.033;-0.013;0.09;0.03420845419168472;0.0036651913542300463;-0.010995574295520782
01:00:0A:00:00:00:00;1725149307;01/09/24;00:08:27;1.016;0.0;0.067;0.03420845419168472;-0.02076941914856434;-0.02687807008624077
01:00:0A:00:00:00:00;1725149308;01/09/24;00:08:28;1.004;-0.015;0.074;0.02687807008624077;0.018325956538319588;0.024434609338641167
01:00:0A:00:00:00:00;1725149309;01/09/24;00:08:29;0.978;-0.022;0.083;0.03298672288656235;-0.021991148591041565;-0.02076941914856434
01:00:0A:00:00:00:00;1725149310;01/09/24;00:08:30;0.981;-0.02;0.083;0.030543262138962746;-0.04764748737215996;-0.00855211354792118
01:00:0A:00:00:00:00;1725149311;01/09/24;00:08:31;1.012;-0.023;0.095;0.028099799528717995;-0.02076941914856434;0.009773843921720982
01:00:0A:00:00:00:00;1725149312;01/09/24;00:08:32;1.033;-0.033;0.11;0.025656338781118393;0.006108652334660292;0.025656338781118393
01:00:0A:00:00:00:00;1725149313;01/09/24;00:08:33;1.047;-0.012;0.083;0.02076941914856434;0.04153883829712868;0.04398229718208313
01:00:0A:00:00:00:00;1725149314;01/09/24;00:08:34;1.024;-0.001;0.071;0.018325956538319588;0.051312677562236786;0.045204028487205505
01:00:0A:00:00:00:00;1725149315;01/09/24;00:08:35;1.0;0.0;0.068;0.019547687843441963;0.014660765416920185;0.019547687843441963
01:00:0A:00:00:00:00;1725149316;01/09/24;00:08:36;0.987;0.003;0.068;0.018325956538319588;-0.06352998316287994;-0.01710422709584236
01:00:0A:00:00:00:00;1725149317;01/09/24;00:08:37;1.01;0.0;0.076;0.015882495790719986;-0.06108652427792549;-0.01710422709584236
01:00:0A:00:00:00:00;1725149318;01/09/24;00:08:38;1.053;-0.014;0.101;0.018325956538319588;-0.010995574295520782;-0.042760565876960754
01:00:0A:00:00:00:00;1725149319;01/09/24;00:08:39;1.072;-0.02;0.081;0.014660765416920185;-0.0012217304902151227;-0.024434609338641167
01:00:0A:00:00:00:00;1725149320;01/09/24;00:08:40;1.04;-0.03;0.084;0.0073303827084600925;0.04153883829712868;0.05742133408784866
01:00:0A:00:00:00:00;1725149321;01/09/24;00:08:41;0.989;0.0;0.061;0.00855211354792118;0.00855211354792118;0.021991148591041565
01:00:0A:00:00:00:00;1725149322;01/09/24;00:08:42;0.92;-0.006;0.058;-0.0024434609804302454;0.025656338781118393;0.08552113175392151
01:00:0A:00:00:00:00;1725149323;01/09/24;00:08:43;0.932;0.0;0.056;0.02076941914856434;-0.11239919811487198;-0.06475171446800232
01:00:0A:00:00:00:00;1725149324;01/09/24;00:08:44;1.019;0.024;0.064;-0.00855211354792118;0.019547687843441963;0.08918632566928864
01:00:0A:00:00:00:00;1725149325;01/09/24;00:08:45;1.083;-0.088;0.14;0.039095375686883926;-0.09651670604944229;-0.16982054710388184
01:00:0A:00:00:00:00;1725149326;01/09/24;00:08:46;1.087;0.153;-0.05;-0.036651913076639175;0.08307767659425735;0.10995574295520782
01:00:0A:00:00:00:00;1725149327;01/09/24;00:08:47;1.006;-0.365;0.307;-0.010995574295520782;0.2431243658065796;0.3604104816913605
01:00:0A:00:00:00:00;1725149328;01/09/24;00:08:48;0.993;0.344;-0.198;0.036651913076639175;-0.40683624148368835;-0.50335294008255
01:00:0A:00:00:00:00;1725149329;01/09/24;00:08:49;0.99;-0.212;0.187;-0.11972958594560623;0.45326200127601624;0.7049384713172913
01:00:0A:00:00:00:00;1725149330;01/09/24;00:08:50;0.999;0.054;0.045;0.06352998316287994;-0.294437050819397;-0.4642575681209564
01:00:0A:00:00:00:00;1725149331;01/09/24;00:08:51;0.962;0.042;0.023;-0.07941248267889023;0.10751228034496307;0.2773328125476837
01:00:0A:00:00:00:00;1725149332;01/09/24;00:08:52;0.972;-0.081;0.106;-0.018325956538319588;0.0073303827084600925;-0.06719517707824707
01:00:0A:00:00:00:00;1725149333;01/09/24;00:08:53;1.013;0.008;0.085;-0.006108652334660292;-0.1466076523065567;-0.1160643920302391
01:00:0A:00:00:00:00;1725149334;01/09/24;00:08:54;1.036;0.045;0.02;-0.06230825558304787;0.028099799528717995;0.10506881773471832
01:00:0A:00:00:00:00;1725149335;01/09/24;00:08:55;1.023;-0.087;0.134;-0.03176499158143997;0.04153883829712868;0.0354301817715168
01:00:0A:00:00:00:00;1725149336;01/09/24;00:08:56;1.022;0.009;0.092;0.0012217304902151227;-0.0659734457731247;-0.1258382350206375
01:00:0A:00:00:00:00;1725149337;01/09/24;00:08:57;1.022;0.031;0.034;-0.04398229718208313;0.014660765416920185;0.02932153083384037
01:00:0A:00:00:00:00;1725149338;01/09/24;00:08:58;1.019;-0.001;0.039;0.1576032191514969;0.036651913076639175;-0.006108652334660292
01:00:0A:00:00:00:00;1725149339;01/09/24;00:08:59;1.01;-0.033;0.094;0.12828169763088226;0.04153883829712868;0.04764748737215996
01:00:0A:00:00:00:00;1725149340;01/09/24;00:09:00;0.988;-0.022;0.077;0.1160643920302391;-0.10506881773471832;0.02687807008624077
01:00:0A:00:00:00:00;1725149341;01/09/24;00:09:01;0.987;-0.006;0.053;0.11728612333536148;0.004886921960860491;0.05253440886735916
01:00:0A:00:00:00:00;1725149342;01/09/24;00:09:02;1.011;0.0;0.09;0.1160643920302391;-0.028099799528717995;0.02076941914856434
01:00:0A:00:00:00:00;1725149343;01/09/24;00:09:03;1.043;0.0;0.102;0.11239919811487198;-0.04642575979232788;-0.03298672288656235
01:00:0A:00:00:00:00;1725149344;01/09/24;00:09:04;1.055;-0.009;0.056;0.12217304855585098;0.0073303827084600925;-0.03787364438176155
01:00:0A:00:00:00:00;1725149345;01/09/24;00:09:05;1.036;-0.018;0.105;0.11972958594560623;0.06475171446800232;-0.03176499158143997
01:00:0A:00:00:00:00;1725149346;01/09/24;00:09:06;1.016;-0.033;0.072;0.10384709388017654;-0.03420845419168472;0.021991148591041565
01:00:0A:00:00:00:00;1725149347;01/09/24;00:09:07;0.988;-0.029;0.061;0.11728612333536148;0.01710422709584236;0.0012217304902151227
01:00:0A:00:00:00:00;1725149348;01/09/24;00:09:08;0.99;-0.021;0.086;0.10506881773471832;-0.004886921960860491;0.028099799528717995
01:00:0A:00:00:00:00;1725149349;01/09/24;00:09:09;1.007;-0.013;0.08;0.09773843735456467;-0.05742133408784866;0.03298672288656235
01:00:0A:00:00:00:00;1725149350;01/09/24;00:09:10;1.027;-0.009;0.068;0.10873401165008545;-0.0036651913542300463;0.019547687843441963
01:00:0A:00:00:00:00;1725149351;01/09/24;00:09:11;1.031;0.0;0.092;0.10506881773471832;0.0012217304902151227;0.009773843921720982
01:00:0A:00:00:00:00;1725149352;01/09/24;00:09:12;1.02;-0.006;0.084;0.09651670604944229;-0.024434609338641167;0.0073303827084600925
01:00:0A:00:00:00:00;1725149363;01/09/24;00:09:23;0.996;-0.004;0.059;0.07696902006864548;-0.02932153083384037;-0.015882495790719986
01:00:0A:00:00:00:00;1725149364;01/09/24;00:09:24;1.006;-0.005;0.068;0.0708603635430336;-0.06475171446800232;-0.013439035043120384
01:00:0A:00:00:00:00;1725149365;01/09/24;00:09:25;1.023;-0.016;0.082;0.07330382615327835;-0.06108652427792549;-0.0036651913542300463
01:00:0A:00:00:00:00;1725149366;01/09/24;00:09:26;1.027;-0.013;0.094;0.0757472887635231;-0.024434609338641167;0.0
01:00:0A:00:00:00:00;1725149367;01/09/24;00:09:27;1.04;-0.008;0.1;0.07208210229873657;0.004886921960860491;0.015882495790719986
01:00:0A:00:00:00:00;1725149368;01/09/24;00:09:28;1.042;-0.011;0.08;0.0757472887635231;0.02321287989616394;0.02076941914856434
01:00:0A:00:00:00:00;1725149369;01/09/24;00:09:29;1.034;-0.007;0.074;0.07941248267889023;0.030543262138962746;0.012217304669320583
01:00:0A:00:00:00:00;1725149370;01/09/24;00:09:30;1.0;-0.009;0.064;0.07452555745840073;-0.01710422709584236;0.02687807008624077
01:00:0A:00:00:00:00;1725149371;01/09/24;00:09:31;0.97;-0.006;0.066;0.07941248267889023;-0.009773843921720982;0.010995574295520782
01:00:0A:00:00:00:00;1725149372;01/09/24;00:09:32;0.961;-0.001;0.063;0.08307767659425735;-0.03420845419168472;-0.018325956538319588
01:00:0A:00:00:00:00;1725149373;01/09/24;00:09:33;0.982;-0.007;0.064;0.07819075137376785;-0.06108652427792549;-0.00855211354792118
01:00:0A:00:00:00:00;1725149374;01/09/24;00:09:34;1.041;-0.015;0.072;0.08796459436416626;-0.019547687843441963;-0.03298672288656235
01:00:0A:00:00:00:00;1725149375;01/09/24;00:09:35;1.058;-0.005;0.099;0.07208210229873657;-0.03298672288656235;0.018325956538319588
01:00:0A:00:00:00:00;1725149376;01/09/24;00:09:36;1.064;-0.023;0.068;0.07208210229873657;0.009773843921720982;0.05619959905743599
01:00:0A:00:00:00:00;1725149377;01/09/24;00:09:37;1.039;0.006;0.092;0.08185594528913498;0.05864306166768074;0.00855211354792118
01:00:0A:00:00:00:00;1725149378;01/09/24;00:09:38;0.991;0.007;0.047;0.09529497474431992;-0.025656338781118393;0.02076941914856434
01:00:0A:00:00:00:00;1725149379;01/09/24;00:09:39;0.98;-0.018;0.071;0.09773843735456467;0.028099799528717995;0.03420845419168472
01:00:0A:00:00:00:00;1725149380;01/09/24;00:09:40;0.997;-0.008;0.076;0.15027284622192383;-0.0659734457731247;-0.013439035043120384
01:00:0A:00:00:00:00;1725149381;01/09/24;00:09:41;1.029;0.005;0.072;0.13927726447582245;0.0012217304902151227;0.025656338781118393
01:00:0A:00:00:00:00;1725149382;01/09/24;00:09:42;1.035;-0.012;0.105;0.14294245839118958;0.0073303827084600925;0.00855211354792118
01:00:0A:00:00:00:00;1725149403;01/09/24;00:10:03;1.015;-0.012;0.094;0.0659734457731247;-0.009773843921720982;0.00855211354792118
01:00:0A:00:00:00:00;1725149404;01/09/24;00:10:04;1.004;-0.008;0.085;0.05742133408784866;-0.009773843921720982;0.015882495790719986
01:00:0A:00:00:00:00;1725149405;01/09/24;00:10:05;1.001;-0.011;0.081;0.05742133408784866;0.019547687843441963;0.014660765416920185
01:00:0A:00:00:00:00;1725149406;01/09/24;00:10:06;1.002;-0.01;0.077;0.05864306166768074;-0.0036651913542300463;-0.0024434609804302454
01:00:0A:00:00:00:00;1725149407;01/09/24;00:10:07;1.008;-0.005;0.074;0.05253440886735916;-0.02321287989616394;-0.009773843921720982
01:00:0A:00:00:00:00;1725149408;01/09/24;00:10:08;1.02;-0.01;0.077;0.05009094998240471;-0.024434609338641167;-0.010995574295520782
01:00:0A:00:00:00:00;1725149409;01/09/24;00:10:09;1.027;-0.011;0.082;0.04886921867728233;-0.03420845419168472;-0.015882495790719986
01:00:0A:00:00:00:00;1725149410;01/09/24;00:10:10;1.028;-0.014;0.085;0.04398229718208313;-0.024434609338641167;0.0
01:00:0A:00:00:00:00;1725149411;01/09/24;00:10:11;1.025;-0.014;0.087;0.04153883829712868;-0.010995574295520782;0.0073303827084600925
01:00:0A:00:00:00:00;1725149412;01/09/24;00:10:12;1.015;-0.014;0.093;0.04153883829712868;0.0;0.012217304669320583
01:00:0A:00:00:00:00;1725149413;01/09/24;00:10:13;1.006;-0.003;0.086;0.040317103266716;0.0073303827084600925;0.006108652334660292
01:00:0A:00:00:00:00;1725149414;01/09/24;00:10:14;1.004;0.0;0.081;0.036651913076639175;0.010995574295520782;0.012217304669320583
01:00:0A:00:00:00:00;1725149415;01/09/24;00:10:15;1.002;-0.008;0.074;0.036651913076639175;-0.012217304669320583;-0.0024434609804302454
01:00:0A:00:00:00:00;1725149416;01/09/24;00:10:16;1.005;-0.005;0.072;0.036651913076639175;-0.018325956538319588;-0.0073303827084600925
01:00:0A:00:00:00:00;1725149417;01/09/24;00:10:17;1.014;-0.007;0.075;0.03420845419168472;-0.030543262138962746;-0.0036651913542300463
01:00:0A:00:00:00:00;1725149418;01/09/24;00:10:18;1.017;-0.01;0.077;0.03420845419168472;-0.042760565876960754;0.0024434609804302454
01:00:0A:00:00:00:00;1725149419;01/09/24;00:10:19;1.024;-0.012;0.085;0.0354301817715168;-0.02321287989616394;0.0024434609804302454
01:00:0A:00:00:00:00;1725149420;01/09/24;00:10:20;1.022;-0.009;0.089;0.03420845419168472;-0.014660765416920185;0.0012217304902151227
01:00:0A:00:00:00:00;1725149421;01/09/24;00:10:21;1.019;-0.013;0.088;0.03298672288656235;-0.0073303827084600925;0.0036651913542300463
01:00:0A:00:00:00:00;1725149422;01/09/24;00:10:22;1.016;-0.013;0.084;0.03298672288656235;0.0;0.0036651913542300463
01:00:0A:00:00:00:00;1725149423;01/09/24;00:10:23;1.02;-0.011;0.081;0.030543262138962746;0.006108652334660292;0.014660765416920185
01:00:0A:00:00:00:00;1725149424;01/09/24;00:10:24;1.019;-0.007;0.084;0.028099799528717995;0.0;0.025656338781118393
01:00:0A:00:00:00:00;1725149425;01/09/24;00:10:25;1.017;-0.007;0.077;0.028099799528717995;-0.0036651913542300463;0.02076941914856434
01:00:0A:00:00:00:00;1725149426;01/09/24;00:10:26;1.005;-0.003;0.08;0.02687807008624077;0.0;0.006108652334660292
01:00:0A:00:00:00:00;1725149427;01/09/24;00:10:27;0.997;-0.008;0.079;0.028099799528717995;-0.012217304669320583;-0.0024434609804302454
01:00:0A:00:00:00:00;1725149428;01/09/24;00:10:28;1.001;-0.009;0.073;0.02932153083384037;-0.02932153083384037;-0.010995574295520782
01:00:0A:00:00:00:00;1725149429;01/09/24;00:10:29;1.014;-0.012;0.078;0.02687807008624077;-0.02687807008624077;0.0012217304902151227
01:00:0A:00:00:00:00;1725149430;01/09/24;00:10:30;1.033;-0.018;0.087;0.025656338781118393;-0.042760565876960754;0.0012217304902151227
01:00:0A:00:00:00:00;1725149431;01/09/24;00:10:31;1.036;-0.01;0.085;0.025656338781118393;-0.01710422709584236;0.006108652334660292
01:00:0A:00:00:00:00;1725149432;01/09/24;00:10:32;1.024;-0.01;0.094;0.025656338781118393;0.015882495790719986;0.015882495790719986
01:00:0A:00:00:00:00;1725149433;01/09/24;00:10:33;1.005;-0.008;0.083;0.028099799528717995;0.0073303827084600925;0.0024434609804302454
01:00:0A:00:00:00:00;1725149434;01/09/24;00:10:34;0.998;-0.004;0.074;0.028099799528717995;0.0024434609804302454;-0.0012217304902151227
01:00:0A:00:00:00:00;1725149435;01/09/24;00:10:35;0.999;-0.009;0.07;0.02687807008624077;-0.00855211354792118;0.012217304669320583
01:00:0A:00:00:00:00;1725149436;01/09/24;00:10:36;1.008;-0.013;0.077;0.02932153083384037;-0.028099799528717995;0.0
01:00:0A:00:00:00:00;1725149437;01/09/24;00:10:37;1.024;-0.004;0.078;0.02932153083384037;-0.028099799528717995;-0.006108652334660292
01:00:0A:00:00:00:00;1725149438;01/09/24;00:10:38;1.026;-0.005;0.081;0.02932153083384037;-0.018325956538319588;-0.0012217304902151227
01:00:0A:00:00:00:00;1725149439;01/09/24;00:10:39;1.018;-0.013;0.084;0.03176499158143997;-0.014660765416920185;-0.009773843921720982
01:00:0A:00:00:00:00;1725149440;01/09/24;00:10:40;1.012;-0.012;0.081;0.03176499158143997;-0.021991148591041565;-0.013439035043120384
01:00:0A:00:00:00:00;1725149441;01/09/24;00:10:41;1.007;-0.018;0.085;0.02932153083384037;-0.006108652334660292;0.010995574295520782
01:00:0A:00:00:00:00;1725149442;01/09/24;00:10:42;1.013;-0.017;0.089;0.028099799528717995;-0.00855211354792118;0.018325956538319588
01:00:0A:00:00:00:00;1725149443;01/09/24;00:10:43;1.018;-0.008;0.081;0.02932153083384037;-0.0073303827084600925;0.024434609338641167
01:00:0A:00:00:00:00;1725149444;01/09/24;00:10:44;1.024;-0.003;0.081;0.030543262138962746;0.012217304669320583;0.02076941914856434
01:00:0A:00:00:00:00;1725149445;01/09/24;00:10:45;1.02;-0.004;0.085;0.03298672288656235;0.0024434609804302454;0.0036651913542300463
01:00:0A:00:00:00:00;1725149446;01/09/24;00:10:46;1.009;-0.006;0.071;0.036651913076639175;-0.010995574295520782;-0.013439035043120384
01:00:0A:00:00:00:00;1725149447;01/09/24;00:10:47;1.004;-0.016;0.073;0.036651913076639175;0.0024434609804302454;0.0
01:00:0A:00:00:00:00;1725149448;01/09/24;00:10:48;1.003;-0.018;0.079;0.036651913076639175;-0.036651913076639175;0.004886921960860491
01:00:0A:00:00:00:00;1725149449;01/09/24;00:10:49;1.016;-0.013;0.081;0.039095375686883926;-0.030543262138962746;0.0012217304902151227
01:00:0A:00:00:00:00;1725149450;01/09/24;00:10:50;1.021;-0.014;0.087;0.039095375686883926;-0.012217304669320583;0.009773843921720982
01:00:0A:00:00:00:00;1725149451;01/09/24;00:10:51;1.025;-0.013;0.091;0.039095375686883926;-0.009773843921720982;0.013439035043120384
01:00:0A:00:00:00:00;1725149452;01/09/24;00:10:52;1.022;-0.012;0.08;0.040317103266716;-0.0024434609804302454;0.012217304669320583
01:00:0A:00:00:00:00;1725149453;01/09/24;00:10:53;1.016;-0.007;0.083;0.03787364438176155;0.0073303827084600925;0.01710422709584236
01:00:0A:00:00:00:00;1725149454;01/09/24;00:10:54;1.013;-0.006;0.08;0.03420845419168472;-0.009773843921720982;0.02076941914856434
01:00:0A:00:00:00:00;1725149455;01/09/24;00:10:55;1.008;-0.003;0.072;0.0354301817715168;-0.015882495790719986;0.0036651913542300463
01:00:0A:00:00:00:00;1725149456;01/09/24;00:10:56;1.009;-0.002;0.079;0.036651913076639175;-0.004886921960860491;-0.006108652334660292
01:00:0A:00:00:00:00;1725149457;01/09/24;00:10:57;1.013;-0.007;0.085;0.03298672288656235;-0.024434609338641167;-0.015882495790719986
01:00:0A:00:00:00:00;1725149458;01/09/24;00:10:58;1.016;-0.019;0.082;0.03298672288656235;-0.014660765416920185;-0.004886921960860491
01:00:0A:00:00:00:00;1725149459;01/09/24;00:10:59;1.018;-0.017;0.086;0.03176499158143997;0.004886921960860491;0.004886921960860491
01:00:0A:00:00:00:00;1725149460;01/09/24;00:11:00;1.016;-0.01;0.085;0.02687807008624077;-0.00855211354792118;0.021991148591041565
01:00:0A:00:00:00:00;1725149461;01/09/24;00:11:01;1.014;-0.009;0.076;0.02687807008624077;-0.010995574295520782;0.019547687843441963
01:00:0A:00:00:00:00;1725149462;01/09/24;00:11:02;1.01;-0.003;0.077;0.030543262138962746;-0.0012217304902151227;0.0036651913542300463
01:00:0A:00:00:00:00;1725149463;01/09/24;00:11:03;1.012;-0.007;0.08;0.02687807008624077;-0.019547687843441963;0.0036651913542300463
01:00:0A:00:00:00:00;1725149464;01/09/24;00:11:04;1.016;-0.01;0.076;0.028099799528717995;-0.02076941914856434;0.0
01:00:0A:00:00:00:00;1725149465;01/09/24;00:11:05;1.019;-0.007;0.084;0.02932153083384037;-0.00855211354792118;-0.0024434609804302454
01:00:0A:00:00:00:00;1725149466;01/09/24;00:11:06;1.02;-0.008;0.089;0.025656338781118393;-0.013439035043120384;0.006108652334660292
01:00:0A:00:00:00:00;1725149467;01/09/24;00:11:07;1.019;-0.012;0.08;0.02687807008624077;-0.004886921960860491;0.0036651913542300463
01:00:0A:00:00:00:00;1725149468;01/09/24;00:11:08;1.018;-0.007;0.086;0.030543262138962746;0.009773843921720982;-0.0024434609804302454
01:00:0A:00:00:00:00;1725149469;01/09/24;00:11:09;1.012;-0.012;0.088;0.025656338781118393;-0.0024434609804302454;0.006108652334660292
01:00:0A:00:00:00:00;1725149470;01/09/24;00:11:10;1.009;-0.014;0.079;0.028099799528717995;-0.006108652334660292;0.0073303827084600925
01:00:0A:00:00:00:00;1725149471;01/09/24;00:11:11;1.0;-0.01;0.077;0.030543262138962746;-0.009773843921720982;0.0
01:00:0A:00:00:00:00;1725149472;01/09/24;00:11:12;0.998;-0.009;0.081;0.024434609338641167;-0.0354301817715168;0.010995574295520782
01:00:0A:00:00:00:00;1725149483;01/09/24;00:11:23;1.019;-0.008;0.084;0.02932153083384037;-0.009773843921720982;-0.0012217304902151227
01:00:0A:00:00:00:00;1725149484;01/09/24;00:11:24;1.018;-0.007;0.089;0.02076941914856434;-0.009773843921720982;0.014660765416920185
01:00:0A:00:00:00:00;1725149485;01/09/24;00:11:25;1.018;-0.015;0.08;0.02321287989616394;-0.0012217304902151227;0.015882495790719986
01:00:0A:00:00:00:00;1725149486;01/09/24;00:11:26;1.02;-0.006;0.081;0.02687807008624077;0.015882495790719986;0.0012217304902151227
01:00:0A:00:00:00:00;1725149487;01/09/24;00:11:27;1.016;-0.003;0.077;0.018325956538319588;-0.0036651913542300463;0.00855211354792118
01:00:0A:00:00:00:00;1725149488;01/09/24;00:11:28;1.014;-0.013;0.069;0.021991148591041565;-0.018325956538319588;-0.0024434609804302454
01:00:0A:00:00:00:00;1725149489;01/09/24;00:11:29;1.011;-0.009;0.08;0.025656338781118393;-0.018325956538319588;-0.013439035043120384
01:00:0A:00:00:00:00;1725149490;01/09/24;00:11:30;1.008;-0.008;0.086;0.015882495790719986;-0.030543262138962746;0.0073303827084600925
01:00:0A:00:00:00:00;1725149491;01/09/24;00:11:31;1.01;-0.017;0.085;0.01710422709584236;-0.013439035043120384;0.0036651913542300463
01:00:0A:00:00:00:00;1725149492;01/09/24;00:11:32;1.012;-0.009;0.089;0.019547687843441963;0.0012217304902151227;0.0012217304902151227
01:00:0A:00:00:00:00;1725149493;01/09/24;00:11:33;1.016;-0.005;0.085;0.012217304669320583;-0.010995574295520782;0.01710422709584236
01:00:0A:00:00:00:00;1725149494;01/09/24;00:11:34;1.021;-0.013;0.074;0.014660765416920185;-0.014660765416920185;0.0012217304902151227
01:00:0A:00:00:00:00;1725149495;01/09/24;00:11:35;1.021;-0.006;0.081;0.01710422709584236;-0.009773843921720982;-0.009773843921720982
01:00:0A:00:00:00:00;1725149496;01/09/24;00:11:36;1.02;-0.008;0.084;0.0073303827084600925;-0.01710422709584236;0.013439035043120384
01:00:0A:00:00:00:00;1725149497;01/09/24;00:11:37;1.016;-0.016;0.079;0.00855211354792118;-0.013439035043120384;0.009773843921720982
01:00:0A:00:00:00:00;1725149498;01/09/24;00:11:38;1.008;-0.007;0.081;0.010995574295520782;-0.0012217304902151227;-0.0024434609804302454
01:00:0A:00:00:00:00;1725149499;01/09/24;00:11:39;1.006;-0.007;0.08;0.0012217304902151227;-0.019547687843441963;0.01710422709584236
01:00:0A:00:00:00:00;1725149500;01/09/24;00:11:40;1.011;-0.01;0.079;0.004886921960860491;-0.025656338781118393;-0.0012217304902151227
01:00:0A:00:00:00:00;1725149501;01/09/24;00:11:41;1.017;-0.005;0.086;0.00855211354792118;-0.018325956538319588;-0.010995574295520782
01:00:0A:00:00:00:00;1725149502;01/09/24;00:11:42;1.022;-0.007;0.09;0.0;-0.009773843921720982;0.009773843921720982
01:00:0A:00:00:00:00;1725149503;01/09/24;00:11:43;1.017;-0.017;0.081;0.0024434609804302454;0.0024434609804302454;0.0073303827084600925
01:00:0A:00:00:00:00;1725149504;01/09/24;00:11:44;1.013;-0.008;0.081;0.004886921960860491;0.00855211354792118;-0.006108652334660292
01:00:0A:00:00:00:00;1725149505;01/09/24;00:11:45;1.009;-0.007;0.076;-0.0024434609804302454;-0.013439035043120384;0.010995574295520782
01:00:0A:00:00:00:00;1725149506;01/09/24;00:11:46;1.011;-0.015;0.073;0.0012217304902151227;-0.018325956538319588;0.0
01:00:0A:00:00:00:00;1725149507;01/09/24;00:11:47;1.017;-0.007;0.081;0.0036651913542300463;-0.01710422709584236;-0.0073303827084600925
01:00:0A:00:00:00:00;1725149508;01/09/24;00:11:48;1.02;-0.008;0.084;-0.0036651913542300463;-0.02687807008624077;0.009773843921720982
01:00:0A:00:00:00:00;1725149509;01/09/24;00:11:49;1.021;-0.015;0.082;-0.0024434609804302454;-0.0073303827084600925;0.0073303827084600925
01:00:0A:00:00:00:00;1725149510;01/09/24;00:11:50;1.016;-0.005;0.086;0.0;0.0012217304902151227;0.0012217304902151227
01:00:0A:00:00:00:00;1725149511;01/09/24;00:11:51;1.011;-0.006;0.082;-0.006108652334660292;-0.009773843921720982;0.010995574295520782
01:00:0A:00:00:00:00;1725149512;01/09/24;00:11:52;1.009;-0.011;0.076;-0.0024434609804302454;-0.0073303827084600925;-0.0036651913542300463
01:00:0A:00:00:00:00;1725149513;01/09/24;00:11:53;1.01;-0.007;0.081;0.0;-0.0073303827084600925;-0.009773843921720982
01:00:0A:00:00:00:00;1725149514;01/09/24;00:11:54;1.013;-0.006;0.082;-0.0073303827084600925;-0.02321287989616394;0.004886921960860491
01:00:0A:00:00:00:00;1725149515;01/09/24;00:11:55;1.016;-0.013;0.078;-0.0036651913542300463;-0.012217304669320583;-0.0036651913542300463
01:00:0A:00:00:00:00;1725149516;01/09/24;00:11:56;1.021;-0.006;0.087;-0.0012217304902151227;-0.004886921960860491;-0.006108652334660292
01:00:0A:00:00:00:00;1725149517;01/09/24;00:11:57;1.024;-0.007;0.086;-0.006108652334660292;-0.012217304669320583;0.006108652334660292
01:00:0A:00:00:00:00;1725149518;01/09/24;00:11:58;1.021;-0.016;0.078;-0.0024434609804302454;0.0;0.0012217304902151227
01:00:0A:00:00:00:00;1725149519;01/09/24;00:11:59;1.015;-0.008;0.086;0.0;0.004886921960860491;-0.0073303827084600925
01:00:0A:00:00:00:00;1725149520;01/09/24;00:12:00;1.007;-0.01;0.081;-0.004886921960860491;-0.014660765416920185;0.009773843921720982
01:00:0A:00:00:00:00;1725149521;01/09/24;00:12:01;1.008;-0.013;0.078;-0.0024434609804302454;-0.01710422709584236;0.0024434609804302454
01:00:0A:00:00:00:00;1725149522;01/09/24;00:12:02;1.011;-0.009;0.082;0.0;-0.014660765416920185;0.0
01:00:0A:00:00:00:00;1725149523;01/09/24;00:12:03;1.018;-0.008;0.086;-0.004886921960860491;-0.024434609338641167;0.00855211354792118
01:00:0A:00:00:00:00;1725149524;01/09/24;00:12:04;1.023;-0.012;0.081;-0.0012217304902151227;-0.013439035043120384;0.0012217304902151227
01:00:0A:00:00:00:00;1725149525;01/09/24;00:12:05;1.022;-0.009;0.088;0.0;0.004886921960860491;-0.0036651913542300463
01:00:0A:00:00:00:00;1725149526;01/09/24;00:12:06;1.016;-0.009;0.085;-0.004886921960860491;-0.0024434609804302454;0.010995574295520782
01:00:0A:00:00:00:00;1725149526;01/09/24;00:12:06;1.006;-0.012;0.077;-0.0012217304902151227;-0.0012217304902151227;0.0024434609804302454
01:00:0A:00:00:00:00;1725149527;01/09/24;00:12:07;1.003;-0.008;0.08;0.0012217304902151227;-0.0036651913542300463;-0.0073303827084600925
01:00:0A:00:00:00:00;1725149528;01/09/24;00:12:08;1.006;-0.009;0.082;-0.004886921960860491;-0.02932153083384037;0.0024434609804302454
01:00:0A:00:00:00:00;1725149529;01/09/24;00:12:09;1.016;-0.012;0.081;-0.0024434609804302454;-0.021991148591041565;0.0
01:00:0A:00:00:00:00;1725149530;01/09/24;00:12:10;1.02;-0.007;0.086;-0.0012217304902151227;-0.013439035043120384;0.0
01:00:0A:00:00:00:00;1725149531;01/09/24;00:12:11;1.021;-0.009;0.088;-0.004886921960860491;-0.009773843921720982;0.00855211354792118
01:00:0A:00:00:00:00;1725149532;01/09/24;00:12:12;1.02;-0.01;0.08;-0.0036651913542300463;-0.0073303827084600925;0.00855211354792118
01:00:0A:00:00:00:00;1725149533;01/09/24;00:12:13;1.016;-0.006;0.082;-0.0012217304902151227;0.0;-0.0024434609804302454
01:00:0A:00:00:00:00;1725149534;01/09/24;00:12:14;1.015;-0.008;0.082;-0.004886921960860491;-0.014660765416920185;0.0036651913542300463
01:00:0A:00:00:00:00;1725149535;01/09/24;00:12:15;1.013;-0.01;0.08;-0.0024434609804302454;-0.0073303827084600925;-0.004886921960860491
01:00:0A:00:00:00:00;1725149536;01/09/24;00:12:16;1.012;-0.009;0.083;-0.0012217304902151227;0.0;-0.0024434609804302454
01:00:0A:00:00:00:00;1725149537;01/09/24;00:12:17;1.01;-0.009;0.081;-0.006108652334660292;-0.013439035043120384;0.009773843921720982
01:00:0A:00:00:00:00;1725149538;01/09/24;00:12:18;1.011;-0.011;0.076;-0.004886921960860491;-0.01710422709584236;0.0024434609804302454
01:00:0A:00:00:00:00;1725149539;01/09/24;00:12:19;1.013;-0.005;0.081;-0.0024434609804302454;-0.015882495790719986;-0.0036651913542300463
01:00:0A:00:00:00:00;1725149540;01/09/24;00:12:20;1.02;-0.008;0.087;-0.006108652334660292;-0.024434609338641167;0.0012217304902151227
01:00:0A:00:00:00:00;1725149541;01/09/24;00:12:21;1.025;-0.014;0.082;-0.004886921960860491;-0.010995574295520782;0.0036651913542300463
01:00:0A:00:00:00:00;1725149542;01/09/24;00:12:22;1.019;-0.01;0.089;-0.0036651913542300463;0.004886921960860491;0.0012217304902151227
01:00:0A:00:00:00:00;1725149543;01/09/24;00:12:23;1.012;-0.009;0.083;-0.0073303827084600925;-0.0012217304902151227;0.013439035043120384
01:00:0A:00:00:00:00;1725149544;01/09/24;00:12:24;1.002;-0.008;0.076;-0.006108652334660292;-0.009773843921720982;0.006108652334660292
01:00:0A:00:00:00:00;1725149545;01/09/24;00:12:25;1.004;-0.005;0.08;-0.004886921960860491;-0.021991148591041565;-0.0036651913542300463
01:00:0A:00:00:00:00;1725149546;01/09/24;00:12:26;1.014;-0.005;0.084;-0.0073303827084600925;-0.03298672288656235;-0.006108652334660292
01:00:0A:00:00:00:00;1725149547;01/09/24;00:12:27;1.029;-0.013;0.086;-0.004886921960860491;-0.010995574295520782;-0.0073303827084600925
01:00:0A:00:00:00:00;1725149548;01/09/24;00:12:28;1.029;-0.013;0.089;-0.006108652334660292;-0.0012217304902151227;-0.0024434609804302454
01:00:0A:00:00:00:00;1725149549;01/09/24;00:12:29;1.019;-0.012;0.084;-0.010995574295520782;-0.0024434609804302454;0.013439035043120384
01:00:0A:00:00:00:00;1725149550;01/09/24;00:12:30;1.01;-0.012;0.078;-0.00855211354792118;-0.0036651913542300463;0.009773843921720982
01:00:0A:00:00:00:00;1725149551;01/09/24;00:12:31;1.002;-0.005;0.08;-0.0073303827084600925;-0.00855211354792118;0.0024434609804302454
01:00:0A:00:00:00:00;1725149552;01/09/24;00:12:32;1.005;-0.008;0.081;-0.010995574295520782;-0.025656338781118393;0.006108652334660292
01:00:0A:00:00:00:00;1725149553;01/09/24;00:12:33;1.014;-0.014;0.08;-0.0073303827084600925;-0.02321287989616394;-0.0012217304902151227
01:00:0A:00:00:00:00;1725149554;01/09/24;00:12:34;1.018;-0.01;0.084;-0.006108652334660292;-0.01710422709584236;-0.0012217304902151227
01:00:0A:00:00:00:00;1725149555;01/09/24;00:12:35;1.022;-0.009;0.087;-0.009773843921720982;-0.014660765416920185;0.012217304669320583
01:00:0A:00:00:00:00;1725149556;01/09/24;00:12:36;1.019;-0.008;0.081;-0.0073303827084600925;-0.004886921960860491;0.009773843921720982
01:00:0A:00:00:00:00;1725149557;01/09/24;00:12:37;1.015;-0.006;0.082;-0.004886921960860491;-0.0012217304902151227;0.0012217304902151227
01:00:0A:00:00:00:00;1725149558;01/09/24;00:12:38;1.013;-0.009;0.083;-0.0073303827084600925;-0.012217304669320583;-0.0012217304902151227
01:00:0A:00:00:00:00;1725149559;01/09/24;00:12:39;1.013;-0.013;0.078;-0.004886921960860491;-0.012217304669320583;-0.0073303827084600925
01:00:0A:00:00:00:00;1725149560;01/09/24;00:12:40;1.014;-0.014;0.083;-0.004886921960860491;-0.00855211354792118;0.0012217304902151227
01:00:0A:00:00:00:00;1725149561;01/09/24;00:12:41;1.013;-0.013;0.084;-0.0073303827084600925;-0.01710422709584236;0.013439035043120384
01:00:0A:00:00:00:00;1725149562;01/09/24;00:12:42;1.014;-0.011;0.081;-0.006108652334660292;-0.009773843921720982;0.013439035043120384
01:00:0A:00:00:00:00;1725149563;01/09/24;00:12:43;1.013;-0.006;0.083;-0.004886921960860491;-0.0012217304902151227;0.00855211354792118
01:00:0A:00:00:00:00;1725149564;01/09/24;00:12:44;1.013;-0.005;0.081;-0.006108652334660292;-0.014660765416920185;0.0012217304902151227
01:00:0A:00:00:00:00;1725149565;01/09/24;00:12:45;1.016;-0.007;0.078;-0.0036651913542300463;-0.015882495790719986;-0.006108652334660292
01:00:0A:00:00:00:00;1725149566;01/09/24;00:12:46;1.017;-0.009;0.083;-0.0024434609804302454;-0.010995574295520782;-0.006108652334660292
01:00:0A:00:00:00:00;1725149567;01/09/24;00:12:47;1.018;-0.01;0.084;-0.006108652334660292;-0.014660765416920185;0.0024434609804302454
01:00:0A:00:00:00:00;1725149568;01/09/24;00:12:48;1.017;-0.01;0.08;-0.004886921960860491;-0.010995574295520782;0.0024434609804302454
01:00:0A:00:00:00:00;1725149569;01/09/24;00:12:49;1.015;-0.01;0.083;-0.0036651913542300463;-0.0073303827084600925;0.006108652334660292
01:00:0A:00:00:00:00;1725149570;01/09/24;00:12:50;1.015;-0.01;0.083;-0.004886921960860491;-0.018325956538319588;0.0073303827084600925
01:00:0A:00:00:00:00;1725149571;01/09/24;00:12:51;1.013;-0.01;0.081;-0.0036651913542300463;-0.010995574295520782;0.004886921960860491
01:00:0A:00:00:00:00;1725149572;01/09/24;00:12:52;1.013;-0.008;0.085;-0.0024434609804302454;-0.006108652334660292;0.006108652334660292
01:00:0A:00:00:00:00;1725149573;01/09/24;00:12:53;1.014;-0.008;0.084;-0.0036651913542300463;-0.013439035043120384;0.0073303827084600925
01:00:0A:00:00:00:00;1725149574;01/09/24;00:12:54;1.013;-0.008;0.077;-0.0024434609804302454;-0.00855211354792118;0.0
01:00:0A:00:00:00:00;1725149575;01/09/24;00:12:55;1.013;-0.008;0.082;-0.0012217304902151227;-0.0024434609804302454;-0.0024434609804302454
01:00:0A:00:00:00:00;1725149576;01/09/24;00:12:56;1.014;-0.009;0.081;-0.0024434609804302454;-0.019547687843441963;-0.0036651913542300463
01:00:0A:00:00:00:00;1725149577;01/09/24;00:12:57;1.015;-0.01;0.078;-0.0012217304902151227;-0.01710422709584236;-0.004886921960860491
01:00:0A:00:00:00:00;1725149578;01/09/24;00:12:58;1.019;-0.01;0.085;-0.0012217304902151227;-0.010995574295520782;0.0024434609804302454
01:00:0A:00:00:00:00;1725149579;01/09/24;00:12:59;1.019;-0.011;0.084;-0.0024434609804302454;-0.015882495790719986;0.0036651913542300463
01:00:0A:00:00:00:00;1725149580;01/09/24;00:13:00;1.017;-0.009;0.081;-0.0024434609804302454;-0.0073303827084600925;0.0073303827084600925
01:00:0A:00:00:00:00;1725149581;01/09/24;00:13:01;1.015;-0.009;0.083;-0.0012217304902151227;-0.006108652334660292;0.004886921960860491
01:00:0A:00:00:00:00;1725149582;01/09/24;00:13:02;1.013;-0.01;0.083;-0.0024434609804302454;-0.012217304669320583;0.004886921960860491
01:00:0A:00:00:00:00;1725149583;01/09/24;00:13:03;1.011;-0.008;0.079;-0.0012217304902151227;-0.006108652334660292;0.004886921960860491
01:00:0A:00:00:00:00;1725149584;01/09/24;00:13:04;1.011;-0.008;0.081;-0.0012217304902151227;-0.006108652334660292;0.004886921960860491
01:00:0A:00:00:00:00;1725149585;01/09/24;00:13:05;1.013;-0.008;0.081;-0.0024434609804302454;-0.015882495790719986;-0.0012217304902151227
01:00:0A:00:00:00:00;1725149586;01/09/24;00:13:06;1.013;-0.008;0.079;-0.0012217304902151227;-0.012217304669320583;-0.006108652334660292
01:00:0A:00:00:00:00;1725149587;01/09/24;00:13:07;1.014;-0.009;0.084;-0.0012217304902151227;-0.00855211354792118;-0.0024434609804302454
01:00:0A:00:00:00:00;1725149588;01/09/24;00:13:08;1.016;-0.011;0.082;-0.0036651913542300463;-0.021991148591041565;-0.0012217304902151227
01:00:0A:00:00:00:00;1725149589;01/09/24;00:13:09;1.02;-0.01;0.08;-0.0036651913542300463;-0.012217304669320583;0.006108652334660292
01:00:0A:00:00:00:00;1725149590;01/09/24;00:13:10;1.022;-0.01;0.087;-0.0036651913542300463;-0.0036651913542300463;0.010995574295520782
01:00:0A:00:00:00:00;1725149591;01/09/24;00:13:11;1.02;-0.008;0.084;-0.0036651913542300463;-0.004886921960860491;0.009773843921720982
01:00:0A:00:00:00:00;1725149592;01/09/24;00:13:12;1.013;-0.007;0.081;-0.0024434609804302454;-0.0036651913542300463;0.0024434609804302454
01:00:0A:00:00:00:00;1725149593;01/09/24;00:13:13;1.008;-0.007;0.081;-0.0024434609804302454;-0.0024434609804302454;0.0036651913542300463
01:00:0A:00:00:00:00;1725149594;01/09/24;00:13:14;1.005;-0.01;0.082;-0.0036651913542300463;-0.02076941914856434;-0.0012217304902151227
01:00:0A:00:00:00:00;1725149595;01/09/24;00:13:15;1.007;-0.01;0.079;-0.0024434609804302454;-0.018325956538319588;-0.0012217304902151227
01:00:0A:00:00:00:00;1725149596;01/09/24;00:13:16;1.016;-0.009;0.084;-0.0024434609804302454;-0.01710422709584236;0.0012217304902151227
01:00:0A:00:00:00:00;1725149597;01/09/24;00:13:17;1.021;-0.011;0.084;-0.0036651913542300463;-0.015882495790719986;0.0024434609804302454
01:00:0A:00:00:00:00;1725149598;01/09/24;00:13:18;1.022;-0.009;0.082;-0.0024434609804302454;-0.004886921960860491;0.0024434609804302454
01:00:0A:00:00:00:00;1725149599;01/09/24;00:13:19;1.016;-0.01;0.084;-0.0036651913542300463;0.0012217304902151227;0.006108652334660292
01:00:0A:00:00:00:00;1725149600;01/09/24;00:13:20;1.011;-0.008;0.08;-0.0036651913542300463;-0.012217304669320583;0.006108652334660292
01:00:0A:00:00:00:00;1725149601;01/09/24;00:13:21;1.013;-0.008;0.078;-0.0036651913542300463;-0.014660765416920185;0.0012217304902151227
01:00:0A:00:00:00:00;1725149602;01/09/24;00:13:22;1.016;-0.01;0.082;-0.0036651913542300463;-0.010995574295520782;0.0024434609804302454
01:00:0A:00:00:00:00;1725149603;01/09/24;00:13:23;1.018;-0.011;0.083;-0.0036651913542300463;-0.014660765416920185;0.0
01:00:0A:00:00:00:00;1725149604;01/09/24;00:13:24;1.017;-0.009;0.079;-0.0036651913542300463;-0.00855211354792118;0.0024434609804302454
01:00:0A:00:00:00:00;1725149605;01/09/24;00:13:25;1.011;-0.008;0.081;-0.0036651913542300463;-0.006108652334660292;0.004886921960860491
01:00:0A:00:00:00:00;1725149606;01/09/24;00:13:26;1.007;-0.008;0.081;-0.004886921960860491;-0.014660765416920185;0.0024434609804302454
01:00:0A:00:00:00:00;1725149607;01/09/24;00:13:27;1.009;-0.006;0.079;-0.0036651913542300463;-0.014660765416920185;-0.0012217304902151227
01:00:0A:00:00:00:00;1725149608;01/09/24;00:13:28;1.018;-0.009;0.082;-0.0036651913542300463;-0.012217304669320583;-0.0036651913542300463
01:00:0A:00:00:00:00;1725149609;01/09/24;00:13:29;1.023;-0.011;0.084;-0.004886921960860491;-0.013439035043120384;-0.0012217304902151227
01:00:0A:00:00:00:00;1725149610;01/09/24;00:13:30;1.023;-0.011;0.081;-0.006108652334660292;-0.006108652334660292;0.006108652334660292
01:00:0A:00:00:00:00;1725149611;01/09/24;00:13:31;1.016;-0.01;0.082;-0.006108652334660292;-0.0036651913542300463;0.00855211354792118
01:00:0A:00:00:00:00;1725149612;01/09/24;00:13:32;1.01;-0.01;0.081;-0.0073303827084600925;-0.013439035043120384;0.0073303827084600925
01:00:0A:00:00:00:00;1725149613;01/09/24;00:13:33;1.007;-0.007;0.079;-0.006108652334660292;-0.012217304669320583;0.0024434609804302454
01:00:0A:00:00:00:00;1725149614;01/09/24;00:13:34;1.01;-0.009;0.082;-0.006108652334660292;-0.00855211354792118;0.0
01:00:0A:00:00:00:00;1725149615;01/09/24;00:13:35;1.013;-0.009;0.083;-0.0073303827084600925;-0.015882495790719986;-0.0012217304902151227
01:00:0A:00:00:00:00;1725149616;01/09/24;00:13:36;1.016;-0.009;0.08;-0.006108652334660292;-0.009773843921720982;0.0024434609804302454
01:00:0A:00:00:00:00;1725149617;01/09/24;00:13:37;1.016;-0.008;0.082;-0.0073303827084600925;-0.0073303827084600925;0.00855211354792118
01:00:0A:00:00:00:00;1725149618;01/09/24;00:13:38;1.016;-0.008;0.082;-0.0073303827084600925;-0.012217304669320583;0.0024434609804302454
01:00:0A:00:00:00:00;1725149619;01/09/24;00:13:39;1.016;-0.008;0.079;-0.006108652334660292;-0.010995574295520782;0.0
01:00:0A:00:00:00:00;1725149620;01/09/24;00:13:40;1.017;-0.008;0.082;-0.006108652334660292;-0.006108652334660292;0.0
01:00:0A:00:00:00:00;1725149621;01/09/24;00:13:41;1.016;-0.011;0.082;-0.006108652334660292;-0.013439035043120384;0.0012217304902151227
01:00:0A:00:00:00:00;1725149622;01/09/24;00:13:42;1.015;-0.01;0.08;-0.0073303827084600925;-0.010995574295520782;0.006108652334660292
01:00:0A:00:00:00:00;1725149623;01/09/24;00:13:43;1.011;-0.01;0.083;-0.0073303827084600925;-0.006108652334660292;0.010995574295520782
01:00:0A:00:00:00:00;1725149624;01/09/24;00:13:44;1.011;-0.008;0.081;-0.00855211354792118;-0.014660765416920185;0.006108652334660292
01:00:0A:00:00:00:00;1725149625;01/09/24;00:13:45;1.011;-0.005;0.079;-0.0073303827084600925;-0.009773843921720982;0.0
01:00:0A:00:00:00:00;1725149626;01/09/24;00:13:46;1.014;-0.007;0.082;-0.0073303827084600925;-0.010995574295520782;0.0012217304902151227
01:00:0A:00:00:00:00;1725149627;01/09/24;00:13:47;1.019;-0.009;0.082;-0.0073303827084600925;-0.018325956538319588;-0.0024434609804302454
01:00:0A:00:00:00:00;1725149628;01/09/24;00:13:48;1.021;-0.008;0.08;-0.0073303827084600925;-0.012217304669320583;0.0
01:00:0A:00:00:00:00;1725149629;01/09/24;00:13:49;1.018;-0.009;0.083;-0.0073303827084600925;-0.00855211354792118;0.0036651913542300463
01:00:0A:00:00:00:00;1725149630;01/09/24;00:13:50;1.016;-0.009;0.084;-0.0073303827084600925;-0.013439035043120384;0.0024434609804302454
01:00:0A:00:00:00:00;1725149631;01/09/24;00:13:51;1.014;-0.008;0.08;-0.006108652334660292;-0.006108652334660292;0.0024434609804302454
01:00:0A:00:00:00:00;1725149632;01/09/24;00:13:52;1.011;-0.009;0.081;-0.0073303827084600925;-0.006108652334660292;0.0073303827084600925
01:00:0A:00:00:00:00;1725149633;01/09/24;00:13:53;1.011;-0.01;0.081;-0.0073303827084600925;-0.015882495790719986;0.0036651913542300463
01:00:0A:00:00:00:00;1725149634;01/09/24;00:13:54;1.014;-0.009;0.079;-0.006108652334660292;-0.012217304669320583;0.0036651913542300463
01:00:0A:00:00:00:00;1725149635;01/09/24;00:13:55;1.015;-0.008;0.083;-0.006108652334660292;-0.00855211354792118;0.0036651913542300463
01:00:0A:00:00:00:00;1725149636;01/09/24;00:13:56;1.016;-0.009;0.081;-0.004886921960860491;-0.018325956538319588;-0.0024434609804302454
01:00:0A:00:00:00:00;1725149637;01/09/24;00:13:57;1.018;-0.008;0.08;-0.004886921960860491;-0.013439035043120384;-0.0012217304902151227
01:00:0A:00:00:00:00;1725149638;01/09/24;00:13:58;1.016;-0.01;0.081;-0.004886921960860491;-0.009773843921720982;0.0
01:00:0A:00:00:00:00;1725149639;01/09/24;00:13:59;1.014;-0.011;0.082;-0.004886921960860491;-0.01710422709584236;0.0012217304902151227
01:00:0A:00:00:00:00;1725149640;01/09/24;00:14:00;1.013;-0.009;0.079;-0.004886921960860491;-0.009773843921720982;0.004886921960860491
01:00:0A:00:00:00:00;1725149641;01/09/24;00:14:01;1.013;-0.01;0.083;-0.004886921960860491;-0.006108652334660292;0.006108652334660292
01:00:0A:00:00:00:00;1725149642;01/09/24;00:14:02;1.013;-0.009;0.082;-0.004886921960860491;-0.013439035043120384;0.0012217304902151227
01:00:0A:00:00:00:00;1725149643;01/09/24;00:14:03;1.015;-0.008;0.078;-0.0036651913542300463;-0.009773843921720982;0.0024434609804302454
01:00:0A:00:00:00:00;1725149644;01/09/24;00:14:04;1.016;-0.01;0.082;-0.004886921960860491;-0.00855211354792118;0.004886921960860491
01:00:0A:00:00:00:00;1725149645;01/09/24;00:14:05;1.016;-0.008;0.081;-0.0036651913542300463;-0.01710422709584236;0.0024434609804302454
01:00:0A:00:00:00:00;1725149646;01/09/24;00:14:06;1.015;-0.007;0.081;-0.0036651913542300463;-0.010995574295520782;0.0036651913542300463
01:00:0A:00:00:00:00;1725149647;01/09/24;00:14:07;1.014;-0.009;0.083;-0.0024434609804302454;-0.0073303827084600925;0.0036651913542300463
01:00:0A:00:00:00:00;1725149648;01/09/24;00:14:08;1.014;-0.009;0.081;-0.0012217304902151227;-0.014660765416920185;-0.0036651913542300463
01:00:0A:00:00:00:00;1725149649;01/09/24;00:14:09;1.014;-0.009;0.079;-0.0012217304902151227;-0.00855211354792118;0.0
01:00:0A:00:00:00:00;1725149650;01/09/24;00:14:10;1.014;-0.012;0.082;-0.0024434609804302454;-0.009773843921720982;0.006108652334660292
01:00:0A:00:00:00:00;1725149651;01/09/24;00:14:11;1.016;-0.012;0.081;-0.0012217304902151227;-0.01710422709584236;0.004886921960860491
01:00:0A:00:00:00:00;1725149662;01/09/24;00:14:22;1.012;-0.011;0.081;0.0;-0.009773843921720982;0.006108652334660292
01:00:0A:00:00:00:00;1725149663;01/09/24;00:14:23;1.011;-0.01;0.08;0.0;-0.02076941914856434;0.0024434609804302454
01:00:0A:00:00:00:00;1725149664;01/09/24;00:14:24;1.013;-0.006;0.08;0.0;-0.013439035043120384;0.0036651913542300463
01:00:0A:00:00:00:00;1725149665;01/09/24;00:14:25;1.013;-0.009;0.085;0.0;-0.012217304669320583;0.0024434609804302454
01:00:0A:00:00:00:00;1725149666;01/09/24;00:14:26;1.017;-0.01;0.084;0.0;-0.015882495790719986;-0.0036651913542300463
01:00:0A:00:00:00:00;1725149667;01/09/24;00:14:27;1.017;-0.008;0.08;0.0;-0.006108652334660292;0.0024434609804302454
01:00:0A:00:00:00:00;1725149668;01/09/24;00:14:28;1.018;-0.012;0.083;-0.0012217304902151227;-0.004886921960860491;0.00855211354792118
01:00:0A:00:00:00:00;1725149669;01/09/24;00:14:29;1.017;-0.009;0.079;-0.0012217304902151227;-0.015882495790719986;0.0036651913542300463
01:00:0A:00:00:00:00;1725149670;01/09/24;00:14:30;1.015;-0.008;0.08;-0.0024434609804302454;-0.009773843921720982;0.0073303827084600925
01:00:0A:00:00:00:00;1725149671;01/09/24;00:14:31;1.011;-0.009;0.084;-0.0024434609804302454;-0.00855211354792118;0.006108652334660292
01:00:0A:00:00:00:00;1725149682;01/09/24;00:14:42;1.016;-0.007;0.081;-0.004886921960860491;-0.012217304669320583;0.004886921960860491
01:00:0A:00:00:00:00;1725149683;01/09/24;00:14:43;1.016;-0.011;0.084;-0.0036651913542300463;-0.012217304669320583;0.004886921960860491
01:00:0A:00:00:00:00;1725149684;01/09/24;00:14:44;1.019;-0.009;0.081;-0.0024434609804302454;-0.014660765416920185;-0.0012217304902151227
01:00:0A:00:00:00:00;1725149685;01/09/24;00:14:45;1.018;-0.006;0.08;-0.004886921960860491;-0.004886921960860491;0.004886921960860491
01:00:0A:00:00:00:00;1725149686;01/09/24;00:14:46;1.015;-0.011;0.083;-0.0036651913542300463;-0.004886921960860491;0.006108652334660292
01:00:0A:00:00:00:00;1725149687;01/09/24;00:14:47;1.014;-0.009;0.081;-0.0024434609804302454;-0.013439035043120384;0.0
01:00:0A:00:00:00:00;1725149688;01/09/24;00:14:48;1.011;-0.006;0.079;-0.004886921960860491;-0.0073303827084600925;0.004886921960860491
01:00:0A:00:00:00:00;1725149689;01/09/24;00:14:49;1.011;-0.01;0.083;-0.0036651913542300463;-0.009773843921720982;0.0036651913542300463
01:00:0A:00:00:00:00;1725149690;01/09/24;00:14:50;1.013;-0.009;0.081;-0.0024434609804302454;-0.01710422709584236;-0.0036651913542300463
01:00:0A:00:00:00:00;1725149691;01/09/24;00:14:51;1.016;-0.006;0.079;-0.004886921960860491;-0.010995574295520782;0.0036651913542300463
01:00:0A:00:00:00:00;1725149692;01/09/24;00:14:52;1.019;-0.012;0.084;-0.004886921960860491;-0.009773843921720982;0.004886921960860491
01:00:0A:00:00:00:00;1725149693;01/09/24;00:14:53;1.018;-0.009;0.082;-0.0024434609804302454;-0.015882495790719986;-0.0012217304902151227
01:00:0A:00:00:00:00;1725149694;01/09/24;00:14:54;1.017;-0.007;0.081;-0.004886921960860491;-0.006108652334660292;0.006108652334660292
01:00:0A:00:00:00:00;1725149695;01/09/24;00:14:55;1.015;-0.01;0.083;-0.004886921960860491;-0.004886921960860491;0.006108652334660292
01:00:0A:00:00:00:00;1725149696;01/09/24;00:14:56;1.014;-0.01;0.081;-0.0024434609804302454;-0.012217304669320583;-0.0024434609804302454
01:00:0A:00:00:00:00;1725149697;01/09/24;00:14:57;1.012;-0.007;0.079;-0.0036651913542300463;-0.0073303827084600925;0.006108652334660292
01:00:0A:00:00:00:00;1725149698;01/09/24;00:14:58;1.012;-0.011;0.082;-0.0036651913542300463;-0.012217304669320583;0.004886921960860491
01:00:0A:00:00:00:00;1725149699;01/09/24;00:14:59;1.013;-0.009;0.081;-0.0024434609804302454;-0.019547687843441963;-0.0024434609804302454
01:00:0A:00:00:00:00;1725149700;01/09/24;00:15:00;1.016;-0.005;0.081;-0.0036651913542300463;-0.009773843921720982;0.0036651913542300463
01:00:0A:00:00:00:00;1725149701;01/09/24;00:15:01;1.018;-0.011;0.085;-0.0024434609804302454;-0.00855211354792118;0.0036651913542300463
01:00:0A:00:00:00:00;1725149702;01/09/24;00:15:02;1.017;-0.01;0.081;-0.0012217304902151227;-0.014660765416920185;-0.0036651913542300463
01:00:0A:00:00:00:00;1725149703;01/09/24;00:15:03;1.016;-0.007;0.079;-0.0036651913542300463;-0.0073303827084600925;0.006108652334660292
01:00:0A:00:00:00:00;1725149704;01/09/24;00:15:04;1.013;-0.011;0.083;-0.0036651913542300463;-0.009773843921720982;0.00855211354792118
01:00:0A:00:00:00:00;1725149705;01/09/24;00:15:05;1.013;-0.008;0.08;-0.0012217304902151227;-0.01710422709584236;-0.0012217304902151227
01:00:0A:00:00:00:00;1725149706;01/09/24;00:15:06;1.012;-0.005;0.081;-0.0024434609804302454;-0.00855211354792118;0.004886921960860491
01:00:0A:00:00:00:00;1725149707;01/09/24;00:15:07;1.015;-0.011;0.083;-0.0024434609804302454;-0.00855211354792118;0.0024434609804302454
01:00:0A:00:00:00:00;1725149708;01/09/24;00:15:08;1.016;-0.008;0.081;0.0;-0.015882495790719986;-0.0036651913542300463
01:00:0A:00:00:00:00;1725149709;01/09/24;00:15:09;1.017;-0.008;0.079;-0.0024434609804302454;-0.010995574295520782;0.006108652334660292
01:00:0A:00:00:00:00;1725149710;01/09/24;00:15:10;1.016;-0.012;0.082;-0.0024434609804302454;-0.012217304669320583;0.004886921960860491
01:00:0A:00:00:00:00;1725149711;01/09/24;00:15:11;1.016;-0.008;0.082;-0.0012217304902151227;-0.01710422709584236;-0.0012217304902151227
01:00:0A:00:00:00:00;1725149712;01/09/24;00:15:12;1.014;-0.007;0.081;-0.0024434609804302454;-0.0073303827084600925;0.006108652334660292
01:00:0A:00:00:00:00;1725149713;01/09/24;00:15:13;1.014;-0.012;0.084;-0.0012217304902151227;-0.006108652334660292;0.0036651913542300463
01:00:0A:00:00:00:00;1725149714;01/09/24;00:15:14;1.013;-0.009;0.08;0.0;-0.012217304669320583;-0.0036651913542300463
01:00:0A:00:00:00:00;1725149715;01/09/24;00:15:15;1.014;-0.006;0.078;-0.0024434609804302454;-0.009773843921720982;0.006108652334660292
01:00:0A:00:00:00:00;1725149716;01/09/24;00:15:16;1.015;-0.011;0.084;-0.0024434609804302454;-0.012217304669320583;0.0073303827084600925
01:00:0A:00:00:00:00;1725149717;01/09/24;00:15:17;1.015;-0.009;0.081;0.0;-0.01710422709584236;-0.0036651913542300463
01:00:0A:00:00:00:00;1725149718;01/09/24;00:15:18;1.015;-0.006;0.08;-0.0012217304902151227;-0.00855211354792118;0.004886921960860491
01:00:0A:00:00:00:00;1725149719;01/09/24;00:15:19;1.015;-0.011;0.082;-0.0012217304902151227;-0.0073303827084600925;0.0024434609804302454
01:00:0A:00:00:00:00;1725149720;01/09/24;00:15:20;1.016;-0.009;0.08;0.0012217304902151227;-0.014660765416920185;-0.0036651913542300463
01:00:0A:00:00:00:00;1725149721;01/09/24;00:15:21;1.016;-0.008;0.079;-0.0024434609804302454;-0.009773843921720982;0.0073303827084600925
01:00:0A:00:00:00:00;1725149722;01/09/24;00:15:22;1.014;-0.011;0.083;-0.0012217304902151227;-0.012217304669320583;0.006108652334660292
01:00:0A:00:00:00:00;1725149723;01/09/24;00:15:23;1.013;-0.008;0.081;0.0012217304902151227;-0.01710422709584236;-0.0024434609804302454
01:00:0A:00:00:00:00;1725149724;01/09/24;00:15:24;1.013;-0.007;0.081;-0.0024434609804302454;-0.009773843921720982;0.006108652334660292
01:00:0A:00:00:00:00;1725149725;01/09/24;00:15:25;1.015;-0.011;0.082;-0.0012217304902151227;-0.00855211354792118;0.0036651913542300463
01:00:0A:00:00:00:00;1725149726;01/09/24;00:15:26;1.017;-0.008;0.081;0.0012217304902151227;-0.015882495790719986;-0.0036651913542300463
01:00:0A:00:00:00:00;1725149727;01/09/24;00:15:27;1.018;-0.008;0.08;-0.0024434609804302454;-0.009773843921720982;0.0073303827084600925
01:00:0A:00:00:00:00;1725149728;01/09/24;00:15:28;1.016;-0.011;0.083;-0.0012217304902151227;-0.009773843921720982;0.006108652334660292
01:00:0A:00:00:00:00;1725149729;01/09/24;00:15:29;1.013;-0.008;0.081;0.0012217304902151227;-0.013439035043120384;-0.0036651913542300463
01:00:0A:00:00:00:00;1725149730;01/09/24;00:15:30;1.012;-0.006;0.081;-0.0012217304902151227;-0.00855211354792118;0.0073303827084600925
01:00:0A:00:00:00:00;1725149731;01/09/24;00:15:31;1.013;-0.011;0.083;-0.0012217304902151227;-0.010995574295520782;0.0036651913542300463
01:00:0A:00:00:00:00;1725149732;01/09/24;00:15:32;1.015;-0.008;0.081;0.0012217304902151227;-0.015882495790719986;-0.0036651913542300463
01:00:0A:00:00:00:00;1725149733;01/09/24;00:15:33;1.016;-0.007;0.081;-0.0012217304902151227;-0.010995574295520782;0.006108652334660292
01:00:0A:00:00:00:00;1725149734;01/09/24;00:15:34;1.016;-0.013;0.083;-0.0012217304902151227;-0.009773843921720982;0.004886921960860491
01:00:0A:00:00:00:00;1725149735;01/09/24;00:15:35;1.016;-0.008;0.082;0.0012217304902151227;-0.013439035043120384;-0.0024434609804302454
01:00:0A:00:00:00:00;1725149736;01/09/24;00:15:36;1.016;-0.006;0.08;-0.0012217304902151227;-0.00855211354792118;0.006108652334660292
01:00:0A:00:00:00:00;1725149737;01/09/24;00:15:37;1.016;-0.012;0.082;0.0;-0.009773843921720982;0.004886921960860491
01:00:0A:00:00:00:00;1725149738;01/09/24;00:15:38;1.015;-0.007;0.081;0.0012217304902151227;-0.013439035043120384;-0.0024434609804302454
01:00:0A:00:00:00:00;1725149739;01/09/24;00:15:39;1.014;-0.007;0.08;-0.0012217304902151227;-0.00855211354792118;0.0073303827084600925
01:00:0A:00:00:00:00;1725149740;01/09/24;00:15:40;1.014;-0.012;0.082;0.0;-0.009773843921720982;0.004886921960860491
01:00:0A:00:00:00:00;1725149741;01/09/24;00:15:41;1.013;-0.008;0.081;0.0024434609804302454;-0.014660765416920185;-0.0036651913542300463
01:00:0A:00:00:00:00;1725149742;01/09/24;00:15:42;1.013;-0.006;0.081;-0.0012217304902151227;-0.010995574295520782;0.0073303827084600925
01:00:0A:00:00:00:00;1725149743;01/09/24;00:15:43;1.016;-0.011;0.082;0.0;-0.010995574295520782;0.004886921960860491
01:00:0A:00:00:00:00;1725149744;01/09/24;00:15:44;1.017;-0.009;0.081;0.0024434609804302454;-0.013439035043120384;-0.0024434609804302454
01:00:0A:00:00:00:00;1725149745;01/09/24;00:15:45;1.016;-0.007;0.081;-0.0012217304902151227;-0.00855211354792118;0.0073303827084600925
01:00:0A:00:00:00:00;1725149746;01/09/24;00:15:46;1.014;-0.012;0.083;0.0012217304902151227;-0.00855211354792118;0.004886921960860491
01:00:0A:00:00:00:00;1725149747;01/09/24;00:15:47;1.013;-0.008;0.081;0.0024434609804302454;-0.013439035043120384;-0.0036651913542300463
01:00:0A:00:00:00:00;1725149748;01/09/24;00:15:48;1.013;-0.008;0.08;0.0;-0.009773843921720982;0.0073303827084600925
01:00:0A:00:00:00:00;1725149749;01/09/24;00:15:49;1.014;-0.012;0.081;0.0012217304902151227;-0.009773843921720982;0.0036651913542300463
01:00:0A:00:00:00:00;1725149750;01/09/24;00:15:50;1.015;-0.007;0.081;0.0024434609804302454;-0.014660765416920185;-0.0036651913542300463
01:00:0A:00:00:00:00;1725149751;01/09/24;00:15:51;1.015;-0.007;0.081;0.0;-0.009773843921720982;0.006108652334660292
01:00:0A:00:00:00:00;1725149752;01/09/24;00:15:52;1.014;-0.012;0.082;0.0;-0.010995574295520782;0.0036651913542300463
01:00:0A:00:00:00:00;1725149753;01/09/24;00:15:53;1.016;-0.009;0.081;0.0024434609804302454;-0.014660765416920185;-0.0036651913542300463
01:00:0A:00:00:00:00;1725149754;01/09/24;00:15:54;1.016;-0.006;0.081;0.0;-0.010995574295520782;0.0073303827084600925
01:00:0A:00:00:00:00;1725149755;01/09/24;00:15:55;1.016;-0.012;0.083;0.0012217304902151227;-0.010995574295520782;0.004886921960860491
01:00:0A:00:00:00:00;1725149756;01/09/24;00:15:56;1.015;-0.008;0.081;0.0024434609804302454;-0.010995574295520782;-0.0024434609804302454
01:00:0A:00:00:00:00;1725149757;01/09/24;00:15:57;1.015;-0.007;0.081;0.0;-0.0073303827084600925;0.0073303827084600925
01:00:0A:00:00:00:00;1725149758;01/09/24;00:15:58;1.012;-0.012;0.081;0.0012217304902151227;-0.010995574295520782;0.0036651913542300463
01:00:0A:00:00:00:00;1725149759;01/09/24;00:15:59;1.011;-0.007;0.08;0.0024434609804302454;-0.015882495790719986;-0.0036651913542300463
01:00:0A:00:00:00:00;1725149760;01/09/24;00:16:00;1.016;-0.007;0.08;0.0;-0.013439035043120384;0.006108652334660292
01:00:0A:00:00:00:00;1725149761;01/09/24;00:16:01;1.017;-0.013;0.083;0.0;-0.010995574295520782;0.004886921960860491
01:00:0A:00:00:00:00;1725149762;01/09/24;00:16:02;1.017;-0.009;0.081;0.0024434609804302454;-0.010995574295520782;-0.0024434609804302454
01:00:0A:00:00:00:00;1725149763;01/09/24;00:16:03;1.016;-0.007;0.081;-0.0012217304902151227;-0.00855211354792118;0.00855211354792118
01:00:0A:00:00:00:00;1725149764;01/09/24;00:16:04;1.014;-0.012;0.081;0.0;-0.009773843921720982;0.004886921960860491
01:00:0A:00:00:00:00;1725149765;01/09/24;00:16:05;1.014;-0.008;0.08;0.0024434609804302454;-0.014660765416920185;-0.0024434609804302454
01:00:0A:00:00:00:00;1725149766;01/09/24;00:16:06;1.015;-0.007;0.081;-0.0012217304902151227;-0.012217304669320583;0.00855211354792118
01:00:0A:00:00:00:00;1725149767;01/09/24;00:16:07;1.015;-0.012;0.083;0.0;-0.010995574295520782;0.0036651913542300463
01:00:0A:00:00:00:00;1725149768;01/09/24;00:16:08;1.015;-0.007;0.082;0.0012217304902151227;-0.010995574295520782;-0.0024434609804302454
01:00:0A:00:00:00:00;1725149769;01/09/24;00:16:09;1.014;-0.007;0.08;-0.0012217304902151227;-0.00855211354792118;0.006108652334660292
01:00:0A:00:00:00:00;1725149770;01/09/24;00:16:10;1.014;-0.012;0.081;-0.0012217304902151227;-0.010995574295520782;0.0036651913542300463
01:00:0A:00:00:00:00;1725149771;01/09/24;00:16:11;1.014;-0.008;0.081;0.0012217304902151227;-0.014660765416920185;-0.0036651913542300463
01:00:0A:00:00:00:00;1725149772;01/09/24;00:16:12;1.016;-0.007;0.081;-0.0024434609804302454;-0.013439035043120384;0.0073303827084600925
01:00:0A:00:00:00:00;1725149773;01/09/24;00:16:13;1.016;-0.011;0.082;-0.0012217304902151227;-0.010995574295520782;0.004886921960860491
