Source;Epoch timestamp (UTC);Date;Time (UTC);Accel X (G);Accel Y (G);Accel Z (G);Gyro X (rad/s);Gyro Y (rad/s);Gyro Z (rad/s)
01:00:0A:00:00:00:00;1724716802;27/08/24;00:00:02;1.014;-0.029;0.081;0.019547687843441963;-0.010995574295520782;0.004886921960860491
01:00:0A:00:00:00:00;1724716803;27/08/24;00:00:03;1.016;-0.029;0.082;0.019547687843441963;-0.010995574295520782;0.004886921960860491
01:00:0A:00:00:00:00;1724716804;27/08/24;00:00:04;1.015;-0.028;0.082;0.019547687843441963;-0.012217304669320583;0.004886921960860491
01:00:0A:00:00:00:00;1724716805;27/08/24;00:00:05;1.015;-0.028;0.081;0.019547687843441963;-0.010995574295520782;0.0036651913542300463
01:00:0A:00:00:00:00;1724716806;27/08/24;00:00:06;1.014;-0.028;0.081;0.019547687843441963;-0.010995574295520782;0.0036651913542300463
01:00:0A:00:00:00:00;1724716807;27/08/24;00:00:07;1.014;-0.029;0.082;0.019547687843441963;-0.010995574295520782;0.004886921960860491
01:00:0A:00:00:00:00;1724716808;27/08/24;00:00:08;1.014;-0.028;0.082;0.019547687843441963;-0.010995574295520782;0.004886921960860491
01:00:0A:00:00:00:00;1724716809;27/08/24;00:00:09;1.015;-0.029;0.082;0.019547687843441963;-0.010995574295520782;0.0036651913542300463
01:00:0A:00:00:00:00;1724716810;27/08/24;00:00:10;1.016;-0.028;0.081;0.019547687843441963;-0.010995574295520782;0.0036651913542300463
01:00:0A:00:00:00:00;1724716811;27/08/24;00:00:11;1.015;-0.027;0.082;0.018325956538319588;-0.010995574295520782;0.004886921960860491
01:00:0A:00:00:00:00;1724716812;27/08/24;00:00:12;1.013;-0.028;0.079;0.018325956538319588;-0.02076941914856434;0.004886921960860491
01:00:0A:00:00:00:00;1724716813;27/08/24;00:00:13;1.015;-0.027;0.069;0.024434609338641167;-0.01710422709584236;0.0012217304902151227
01:00:0A:00:00:00:00;1724716814;27/08/24;00:00:14;1.016;-0.026;0.071;0.03298672288656235;-0.0036651913542300463;0.006108652334660292
01:00:0A:00:00:00:00;1724716815;27/08/24;00:00:15;1.015;-0.027;0.081;0.03420845419168472;0.0;0.0036651913542300463
01:00:0A:00:00:00:00;1724716816;27/08/24;00:00:16;1.014;-0.027;0.087;0.025656338781118393;-0.01710422709584236;0.0073303827084600925
01:00:0A:00:00:00:00;1724716817;27/08/24;00:00:17;1.016;-0.03;0.078;0.02687807008624077;-0.01710422709584236;0.004886921960860491
01:00:0A:00:00:00:00;1724716818;27/08/24;00:00:18;1.016;-0.027;0.081;0.03176499158143997;-0.0012217304902151227;0.0036651913542300463
01:00:0A:00:00:00:00;1724716819;27/08/24;00:00:19;1.015;-0.029;0.086;0.025656338781118393;-0.015882495790719986;0.0073303827084600925
01:00:0A:00:00:00:00;1724716820;27/08/24;00:00:20;1.016;-0.032;0.076;0.03176499158143997;0.012217304669320583;-0.009773843921720982
01:00:0A:00:00:00:00;1724716821;27/08/24;00:00:21;1.003;-0.057;0.029;0.030543262138962746;-0.04642575979232788;0.03787364438176155
01:00:0A:00:00:00:00;1724716822;27/08/24;00:00:22;0.994;-0.052;0.041;0.040317103266716;-0.04153883829712868;0.02321287989616394
01:00:0A:00:00:00:00;1724716823;27/08/24;00:00:23;1.016;-0.091;0.004;0.11728612333536148;-0.09529497474431992;0.09040805697441101
01:00:0A:00:00:00:00;1724716824;27/08/24;00:00:24;1.02;-0.016;0.111;0.17837265133857727;-0.1270599663257599;0.15027284622192383
01:00:0A:00:00:00:00;1724716825;27/08/24;00:00:25;1.016;0.0;0.081;0.2626720666885376;0.11484266817569733;-0.20402899384498596
01:00:0A:00:00:00:00;1724716826;27/08/24;00:00:26;0.991;-0.16;0.005;0.29688048362731934;-0.08185594528913498;0.10751228034496307
01:00:0A:00:00:00:00;1724716827;27/08/24;00:00:27;0.969;0.002;0.123;0.33108896017074585;0.03176499158143997;-0.0659734457731247
01:00:0A:00:00:00:00;1724716828;27/08/24;00:00:28;1.013;-0.083;0.114;0.24434609711170197;-0.0354301817715168;0.24190263450145721
01:00:0A:00:00:00:00;1724716829;27/08/24;00:00:29;1.025;-0.08;0.062;0.375071257352829;-0.09773843735456467;-0.21380282938480377
01:00:0A:00:00:00:00;1724716830;27/08/24;00:00:30;1.0;0.136;0.078;0.32498031854629517;0.0;-0.17959438264369965
01:00:0A:00:00:00:00;1724716831;27/08/24;00:00:31;1.023;-0.075;0.087;0.19914205372333527;0.04398229718208313;0.2932153046131134
01:00:0A:00:00:00:00;1724716832;27/08/24;00:00:32;1.009;-0.151;0.044;0.34697145223617554;-0.04642575979232788;-0.042760565876960754
01:00:0A:00:00:00:00;1724716833;27/08/24;00:00:33;1.014;0.04;-0.022;0.38728854060173035;0.05864306166768074;-0.024434609338641167
01:00:0A:00:00:00:00;1724716834;27/08/24;00:00:34;0.995;-0.059;0.22;-0.15027284622192383;0.04642575979232788;0.32009339332580566
01:00:0A:00:00:00:00;1724716835;27/08/24;00:00:35;0.946;-0.297;0.122;-0.6682865619659424;0.10873401165008545;0.27611109614372253
01:00:0A:00:00:00:00;1724716836;27/08/24;00:00:36;0.977;-0.193;-0.047;-1.0995573997497559;0.31154125928878784;-0.2174680233001709
01:00:0A:00:00:00:00;1724716837;27/08/24;00:00:37;0.987;-0.249;0.134;-1.643227458000183;0.4752531349658966;0.16493360698223114
01:00:0A:00:00:00:00;1724716838;27/08/24;00:00:38;0.995;-0.242;-0.073;-0.9468411207199097;-0.28466320037841797;-0.7305948734283447
01:00:0A:00:00:00:00;1724716839;27/08/24;00:00:39;0.958;0.339;0.017;-0.7855727076530457;-0.20036379992961884;-0.49235740303993225
01:00:0A:00:00:00:00;1724716840;27/08/24;00:00:40;1.033;-0.106;0.128;-1.1899654865264893;-0.22113320231437683;0.4764748811721802
01:00:0A:00:00:00:00;1724716841;27/08/24;00:00:41;0.57;-0.639;0.269;-1.5308282375335693;-0.045204028487205505;-0.7428121566772461
01:00:0A:00:00:00:00;1724716842;27/08/24;00:00:42;0.869;-0.549;0.12;0.08552113175392151;0.21380282938480377;-0.7525859475135803
01:00:0A:00:00:00:00;1724716843;27/08/24;00:00:43;0.937;0.248;-0.124;0.25045475363731384;0.2895500957965851;-0.3188716471195221
01:00:0A:00:00:00:00;1724716844;27/08/24;00:00:44;0.984;-0.125;0.225;-0.0024434609804302454;-0.18936821818351746;0.587652325630188
01:00:0A:00:00:00:00;1724716845;27/08/24;00:00:45;0.991;-0.079;0.121;0.2528982162475586;-0.2370157092809677;-0.5949827432632446
01:00:0A:00:00:00:00;1724716846;27/08/24;00:00:46;0.962;0.21;-0.06;0.13072516024112701;-0.05619959905743599;0.25534167885780334
01:00:0A:00:00:00:00;1724716847;27/08/24;00:00:47;1.042;-0.088;-0.025;0.3090977966785431;0.10384709388017654;-0.5375614166259766
01:00:0A:00:00:00:00;1724716848;27/08/24;00:00:48;0.989;0.368;-0.101;0.15393804013729095;0.37262779474258423;0.1869247555732727
01:00:0A:00:00:00:00;1724716849;27/08/24;00:00:49;0.762;-0.393;0.508;-2.967583179473877;-0.7195992469787598;1.3475687503814697
01:00:0A:00:00:00:00;1724716850;27/08/24;00:00:50;0.785;0.245;-0.51;-0.9175195693969727;0.5827654600143433;-1.164309024810791
01:00:0A:00:00:00:00;1724716851;27/08/24;00:00:51;0.846;0.277;0.572;-1.0482447147369385;0.7525859475135803;0.35674530267715454
01:00:0A:00:00:00:00;1724716852;27/08/24;00:00:52;0.989;-0.377;-0.063;-0.7867944240570068;-2.0476202964782715;-0.23945917189121246
01:00:0A:00:00:00:00;1724716853;27/08/24;00:00:53;0.924;0.204;-0.28;-0.30543261766433716;-0.20036379992961884;-0.20402899384498596
01:00:0A:00:00:00:00;1724716854;27/08/24;00:00:54;1.025;-0.076;-0.303;-0.12095131725072861;0.6609562039375305;-0.24678954482078552
01:00:0A:00:00:00:00;1724716855;27/08/24;00:00:55;0.85;0.434;0.263;-0.3787364363670349;0.4153883755207062;-0.7330382466316223
01:00:0A:00:00:00:00;1724716856;27/08/24;00:00:56;0.657;-0.749;0.435;-1.4318681955337524;-1.7690656185150146;1.137431025505066
01:00:0A:00:00:00:00;1724716857;27/08/24;00:00:57;0.487;-0.815;-0.41;-0.4911356568336487;-0.8038986325263977;-0.41294488310813904
01:00:0A:00:00:00:00;1724716858;27/08/24;00:00:58;0.578;-0.662;-0.595;-0.4544837474822998;0.5668829083442688;-0.5962044596672058
01:00:0A:00:00:00:00;1724716859;27/08/24;00:00:59;0.702;-0.677;-0.238;2.172236919403076;-1.489289402961731;-0.8356636166572571
01:00:0A:00:00:00:00;1724716860;27/08/24;00:01:00;0.948;-0.066;-0.366;2.5033257007598877;0.15027284622192383;-0.6316346526145935
01:00:0A:00:00:00:00;1724716861;27/08/24;00:01:01;1.003;0.07;-0.027;2.604729175567627;-0.779464066028595;-1.137431025505066
01:00:0A:00:00:00:00;1724716862;27/08/24;00:01:02;0.937;-0.059;-0.293;2.4104740619659424;0.5693264007568359;-1.2974778413772583
01:00:0A:00:00:00:00;1724716863;27/08/24;00:01:03;0.586;-0.54;-0.381;1.469741702079773;0.6536257863044739;0.07208210229873657
01:00:0A:00:00:00:00;1724716864;27/08/24;00:01:04;0.821;-0.275;0.264;0.7330382466316223;-0.14294245839118958;-1.4917329549789429
01:00:0A:00:00:00:00;1724716865;27/08/24;00:01:05;0.936;-0.232;0.227;-1.224173903465271;-0.3042108714580536;-1.6420056819915771
01:00:0A:00:00:00:00;1724716866;27/08/24;00:01:06;0.563;-0.768;0.14;0.7574728727340698;0.5302309989929199;-1.585806131362915
01:00:0A:00:00:00:00;1724716867;27/08/24;00:01:07;0.532;-0.896;0.066;-0.2773328125476837;-0.09285151958465576;-0.720820963382721
01:00:0A:00:00:00:00;1724716868;27/08/24;00:01:08;0.708;-0.816;0.16;0.9773843884468079;-0.06841690838336945;2.752558946609497
01:00:0A:00:00:00:00;1724716869;27/08/24;00:01:09;0.985;-0.193;0.207;0.5558874011039734;0.8161159753799438;-1.3255774974822998
01:00:0A:00:00:00:00;1724716870;27/08/24;00:01:10;0.917;-0.421;0.104;-2.141693592071533;-0.18325956165790558;-1.508837103843689
01:00:0A:00:00:00:00;1724716871;27/08/24;00:01:11;0.937;0.223;-0.184;-0.19792033731937408;1.633453607559204;-0.6206390857696533
01:00:0A:00:00:00:00;1724716872;27/08/24;00:01:12;0.729;-0.018;-0.392;-0.31031954288482666;1.5393803119659424;-0.5241223573684692
01:00:0A:00:00:00:00;1724716873;27/08/24;00:01:13;0.649;-0.117;-0.611;-0.8698720932006836;-0.7904595732688904;-1.500285029411316
01:00:0A:00:00:00:00;1724716874;27/08/24;00:01:14;0.542;0.608;0.348;0.32009339332580566;1.976759910583496;1.321912407875061
01:00:0A:00:00:00:00;1724716875;27/08/24;00:01:15;0.842;-0.448;0.546;0.07330382615327835;-0.9077457189559937;0.8869763016700745
01:00:0A:00:00:00:00;1724716876;27/08/24;00:01:16;0.776;0.146;-0.433;0.9957103133201599;0.2675589621067047;-1.0348056554794312
01:00:0A:00:00:00:00;1724716877;27/08/24;00:01:17;0.807;-0.266;-0.65;0.44226640462875366;-0.1771509200334549;-0.16004669666290283
01:00:0A:00:00:00:00;1724716878;27/08/24;00:01:18;0.982;0.036;-0.095;0.06841690838336945;1.7140878438949585;0.02076941914856434
01:00:0A:00:00:00:00;1724716879;27/08/24;00:01:19;0.786;-0.561;0.1;0.18936821818351746;-0.9969320893287659;0.8417722582817078
01:00:0A:00:00:00:00;1724716880;27/08/24;00:01:20;1.0;-0.204;-0.026;0.4960225820541382;-0.40194931626319885;-0.7049384713172913
01:00:0A:00:00:00:00;1724716881;27/08/24;00:01:21;0.949;0.095;-0.088;0.6890559792518616;0.3494149148464203;-0.08674286305904388
01:00:0A:00:00:00:00;1724716882;27/08/24;00:01:22;0.925;0.02;0.176;0.48869219422340393;0.07819075137376785;0.3188716471195221
01:00:0A:00:00:00:00;1724716883;27/08/24;00:01:23;1.003;0.028;0.041;0.26022857427597046;-0.6902776956558228;-0.27977627515792847
01:00:0A:00:00:00:00;1724716884;27/08/24;00:01:24;1.002;0.083;-0.203;0.5229006409645081;0.7855727076530457;0.2480112910270691
01:00:0A:00:00:00:00;1724716885;27/08/24;00:01:25;0.446;-0.44;-0.911;0.6988298296928406;0.9382889866828918;0.19058994948863983
01:00:0A:00:00:00:00;1724716886;27/08/24;00:01:26;0.89;-0.15;-0.264;1.0824532508850098;-0.26022857427597046;-2.063502788543701
01:00:0A:00:00:00:00;1724716887;27/08/24;00:01:27;0.7;0.055;-0.584;1.7201964855194092;1.3524556159973145;-0.739146888256073
01:00:0A:00:00:00:00;1724716888;27/08/24;00:01:28;0.905;0.168;0.406;1.557706356048584;0.6743952035903931;0.6414085030555725
01:00:0A:00:00:00:00;1724716889;27/08/24;00:01:29;0.84;-0.247;0.504;0.8136724829673767;-1.1789698600769043;1.6505578756332397
01:00:0A:00:00:00:00;1724716890;27/08/24;00:01:30;0.933;-0.308;-0.162;0.9346237778663635;-0.6340781450271606;-0.4312708377838135
01:00:0A:00:00:00:00;1724716891;27/08/24;00:01:31;1.016;0.035;-0.067;0.9908234477043152;0.09651670604944229;-0.5192354917526245
01:00:0A:00:00:00:00;1724716892;27/08/24;00:01:32;1.02;0.122;0.135;0.7525859475135803;0.4715879559516907;0.13805554807186127
01:00:0A:00:00:00:00;1724716893;27/08/24;00:01:33;0.942;-0.071;0.272;0.31154125928878784;0.30054569244384766;0.2528982162475586
01:00:0A:00:00:00:00;1724716894;27/08/24;00:01:34;0.962;-0.003;0.175;-0.14538592100143433;-0.2125810980796814;-0.28099802136421204
01:00:0A:00:00:00:00;1724716895;27/08/24;00:01:35;0.981;0.087;0.066;-0.3604104816913605;-0.2382374405860901;0.07330382615327835
01:00:0A:00:00:00:00;1724716896;27/08/24;00:01:36;0.445;-0.456;0.57;1.0531316995620728;-1.4282028675079346;-1.3524556159973145
01:00:0A:00:00:00:00;1724716897;27/08/24;00:01:37;1.021;0.157;-0.038;0.3701843321323395;-1.1337658166885376;0.05742133408784866
01:00:0A:00:00:00:00;1724716898;27/08/24;00:01:38;0.633;-0.405;-0.518;0.6524040699005127;1.263269305229187;-1.3683381080627441
01:00:0A:00:00:00:00;1724716899;27/08/24;00:01:39;0.71;0.458;0.535;0.6475171446800232;1.5210543870925903;0.09407324343919754
01:00:0A:00:00:00:00;1724716900;27/08/24;00:01:40;0.87;-0.391;0.467;-0.2834414541721344;-1.0665706396102905;0.6023131012916565
01:00:0A:00:00:00:00;1724716901;27/08/24;00:01:41;0.838;0.492;-0.103;0.030543262138962746;0.5314527750015259;-0.7623597979545593
01:00:0A:00:00:00:00;1724716902;27/08/24;00:01:42;0.915;0.263;0.323;-0.40683624148368835;-0.12339477241039276;1.0641272068023682
01:00:0A:00:00:00:00;1724716903;27/08/24;00:01:43;0.939;-0.277;-0.154;-0.18325956165790558;-0.18936821818351746;-0.5167919993400574
01:00:0A:00:00:00:00;1724716904;27/08/24;00:01:44;1.06;0.008;-0.013;0.3640756905078888;0.919963002204895;-0.26511549949645996
01:00:0A:00:00:00:00;1724716905;27/08/24;00:01:45;0.813;-0.043;0.751;-0.28466320037841797;-0.27611109614372253;0.18081611394882202
01:00:0A:00:00:00:00;1724716906;27/08/24;00:01:46;0.777;-0.76;-0.004;-0.5180137157440186;0.4593706727027893;1.556484580039978
01:00:0A:00:00:00:00;1724716907;27/08/24;00:01:47;1.055;-0.141;0.106;0.8283332586288452;-0.10751228034496307;-1.2473868131637573
01:00:0A:00:00:00:00;1724716908;27/08/24;00:01:48;0.772;-0.176;0.696;0.06108652427792549;0.21624629199504852;0.6621779203414917
01:00:0A:00:00:00:00;1724716909;27/08/24;00:01:49;1.052;-0.056;-0.094;-0.004886921960860491;-0.797789990901947;-0.7525859475135803
01:00:0A:00:00:00:00;1724716910;27/08/24;00:01:50;0.694;-0.798;0.391;2.4862215518951416;-0.988379955291748;0.20036379992961884
01:00:0A:00:00:00:00;1724716911;27/08/24;00:01:51;0.939;-0.439;-0.289;1.7898350954055786;-0.7696901559829712;0.24678954482078552
01:00:0A:00:00:00:00;1724716912;27/08/24;00:01:52;0.617;-0.845;0.101;-0.2370157092809677;-0.40194931626319885;-1.341460108757019
01:00:0A:00:00:00:00;1724716913;27/08/24;00:01:53;0.892;0.425;0.491;0.04642575979232788;1.222952127456665;0.015882495790719986
01:00:0A:00:00:00:00;1724716914;27/08/24;00:01:54;0.698;-0.682;0.167;-0.5302309989929199;-0.9272934198379517;-0.07941248267889023
01:00:0A:00:00:00:00;1724716915;27/08/24;00:01:55;0.994;-0.076;-0.04;0.23090705275535583;0.48747044801712036;-1.0519099235534668
01:00:0A:00:00:00:00;1724716916;27/08/24;00:01:56;0.947;0.19;0.258;-0.02076941914856434;0.08918632566928864;0.19547687470912933
01:00:0A:00:00:00:00;1724716917;27/08/24;00:01:57;1.011;-0.157;0.076;-0.31154125928878784;-0.2895500957965851;0.2015855312347412
01:00:0A:00:00:00:00;1724716918;27/08/24;00:01:58;1.043;-0.155;-0.048;-0.05253440886735916;0.14416420459747314;-0.13927726447582245
01:00:0A:00:00:00:00;1724716919;27/08/24;00:01:59;1.016;0.059;0.063;-0.10995574295520782;-0.3078760802745819;0.22479839622974396
01:00:0A:00:00:00:00;1724716920;27/08/24;00:02:00;0.981;-0.079;0.093;-0.35063666105270386;0.25045475363731384;-0.2125810980796814
01:00:0A:00:00:00:00;1724716921;27/08/24;00:02:01;0.916;-0.332;0.211;-2.2198843955993652;-1.6713272333145142;0.012217304669320583
01:00:0A:00:00:00:00;1724716922;27/08/24;00:02:02;0.803;0.298;-0.263;-1.5833626985549927;-0.48258352279663086;0.3689626157283783
01:00:0A:00:00:00:00;1724716923;27/08/24;00:02:03;1.025;-0.226;0.045;-1.3927726745605469;-0.2773328125476837;1.2730430364608765
01:00:0A:00:00:00:00;1724716924;27/08/24;00:02:04;0.735;-0.187;0.507;-0.34574973583221436;-2.2992966175079346;-0.1673770695924759
01:00:0A:00:00:00:00;1724716925;27/08/24;00:02:05;0.907;0.174;0.036;-0.11972958594560623;0.9358454942703247;0.20525071024894714
01:00:0A:00:00:00:00;1724716926;27/08/24;00:02:06;0.888;-0.2;0.217;-0.3933972120285034;-1.3695597648620605;0.15515977144241333
01:00:0A:00:00:00:00;1724716927;27/08/24;00:02:07;0.949;-0.075;-0.195;0.29565879702568054;0.7550294399261475;-0.28588491678237915
01:00:0A:00:00:00:00;1724716928;27/08/24;00:02:08;0.961;0.11;0.305;0.12461651116609573;-0.04886921867728233;0.14905111491680145
01:00:0A:00:00:00:00;1724716929;27/08/24;00:02:09;1.048;-0.093;0.092;-0.039095375686883926;-0.3530800938606262;0.36163222789764404
01:00:0A:00:00:00:00;1724716930;27/08/24;00:02:10;0.994;0.274;-0.143;0.04642575979232788;0.3152064383029938;0.11362093687057495
01:00:0A:00:00:00:00;1724716931;27/08/24;00:02:11;0.978;0.005;0.526;-0.36651912331581116;0.0036651913542300463;0.313984751701355
01:00:0A:00:00:00:00;1724716932;27/08/24;00:02:12;0.668;-0.508;0.435;-0.7709119319915771;-1.3964378833770752;-0.8735373020172119
01:00:0A:00:00:00:00;1724716933;27/08/24;00:02:13;0.986;0.032;-0.039;-0.3530800938606262;-0.5485569834709167;-0.17470745742321014
01:00:0A:00:00:00:00;1724716934;27/08/24;00:02:14;0.946;0.051;-0.377;-0.1869247555732727;0.7648032903671265;0.4312708377838135
01:00:0A:00:00:00:00;1724716935;27/08/24;00:02:15;0.97;-0.106;0.224;0.02687807008624077;-0.018325956538319588;-0.30054569244384766
01:00:0A:00:00:00:00;1724716936;27/08/24;00:02:16;0.976;0.246;0.033;-0.0659734457731247;0.040317103266716;0.1869247555732727
01:00:0A:00:00:00:00;1724716937;27/08/24;00:02:17;0.748;-0.456;0.433;0.2981022298336029;0.5412266254425049;-0.9419541358947754
01:00:0A:00:00:00:00;1724716938;27/08/24;00:02:18;0.988;0.098;-0.291;-0.0757472887635231;-1.1508700847625732;0.09162978082895279
01:00:0A:00:00:00:00;1724716939;27/08/24;00:02:19;1.02;-0.204;0.056;0.2125810980796814;0.6475171446800232;0.1062905490398407
01:00:0A:00:00:00:00;1724716940;27/08/24;00:02:20;0.971;0.071;0.207;0.06719517707824707;0.0036651913542300463;-0.2541199326515198
01:00:0A:00:00:00:00;1724716941;27/08/24;00:02:21;0.97;0.015;-0.085;-0.06841690838336945;-0.18325956165790558;0.17959438264369965
01:00:0A:00:00:00:00;1724716942;27/08/24;00:02:22;1.019;-0.046;0.086;0.14049901068210602;0.41783180832862854;-0.006108652334660292
01:00:0A:00:00:00:00;1724716943;27/08/24;00:02:23;1.025;-0.022;0.401;-0.12095131725072861;0.080634206533432;-0.25534167885780334
01:00:0A:00:00:00:00;1724716944;27/08/24;00:02:24;0.901;0.237;0.438;-0.7672467231750488;-0.2626720666885376;-0.13316862285137177
01:00:0A:00:00:00:00;1724716945;27/08/24;00:02:25;1.021;0.043;-0.009;-1.2571606636047363;-0.5510004162788391;-0.16493360698223114
01:00:0A:00:00:00:00;1724716946;27/08/24;00:02:26;1.005;0.125;-0.012;-1.193630576133728;-0.028099799528717995;0.23945917189121246
01:00:0A:00:00:00:00;1724716947;27/08/24;00:02:27;0.983;-0.141;0.11;-1.0922271013259888;0.1563815027475357;0.18448130786418915
01:00:0A:00:00:00:00;1724716948;27/08/24;00:02:28;0.979;-0.084;0.159;-0.7635815143585205;0.23579397797584534;-0.38117989897727966
01:00:0A:00:00:00:00;1724716949;27/08/24;00:02:29;0.972;-0.007;0.216;-0.891863226890564;-0.2687807083129883;-0.12828169763088226
01:00:0A:00:00:00:00;1724716950;27/08/24;00:02:30;1.015;0.019;0.0;-0.8014551997184753;-0.20525071024894714;-0.15393804013729095
01:00:0A:00:00:00:00;1724716951;27/08/24;00:02:31;1.049;-0.031;-0.035;-0.7000515460968018;0.0354301817715168;0.14294245839118958
01:00:0A:00:00:00:00;1724716952;27/08/24;00:02:32;1.092;-0.256;0.051;-0.4801400899887085;-0.0757472887635231;0.11239919811487198
01:00:0A:00:00:00:00;1724716953;27/08/24;00:02:33;0.968;-0.182;-0.224;-0.35185837745666504;-0.05497787147760391;-0.11484266817569733
01:00:0A:00:00:00:00;1724716954;27/08/24;00:02:34;0.999;0.099;-0.113;-0.7147123217582703;-0.08552113175392151;-0.2724458873271942
01:00:0A:00:00:00:00;1724716955;27/08/24;00:02:35;0.941;0.342;0.197;-1.4648548364639282;-0.045204028487205505;-0.18448130786418915
01:00:0A:00:00:00:00;1724716956;27/08/24;00:02:36;0.899;-0.254;0.476;-2.5558600425720215;0.15027284622192383;-0.1820378452539444
01:00:0A:00:00:00:00;1724716957;27/08/24;00:02:37;0.954;-0.056;-0.325;-3.1080822944641113;-0.11362093687057495;-0.06841690838336945
01:00:0A:00:00:00:00;1724716958;27/08/24;00:02:38;0.998;-0.138;0.204;-3.26935076713562;-0.2015855312347412;0.25534167885780334
01:00:0A:00:00:00:00;1724716959;27/08/24;00:02:39;1.009;0.101;0.063;-2.5888469219207764;0.24434609711170197;0.07941248267889023
01:00:0A:00:00:00:00;1724716960;27/08/24;00:02:40;0.988;-0.02;-0.124;-2.1392500400543213;-0.07819075137376785;-0.06719517707824707
01:00:0A:00:00:00:00;1724716961;27/08/24;00:02:41;0.995;-0.127;0.12;-1.86191725730896;0.13316862285137177;0.3274237811565399
01:00:0A:00:00:00:00;1724716962;27/08/24;00:02:42;0.995;-0.068;-0.049;-1.3145819902420044;0.3591887652873993;-0.16249015927314758
01:00:0A:00:00:00:00;1724716963;27/08/24;00:02:43;0.98;-0.15;0.225;-1.1838568449020386;0.019547687843441963;-0.07819075137376785
01:00:0A:00:00:00:00;1724716964;27/08/24;00:02:44;1.028;-0.024;0.07;-0.9639453291893005;-0.0012217304902151227;-0.3995058536529541
01:00:0A:00:00:00:00;1724716965;27/08/24;00:02:45;1.021;0.087;0.235;-1.1032226085662842;-0.10751228034496307;0.05253440886735916
01:00:0A:00:00:00:00;1724716966;27/08/24;00:02:46;1.037;0.011;-0.11;-0.9749408960342407;-0.12828169763088226;-0.07330382615327835
01:00:0A:00:00:00:00;1724716967;27/08/24;00:02:47;0.994;-0.096;0.2;-0.8662068843841553;0.32498031854629517;0.23457224667072296
01:00:0A:00:00:00:00;1724716968;27/08/24;00:02:48;0.989;-0.106;0.076;-0.646295428276062;-0.04764748737215996;-0.32131510972976685
01:00:0A:00:00:00:00;1724716969;27/08/24;00:02:49;0.976;0.103;0.093;-0.6426302194595337;0.042760565876960754;-0.05497787147760391
01:00:0A:00:00:00:00;1724716970;27/08/24;00:02:50;1.0;-0.079;0.069;-0.6743952035903931;-0.2076941877603531;0.09407324343919754
01:00:0A:00:00:00:00;1724716971;27/08/24;00:02:51;1.012;-0.03;-0.004;-0.3848450779914856;0.20891590416431427;-0.14905111491680145
01:00:0A:00:00:00:00;1724716972;27/08/24;00:02:52;1.019;0.002;0.17;-0.4190535545349121;-0.07330382615327835;0.0073303827084600925
01:00:0A:00:00:00:00;1724716973;27/08/24;00:02:53;1.035;0.0;0.008;-0.3933972120285034;-0.08796459436416626;-0.06963863223791122
01:00:0A:00:00:00:00;1724716974;27/08/24;00:02:54;0.959;0.193;-0.239;0.1820378452539444;-0.2223549485206604;-0.14416420459747314
01:00:0A:00:00:00:00;1724716975;27/08/24;00:02:55;1.011;0.099;-0.22;0.3335324227809906;0.22602014243602753;0.08918632566928864
01:00:0A:00:00:00:00;1724716976;27/08/24;00:02:56;1.014;-0.013;-0.001;0.294437050819397;0.24556782841682434;0.04764748737215996
01:00:0A:00:00:00:00;1724716977;27/08/24;00:02:57;1.015;-0.015;0.061;0.4813618063926697;-0.11362093687057495;0.06108652427792549
01:00:0A:00:00:00:00;1724716978;27/08/24;00:02:58;1.013;-0.069;-0.011;0.4813618063926697;-0.02687807008624077;0.03420845419168472
01:00:0A:00:00:00:00;1724716979;27/08/24;00:02:59;1.018;-0.013;0.107;0.6524040699005127;0.07330382615327835;-0.09651670604944229
01:00:0A:00:00:00:00;1724716980;27/08/24;00:03:00;1.021;0.029;0.088;0.5009095072746277;-0.03787364438176155;0.09407324343919754
01:00:0A:00:00:00:00;1724716981;27/08/24;00:03:01;1.018;-0.078;0.088;0.4789183437824249;0.05497787147760391;0.09407324343919754
01:00:0A:00:00:00:00;1724716982;27/08/24;00:03:02;1.01;0.04;0.115;0.4288274049758911;-0.04153883829712868;-0.0659734457731247
01:00:0A:00:00:00:00;1724716983;27/08/24;00:03:03;1.0;-0.001;0.067;0.3176499307155609;-0.01710422709584236;0.1466076523065567
01:00:0A:00:00:00:00;1724716984;27/08/24;00:03:04;0.984;-0.021;0.108;0.3445279896259308;0.030543262138962746;-0.04764748737215996
01:00:0A:00:00:00:00;1724716985;27/08/24;00:03:05;0.999;0.009;0.09;0.27122414112091064;-0.1258382350206375;0.0073303827084600925
01:00:0A:00:00:00:00;1724716986;27/08/24;00:03:06;1.043;-0.032;0.056;0.2822197377681732;0.036651913076639175;0.014660765416920185
01:00:0A:00:00:00:00;1724716987;27/08/24;00:03:07;1.046;-0.029;0.143;0.2626720666885376;-0.02932153083384037;0.03176499158143997
01:00:0A:00:00:00:00;1724716988;27/08/24;00:03:08;1.038;-0.021;0.073;0.24923302233219147;-0.06475171446800232;0.01710422709584236
01:00:0A:00:00:00:00;1724716989;27/08/24;00:03:09;1.009;-0.036;0.094;0.2736676335334778;0.08307767659425735;0.021991148591041565
01:00:0A:00:00:00:00;1724716990;27/08/24;00:03:10;0.982;-0.013;0.091;0.23579397797584534;-0.025656338781118393;0.03176499158143997
01:00:0A:00:00:00:00;1724716991;27/08/24;00:03:11;0.999;-0.032;0.061;0.21502456068992615;-0.07330382615327835;0.036651913076639175
01:00:0A:00:00:00:00;1724716992;27/08/24;00:03:12;1.016;-0.022;0.072;0.2480112910270691;0.024434609338641167;-0.0024434609804302454
01:00:0A:00:00:00:00;1724716993;27/08/24;00:03:13;1.022;0.003;0.113;0.21991148591041565;-0.05497787147760391;-0.015882495790719986
01:00:0A:00:00:00:00;1724716993;27/08/24;00:03:13;1.025;-0.056;0.046;0.21624629199504852;-0.014660765416920185;0.03420845419168472
01:00:0A:00:00:00:00;1724716994;27/08/24;00:03:14;1.016;-0.036;0.103;0.23579397797584534;0.045204028487205505;-0.0073303827084600925
01:00:0A:00:00:00:00;1724716995;27/08/24;00:03:15;1.015;-0.013;0.084;0.17592918872833252;-0.039095375686883926;0.06108652427792549
01:00:0A:00:00:00:00;1724716996;27/08/24;00:03:16;1.016;-0.049;0.076;0.2028072476387024;0.019547687843441963;0.014660765416920185
01:00:0A:00:00:00:00;1724716997;27/08/24;00:03:17;1.018;-0.003;0.103;0.17470745742321014;-0.028099799528717995;0.00855211354792118
01:00:0A:00:00:00:00;1724716998;27/08/24;00:03:18;1.019;-0.025;0.094;0.1417207270860672;-0.024434609338641167;0.03420845419168472
01:00:0A:00:00:00:00;1724716999;27/08/24;00:03:19;1.02;-0.022;0.097;0.14049901068210602;0.0354301817715168;-0.0012217304902151227
01:00:0A:00:00:00:00;1724717000;27/08/24;00:03:20;0.992;0.036;0.146;0.14782939851284027;0.14782939851284027;-0.16371189057826996
01:00:0A:00:00:00:00;1724717001;27/08/24;00:03:21;0.994;0.098;0.179;0.12828169763088226;-0.09651670604944229;0.042760565876960754
01:00:0A:00:00:00:00;1724717002;27/08/24;00:03:22;1.015;-0.046;0.066;0.0659734457731247;-0.13072516024112701;0.16982054710388184
01:00:0A:00:00:00:00;1724717003;27/08/24;00:03:23;1.014;-0.056;0.068;0.19914205372333527;0.07208210229873657;-0.13072516024112701
01:00:0A:00:00:00:00;1724717004;27/08/24;00:03:24;1.005;0.094;0.102;0.44226640462875366;0.021991148591041565;0.06475171446800232
01:00:0A:00:00:00:00;1724717005;27/08/24;00:03:25;1.013;-0.023;0.091;0.4251621961593628;-0.030543262138962746;0.16004669666290283
01:00:0A:00:00:00:00;1724717006;27/08/24;00:03:26;1.009;-0.054;0.094;0.455705463886261;-0.015882495790719986;-0.0354301817715168
01:00:0A:00:00:00:00;1724717007;27/08/24;00:03:27;1.012;0.02;0.079;0.40683624148368835;-0.015882495790719986;-0.010995574295520782
01:00:0A:00:00:00:00;1724717008;27/08/24;00:03:28;1.015;-0.036;0.092;0.34208452701568604;0.025656338781118393;0.09529497474431992
01:00:0A:00:00:00:00;1724717009;27/08/24;00:03:29;1.01;-0.042;0.125;0.33108896017074585;-0.03787364438176155;-0.013439035043120384
01:00:0A:00:00:00:00;1724717010;27/08/24;00:03:30;1.017;-0.003;0.052;0.2932153046131134;-0.019547687843441963;0.0354301817715168
01:00:0A:00:00:00:00;1724717011;27/08/24;00:03:31;1.019;-0.045;0.103;0.2981022298336029;0.02687807008624077;0.009773843921720982
01:00:0A:00:00:00:00;1724717012;27/08/24;00:03:32;1.026;-0.026;0.116;0.2626720666885376;-0.05375614017248154;0.019547687843441963
01:00:0A:00:00:00:00;1724717013;27/08/24;00:03:33;1.027;-0.033;0.071;0.25045475363731384;-0.014660765416920185;0.05742133408784866
01:00:0A:00:00:00:00;1724717014;27/08/24;00:03:34;1.011;-0.028;0.098;0.27488934993743896;0.05009094998240471;-0.0036651913542300463
01:00:0A:00:00:00:00;1724717015;27/08/24;00:03:35;1.004;-0.025;0.089;0.23090705275535583;-0.04398229718208313;0.045204028487205505
01:00:0A:00:00:00:00;1724717016;27/08/24;00:03:36;1.0;-0.034;0.074;0.24068090319633484;-0.021991148591041565;0.013439035043120384
01:00:0A:00:00:00:00;1724717017;27/08/24;00:03:37;1.013;-0.029;0.094;0.24556782841682434;0.0073303827084600925;-0.0073303827084600925
01:00:0A:00:00:00:00;1724717018;27/08/24;00:03:38;1.022;-0.025;0.101;0.20891590416431427;-0.03787364438176155;0.04153883829712868
01:00:0A:00:00:00:00;1724717019;27/08/24;00:03:39;1.021;-0.047;0.08;0.21380282938480377;-0.009773843921720982;0.02076941914856434
01:00:0A:00:00:00:00;1724717020;27/08/24;00:03:40;1.015;-0.017;0.102;0.21502456068992615;0.02321287989616394;-0.021991148591041565
01:00:0A:00:00:00:00;1724717021;27/08/24;00:03:41;1.016;-0.024;0.087;0.1661553531885147;-0.02687807008624077;0.04642575979232788
01:00:0A:00:00:00:00;1724717022;27/08/24;00:03:42;1.018;-0.049;0.092;0.17470745742321014;0.0024434609804302454;0.006108652334660292
01:00:0A:00:00:00:00;1724717023;27/08/24;00:03:43;1.016;-0.013;0.089;0.16249015927314758;0.0012217304902151227;0.0
01:00:0A:00:00:00:00;1724717024;27/08/24;00:03:44;1.016;-0.038;0.098;0.13561207056045532;-0.00855211354792118;0.030543262138962746
01:00:0A:00:00:00:00;1724717025;27/08/24;00:03:45;1.014;-0.036;0.086;0.14294245839118958;-0.004886921960860491;0.0012217304902151227
01:00:0A:00:00:00:00;1724717026;27/08/24;00:03:46;1.011;-0.015;0.098;0.12095131725072861;-0.018325956538319588;0.02932153083384037
01:00:0A:00:00:00:00;1724717027;27/08/24;00:03:47;1.006;-0.018;0.085;0.11484266817569733;0.0;0.0073303827084600925
01:00:0A:00:00:00:00;1724717028;27/08/24;00:03:48;1.004;-0.034;0.086;0.10995574295520782;-0.009773843921720982;0.009773843921720982
01:00:0A:00:00:00:00;1724717029;27/08/24;00:03:49;1.012;-0.03;0.084;0.11239919811487198;-0.02932153083384037;-0.0073303827084600925
01:00:0A:00:00:00:00;1724717030;27/08/24;00:03:50;1.025;-0.018;0.087;0.09651670604944229;-0.0354301817715168;0.03298672288656235
01:00:0A:00:00:00:00;1724717031;27/08/24;00:03:51;1.026;-0.041;0.102;0.10873401165008545;-0.013439035043120384;0.0036651913542300463
01:00:0A:00:00:00:00;1724717032;27/08/24;00:03:52;1.016;-0.014;0.089;0.11362093687057495;0.0024434609804302454;-0.015882495790719986
01:00:0A:00:00:00:00;1724717033;27/08/24;00:03:53;1.008;-0.038;0.085;0.10262535512447357;0.02076941914856434;0.042760565876960754
01:00:0A:00:00:00:00;1724717034;27/08/24;00:03:54;1.005;-0.036;0.084;0.11484266817569733;-0.045204028487205505;-0.019547687843441963
01:00:0A:00:00:00:00;1724717035;27/08/24;00:03:55;1.009;-0.021;0.083;0.10751228034496307;-0.010995574295520782;0.04153883829712868
01:00:0A:00:00:00:00;1724717036;27/08/24;00:03:56;1.016;-0.028;0.103;0.1111774742603302;-0.025656338781118393;0.014660765416920185
01:00:0A:00:00:00:00;1724717037;27/08/24;00:03:57;1.022;-0.028;0.086;0.12095131725072861;-0.0073303827084600925;-0.0073303827084600925
01:00:0A:00:00:00:00;1724717038;27/08/24;00:03:58;1.018;-0.029;0.087;0.1160643920302391;0.00855211354792118;0.02687807008624077
01:00:0A:00:00:00:00;1724717039;27/08/24;00:03:59;1.01;-0.03;0.084;0.1062905490398407;-0.030543262138962746;0.039095375686883926
01:00:0A:00:00:00:00;1724717040;27/08/24;00:04:00;1.009;-0.02;0.081;0.12095131725072861;0.0;0.006108652334660292
01:00:0A:00:00:00:00;1724717041;27/08/24;00:04:01;1.013;-0.019;0.09;0.10873401165008545;-0.039095375686883926;0.0024434609804302454
01:00:0A:00:00:00:00;1724717042;27/08/24;00:04:02;1.013;-0.037;0.088;0.1160643920302391;0.0012217304902151227;0.004886921960860491
01:00:0A:00:00:00:00;1724717043;27/08/24;00:04:03;1.01;-0.03;0.096;0.10873401165008545;-0.021991148591041565;0.014660765416920185
01:00:0A:00:00:00:00;1724717044;27/08/24;00:04:04;1.017;-0.03;0.085;0.10384709388017654;-0.01710422709584236;0.03176499158143997
01:00:0A:00:00:00:00;1724717045;27/08/24;00:04:05;1.02;-0.027;0.095;0.11362093687057495;0.009773843921720982;0.0073303827084600925
01:00:0A:00:00:00:00;1724717046;27/08/24;00:04:06;1.019;-0.022;0.089;0.10262535512447357;-0.010995574295520782;0.010995574295520782
01:00:0A:00:00:00:00;1724717047;27/08/24;00:04:07;1.015;-0.038;0.087;0.10506881773471832;-0.015882495790719986;0.006108652334660292
01:00:0A:00:00:00:00;1724717048;27/08/24;00:04:08;1.008;-0.028;0.092;0.09896016865968704;0.0012217304902151227;0.028099799528717995
01:00:0A:00:00:00:00;1724717049;27/08/24;00:04:09;1.011;-0.022;0.085;0.09773843735456467;-0.015882495790719986;-0.0012217304902151227
01:00:0A:00:00:00:00;1724717050;27/08/24;00:04:10;1.016;-0.027;0.085;0.09162978082895279;-0.010995574295520782;0.004886921960860491
01:00:0A:00:00:00:00;1724717051;27/08/24;00:04:11;1.016;-0.03;0.089;0.08552113175392151;-0.018325956538319588;0.019547687843441963
01:00:0A:00:00:00:00;1724717052;27/08/24;00:04:12;1.015;-0.028;0.091;0.08552113175392151;-0.019547687843441963;0.0012217304902151227
01:00:0A:00:00:00:00;1724717053;27/08/24;00:04:13;1.015;-0.025;0.083;0.07819075137376785;-0.0024434609804302454;0.018325956538319588
01:00:0A:00:00:00:00;1724717054;27/08/24;00:04:14;1.016;-0.03;0.093;0.07941248267889023;-0.01710422709584236;0.0
01:00:0A:00:00:00:00;1724717055;27/08/24;00:04:15;1.014;-0.025;0.087;0.07330382615327835;-0.00855211354792118;0.00855211354792118
01:00:0A:00:00:00:00;1724717056;27/08/24;00:04:16;1.013;-0.028;0.088;0.0708603635430336;-0.009773843921720982;0.013439035043120384
01:00:0A:00:00:00:00;1724717057;27/08/24;00:04:17;1.02;-0.028;0.094;0.07208210229873657;-0.0073303827084600925;-0.0024434609804302454
01:00:0A:00:00:00:00;1724717058;27/08/24;00:04:18;1.02;-0.025;0.087;0.06475171446800232;-0.006108652334660292;0.015882495790719986
01:00:0A:00:00:00:00;1724717059;27/08/24;00:04:19;1.012;-0.025;0.092;0.06230825558304787;-0.0073303827084600925;0.010995574295520782
01:00:0A:00:00:00:00;1724717060;27/08/24;00:04:20;1.005;-0.025;0.087;0.06352998316287994;-0.0036651913542300463;0.0073303827084600925
01:00:0A:00:00:00:00;1724717061;27/08/24;00:04:21;1.01;-0.026;0.09;0.06108652427792549;-0.02932153083384037;-0.0024434609804302454
01:00:0A:00:00:00:00;1724717062;27/08/24;00:04:22;1.016;-0.028;0.091;0.0659734457731247;-0.012217304669320583;0.0
01:00:0A:00:00:00:00;1724717063;27/08/24;00:04:23;1.021;-0.029;0.094;0.059864792972803116;-0.010995574295520782;0.014660765416920185
01:00:0A:00:00:00:00;1724717064;27/08/24;00:04:24;1.018;-0.027;0.093;0.06230825558304787;-0.0036651913542300463;0.014660765416920185
01:00:0A:00:00:00:00;1724717065;27/08/24;00:04:25;1.011;-0.027;0.083;0.06352998316287994;0.0;0.010995574295520782
01:00:0A:00:00:00:00;1724717066;27/08/24;00:04:26;1.008;-0.024;0.086;0.06108652427792549;-0.02321287989616394;0.009773843921720982
01:00:0A:00:00:00:00;1724717067;27/08/24;00:04:27;1.01;-0.025;0.088;0.06230825558304787;-0.01710422709584236;0.0
01:00:0A:00:00:00:00;1724717068;27/08/24;00:04:28;1.016;-0.024;0.089;0.05864306166768074;-0.013439035043120384;0.00855211354792118
01:00:0A:00:00:00:00;1724717069;27/08/24;00:04:29;1.016;-0.025;0.091;0.06108652427792549;-0.004886921960860491;0.0012217304902151227
01:00:0A:00:00:00:00;1724717070;27/08/24;00:04:30;1.014;-0.029;0.084;0.05497787147760391;-0.013439035043120384;0.015882495790719986
01:00:0A:00:00:00:00;1724717071;27/08/24;00:04:31;1.012;-0.022;0.092;0.05864306166768074;-0.009773843921720982;-0.0036651913542300463
01:00:0A:00:00:00:00;1724717072;27/08/24;00:04:32;1.015;-0.027;0.086;0.05253440886735916;-0.00855211354792118;0.010995574295520782
01:00:0A:00:00:00:00;1724717073;27/08/24;00:04:33;1.014;-0.026;0.084;0.05497787147760391;-0.010995574295520782;0.0036651913542300463
01:00:0A:00:00:00:00;1724717074;27/08/24;00:04:34;1.013;-0.026;0.088;0.05253440886735916;-0.012217304669320583;0.006108652334660292
01:00:0A:00:00:00:00;1724717075;27/08/24;00:04:35;1.015;-0.027;0.091;0.04886921867728233;-0.018325956538319588;0.012217304669320583
01:00:0A:00:00:00:00;1724717076;27/08/24;00:04:36;1.016;-0.019;0.09;0.05375614017248154;-0.012217304669320583;-0.0036651913542300463
01:00:0A:00:00:00:00;1724717077;27/08/24;00:04:37;1.016;-0.027;0.09;0.04764748737215996;-0.0024434609804302454;0.010995574295520782
01:00:0A:00:00:00:00;1724717078;27/08/24;00:04:38;1.007;0.009;0.161;-0.1270599663257599;-0.00855211354792118;-0.0036651913542300463
01:00:0A:00:00:00:00;1724717079;27/08/24;00:04:39;1.012;-0.034;0.132;-0.3848450779914856;-0.07208210229873657;0.0073303827084600925
01:00:0A:00:00:00:00;1724717080;27/08/24;00:04:40;1.016;-0.034;0.074;-0.42760565876960754;-0.06963863223791122;-0.051312677562236786
01:00:0A:00:00:00:00;1724717081;27/08/24;00:04:41;1.013;-0.005;0.091;-0.39706242084503174;0.04153883829712868;-0.0036651913542300463
01:00:0A:00:00:00:00;1724717082;27/08/24;00:04:42;1.012;-0.048;0.105;-0.38728854060173035;-0.025656338781118393;-0.004886921960860491
01:00:0A:00:00:00:00;1724717083;27/08/24;00:04:43;1.016;-0.017;0.081;-0.34574973583221436;0.009773843921720982;-0.06108652427792549
01:00:0A:00:00:00:00;1724717084;27/08/24;00:04:44;1.016;-0.012;0.105;-0.36163222789764404;-0.012217304669320583;0.00855211354792118
01:00:0A:00:00:00:00;1724717085;27/08/24;00:04:45;1.015;-0.049;0.08;-0.32498031854629517;-0.019547687843441963;-0.02932153083384037
01:00:0A:00:00:00:00;1724717086;27/08/24;00:04:46;1.012;-0.017;0.091;-0.2919935882091522;0.03176499158143997;-0.02932153083384037
01:00:0A:00:00:00:00;1724717087;27/08/24;00:04:47;1.012;-0.031;0.098;-0.3029891550540924;-0.040317103266716;0.009773843921720982
01:00:0A:00:00:00:00;1724717088;27/08/24;00:04:48;1.013;-0.03;0.071;-0.26633724570274353;-0.015882495790719986;-0.030543262138962746
01:00:0A:00:00:00:00;1724717089;27/08/24;00:04:49;1.012;-0.019;0.101;-0.25045475363731384;0.02076941914856434;-0.0073303827084600925
01:00:0A:00:00:00:00;1724717090;27/08/24;00:04:50;1.014;-0.039;0.09;-0.25045475363731384;-0.05619959905743599;-0.0073303827084600925
01:00:0A:00:00:00:00;1724717091;27/08/24;00:04:51;1.015;-0.016;0.084;-0.21624629199504852;0.010995574295520782;-0.025656338781118393
01:00:0A:00:00:00:00;1724717092;27/08/24;00:04:52;1.014;-0.028;0.103;-0.21624629199504852;0.0012217304902151227;0.00855211354792118
01:00:0A:00:00:00:00;1724717093;27/08/24;00:04:53;1.016;-0.038;0.083;-0.19425514340400696;-0.02321287989616394;-0.019547687843441963
01:00:0A:00:00:00:00;1724717094;27/08/24;00:04:54;1.016;-0.01;0.085;-0.17959438264369965;0.00855211354792118;-0.0036651913542300463
01:00:0A:00:00:00:00;1724717095;27/08/24;00:04:55;1.014;-0.035;0.091;-0.17592918872833252;-0.025656338781118393;0.00855211354792118
01:00:0A:00:00:00:00;1724717096;27/08/24;00:04:56;1.015;-0.031;0.088;-0.13927726447582245;-0.0012217304902151227;-0.039095375686883926
01:00:0A:00:00:00:00;1724717097;27/08/24;00:04:57;1.013;-0.018;0.091;-0.14416420459747314;-0.015882495790719986;0.012217304669320583
01:00:0A:00:00:00:00;1724717098;27/08/24;00:04:58;1.013;-0.034;0.089;-0.1270599663257599;-0.006108652334660292;0.004886921960860491
01:00:0A:00:00:00:00;1724717099;27/08/24;00:04:59;1.014;-0.022;0.087;-0.1062905490398407;-0.010995574295520782;-0.028099799528717995
01:00:0A:00:00:00:00;1724717100;27/08/24;00:05:00;1.014;-0.022;0.085;-0.10506881773471832;-0.0073303827084600925;0.0
01:00:0A:00:00:00:00;1724717101;27/08/24;00:05:01;1.013;-0.037;0.089;-0.09651670604944229;-0.012217304669320583;0.0073303827084600925
01:00:0A:00:00:00:00;1724717102;27/08/24;00:05:02;1.015;-0.024;0.087;-0.08185594528913498;-0.02321287989616394;-0.014660765416920185
01:00:0A:00:00:00:00;1724717103;27/08/24;00:05:03;1.016;-0.022;0.095;-0.08185594528913498;-0.0024434609804302454;0.01710422709584236
01:00:0A:00:00:00:00;1724717104;27/08/24;00:05:04;1.016;-0.035;0.089;-0.06963863223791122;-0.019547687843441963;-0.004886921960860491
01:00:0A:00:00:00:00;1724717105;27/08/24;00:05:05;1.016;-0.022;0.086;-0.05497787147760391;0.0073303827084600925;-0.006108652334660292
01:00:0A:00:00:00:00;1724717106;27/08/24;00:05:06;1.014;-0.028;0.093;-0.059864792972803116;-0.014660765416920185;0.015882495790719986
01:00:0A:00:00:00:00;1724717107;27/08/24;00:05:07;1.016;-0.029;0.083;-0.04764748737215996;-0.02076941914856434;0.0
01:00:0A:00:00:00:00;1724717108;27/08/24;00:05:08;1.014;-0.023;0.095;-0.03787364438176155;0.010995574295520782;0.0012217304902151227
01:00:0A:00:00:00:00;1724717109;27/08/24;00:05:09;1.011;-0.023;0.086;-0.040317103266716;-0.021991148591041565;0.0036651913542300463
01:00:0A:00:00:00:00;1724717110;27/08/24;00:05:10;1.011;-0.029;0.083;-0.02687807008624077;-0.0036651913542300463;-0.0024434609804302454
01:00:0A:00:00:00:00;1724717111;27/08/24;00:05:11;1.016;-0.029;0.093;-0.02076941914856434;-0.02321287989616394;-0.004886921960860491
01:00:0A:00:00:00:00;1724717112;27/08/24;00:05:12;1.005;-0.057;0.101;0.24556782841682434;0.010995574295520782;0.1563815027475357
01:00:0A:00:00:00:00;1724717113;27/08/24;00:05:13;1.01;-0.089;0.12;0.33597588539123535;-0.05864306166768074;0.0024434609804302454
01:00:0A:00:00:00:00;1724717114;27/08/24;00:05:14;1.016;-0.003;0.047;0.3530800938606262;-0.06230825558304787;-0.05009094998240471
01:00:0A:00:00:00:00;1724717115;27/08/24;00:05:15;1.015;-0.016;0.094;0.3298672139644623;0.09407324343919754;0.07452555745840073
01:00:0A:00:00:00:00;1724717116;27/08/24;00:05:16;1.011;-0.045;0.132;0.2822197377681732;-0.06719517707824707;0.03787364438176155
01:00:0A:00:00:00:00;1724717117;27/08/24;00:05:17;1.016;-0.029;0.05;0.2932153046131134;-0.0659734457731247;-0.009773843921720982
01:00:0A:00:00:00:00;1724717118;27/08/24;00:05:18;1.015;-0.011;0.094;0.3017674386501312;0.06719517707824707;0.019547687843441963
01:00:0A:00:00:00:00;1724717119;27/08/24;00:05:19;1.012;-0.024;0.123;0.24556782841682434;-0.04398229718208313;0.051312677562236786
01:00:0A:00:00:00:00;1724717120;27/08/24;00:05:20;1.014;-0.04;0.062;0.2528982162475586;-0.05742133408784866;0.0073303827084600925
01:00:0A:00:00:00:00;1724717121;27/08/24;00:05:21;1.016;-0.017;0.089;0.27611109614372253;0.05253440886735916;-0.0073303827084600925
01:00:0A:00:00:00:00;1724717122;27/08/24;00:05:22;1.011;-0.014;0.109;0.22113320231437683;-0.04153883829712868;0.05619959905743599
01:00:0A:00:00:00:00;1724717123;27/08/24;00:05:23;1.012;-0.046;0.075;0.2321287840604782;-0.02932153083384037;0.018325956538319588
01:00:0A:00:00:00:00;1724717124;27/08/24;00:05:24;1.014;-0.015;0.088;0.25045475363731384;0.0024434609804302454;-0.02932153083384037
01:00:0A:00:00:00:00;1724717125;27/08/24;00:05:25;1.016;-0.012;0.097;0.20525071024894714;-0.010995574295520782;0.05497787147760391
01:00:0A:00:00:00:00;1724717126;27/08/24;00:05:26;1.017;-0.057;0.09;0.21013763546943665;-0.02321287989616394;0.024434609338641167
01:00:0A:00:00:00:00;1724717127;27/08/24;00:05:27;1.016;-0.01;0.081;0.21991148591041565;-0.01710422709584236;-0.01710422709584236
01:00:0A:00:00:00:00;1724717128;27/08/24;00:05:28;1.012;-0.018;0.094;0.1918116807937622;0.009773843921720982;0.05619959905743599
01:00:0A:00:00:00:00;1724717129;27/08/24;00:05:29;1.013;-0.044;0.096;0.19303341209888458;-0.02932153083384037;0.014660765416920185
01:00:0A:00:00:00:00;1724717130;27/08/24;00:05:30;1.015;-0.019;0.081;0.20036379992961884;-0.021991148591041565;-0.013439035043120384
01:00:0A:00:00:00:00;1724717131;27/08/24;00:05:31;1.016;-0.02;0.094;0.1820378452539444;0.009773843921720982;0.042760565876960754
01:00:0A:00:00:00:00;1724717132;27/08/24;00:05:32;1.012;-0.04;0.1;0.1771509200334549;-0.019547687843441963;0.015882495790719986
01:00:0A:00:00:00:00;1724717133;27/08/24;00:05:33;1.013;-0.019;0.082;0.1771509200334549;-0.02932153083384037;-0.009773843921720982
01:00:0A:00:00:00:00;1724717134;27/08/24;00:05:34;1.012;-0.022;0.088;0.16249015927314758;0.012217304669320583;0.03298672288656235
01:00:0A:00:00:00:00;1724717135;27/08/24;00:05:35;1.015;-0.033;0.104;0.12950342893600464;-0.025656338781118393;0.0073303827084600925
01:00:0A:00:00:00:00;1724717136;27/08/24;00:05:36;1.016;-0.02;0.081;0.10018189996480942;-0.021991148591041565;0.0073303827084600925
01:00:0A:00:00:00:00;1724717137;27/08/24;00:05:37;1.016;-0.031;0.087;0.09896016865968704;0.004886921960860491;0.019547687843441963
01:00:0A:00:00:00:00;1724717138;27/08/24;00:05:38;1.016;-0.025;0.102;0.09407324343919754;-0.014660765416920185;0.0024434609804302454
01:00:0A:00:00:00:00;1724717139;27/08/24;00:05:39;1.016;-0.024;0.077;0.08552113175392151;-0.025656338781118393;0.012217304669320583
01:00:0A:00:00:00:00;1724717140;27/08/24;00:05:40;1.012;-0.025;0.091;0.09162978082895279;0.010995574295520782;0.010995574295520782
01:00:0A:00:00:00:00;1724717141;27/08/24;00:05:41;1.011;-0.025;0.094;0.07941248267889023;-0.025656338781118393;0.006108652334660292
01:00:0A:00:00:00:00;1724717142;27/08/24;00:05:42;1.013;-0.024;0.081;0.07941248267889023;-0.02076941914856434;0.006108652334660292
01:00:0A:00:00:00:00;1724717143;27/08/24;00:05:43;1.015;-0.026;0.09;0.08307767659425735;0.006108652334660292;0.004886921960860491
01:00:0A:00:00:00:00;1724717144;27/08/24;00:05:44;1.013;-0.027;0.096;0.07330382615327835;-0.02687807008624077;0.009773843921720982
01:00:0A:00:00:00:00;1724717145;27/08/24;00:05:45;1.015;-0.026;0.082;0.07452555745840073;-0.014660765416920185;0.009773843921720982
01:00:0A:00:00:00:00;1724717146;27/08/24;00:05:46;1.014;-0.026;0.092;0.07819075137376785;0.0012217304902151227;0.006108652334660292
01:00:0A:00:00:00:00;1724717147;27/08/24;00:05:47;1.016;-0.025;0.094;0.0708603635430336;-0.02321287989616394;0.0073303827084600925
01:00:0A:00:00:00:00;1724717148;27/08/24;00:05:48;1.016;-0.029;0.081;0.07330382615327835;-0.009773843921720982;0.006108652334660292
01:00:0A:00:00:00:00;1724717149;27/08/24;00:05:49;1.015;-0.027;0.091;0.07452555745840073;-0.0024434609804302454;0.010995574295520782
01:00:0A:00:00:00:00;1724717150;27/08/24;00:05:50;1.015;-0.021;0.091;0.0659734457731247;-0.019547687843441963;0.010995574295520782
01:00:0A:00:00:00:00;1724717151;27/08/24;00:05:51;1.013;-0.031;0.084;0.06841690838336945;-0.013439035043120384;0.009773843921720982
01:00:0A:00:00:00:00;1724717152;27/08/24;00:05:52;1.014;-0.021;0.093;0.07208210229873657;-0.0024434609804302454;0.0
01:00:0A:00:00:00:00;1724717153;27/08/24;00:05:53;1.015;-0.028;0.09;0.06108652427792549;-0.019547687843441963;0.01710422709584236
01:00:0A:00:00:00:00;1724717154;27/08/24;00:05:54;1.016;-0.025;0.084;0.0659734457731247;-0.013439035043120384;0.0036651913542300463
01:00:0A:00:00:00:00;1724717155;27/08/24;00:05:55;1.015;-0.025;0.092;0.0659734457731247;-0.006108652334660292;0.0012217304902151227
01:00:0A:00:00:00:00;1724717156;27/08/24;00:05:56;1.015;-0.025;0.092;0.05619959905743599;-0.01710422709584236;0.013439035043120384
01:00:0A:00:00:00:00;1724717157;27/08/24;00:05:57;1.016;-0.029;0.083;0.059864792972803116;-0.00855211354792118;0.006108652334660292
01:00:0A:00:00:00:00;1724717158;27/08/24;00:05:58;1.013;-0.023;0.093;0.05742133408784866;-0.006108652334660292;0.0073303827084600925
01:00:0A:00:00:00:00;1724717159;27/08/24;00:05:59;1.014;-0.024;0.089;0.05009094998240471;-0.019547687843441963;0.012217304669320583
01:00:0A:00:00:00:00;1724717160;27/08/24;00:06:00;1.014;-0.028;0.087;0.05619959905743599;-0.006108652334660292;-0.0024434609804302454
01:00:0A:00:00:00:00;1724717161;27/08/24;00:06:01;1.012;-0.035;0.089;0.05375614017248154;-0.018325956538319588;0.03787364438176155
01:00:0A:00:00:00:00;1724717162;27/08/24;00:06:02;1.016;-0.063;0.084;0.08796459436416626;-0.019547687843441963;0.02076941914856434
01:00:0A:00:00:00:00;1724717163;27/08/24;00:06:03;1.013;-0.058;0.089;0.14416420459747314;-0.013439035043120384;0.00855211354792118
01:00:0A:00:00:00:00;1724717164;27/08/24;00:06:04;1.014;-0.056;0.071;0.18081611394882202;-0.04153883829712868;0.021991148591041565
01:00:0A:00:00:00:00;1724717165;27/08/24;00:06:05;1.014;-0.044;0.086;0.23579397797584534;0.014660765416920185;-0.05375614017248154
01:00:0A:00:00:00:00;1724717166;27/08/24;00:06:06;1.013;0.004;0.097;0.18448130786418915;-0.019547687843441963;0.045204028487205505
01:00:0A:00:00:00:00;1724717167;27/08/24;00:06:07;1.013;-0.053;0.089;0.17470745742321014;-0.013439035043120384;0.05864306166768074
01:00:0A:00:00:00:00;1724717168;27/08/24;00:06:08;1.014;-0.029;0.086;0.21013763546943665;-0.01710422709584236;-0.04642575979232788
01:00:0A:00:00:00:00;1724717169;27/08/24;00:06:09;1.015;-0.001;0.082;0.17959438264369965;-0.009773843921720982;0.036651913076639175
01:00:0A:00:00:00:00;1724717170;27/08/24;00:06:10;1.014;-0.046;0.099;0.1722639948129654;-0.006108652334660292;0.040317103266716
01:00:0A:00:00:00:00;1724717171;27/08/24;00:06:11;1.015;-0.03;0.091;0.18570303916931152;-0.0354301817715168;-0.028099799528717995
01:00:0A:00:00:00:00;1724717172;27/08/24;00:06:12;1.016;-0.007;0.078;0.16859880089759827;0.004886921960860491;0.02932153083384037
01:00:0A:00:00:00:00;1724717173;27/08/24;00:06:13;1.012;-0.041;0.102;0.16004669666290283;0.004886921960860491;0.039095375686883926
01:00:0A:00:00:00:00;1724717174;27/08/24;00:06:14;1.015;-0.026;0.09;0.16249015927314758;-0.051312677562236786;-0.021991148591041565
01:00:0A:00:00:00:00;1724717175;27/08/24;00:06:15;1.015;-0.013;0.075;0.15271630883216858;0.0073303827084600925;0.028099799528717995
01:00:0A:00:00:00:00;1724717176;27/08/24;00:06:16;1.011;-0.037;0.107;0.14905111491680145;0.00855211354792118;0.024434609338641167
01:00:0A:00:00:00:00;1724717177;27/08/24;00:06:17;1.015;-0.023;0.082;0.1417207270860672;-0.05009094998240471;-0.00855211354792118
01:00:0A:00:00:00:00;1724717178;27/08/24;00:06:18;1.014;-0.018;0.083;0.13561207056045532;0.03176499158143997;0.015882495790719986
01:00:0A:00:00:00:00;1724717179;27/08/24;00:06:19;1.013;-0.024;0.109;0.10506881773471832;-0.036651913076639175;0.02932153083384037
01:00:0A:00:00:00:00;1724717180;27/08/24;00:06:20;1.014;-0.02;0.093;0.09407324343919754;-0.013439035043120384;-0.009773843921720982
01:00:0A:00:00:00:00;1724717181;27/08/24;00:06:21;1.016;-0.021;0.081;0.08185594528913498;-0.014660765416920185;0.02076941914856434
01:00:0A:00:00:00:00;1724717182;27/08/24;00:06:22;1.013;-0.035;0.089;0.09040805697441101;-0.0012217304902151227;0.010995574295520782
01:00:0A:00:00:00:00;1724717183;27/08/24;00:06:23;1.014;-0.019;0.094;0.08918632566928864;-0.02076941914856434;-0.0024434609804302454
01:00:0A:00:00:00:00;1724717184;27/08/24;00:06:24;1.016;-0.023;0.079;0.080634206533432;-0.014660765416920185;0.02076941914856434
01:00:0A:00:00:00:00;1724717185;27/08/24;00:06:25;1.016;-0.031;0.094;0.08918632566928864;0.004886921960860491;0.004886921960860491
01:00:0A:00:00:00:00;1724717186;27/08/24;00:06:26;1.015;-0.021;0.089;0.080634206533432;-0.030543262138962746;0.0012217304902151227
01:00:0A:00:00:00:00;1724717187;27/08/24;00:06:27;1.015;-0.024;0.081;0.080634206533432;-0.0036651913542300463;0.018325956538319588
01:00:0A:00:00:00:00;1724717188;27/08/24;00:06:28;1.015;-0.029;0.096;0.08307767659425735;-0.0073303827084600925;0.0073303827084600925
01:00:0A:00:00:00:00;1724717189;27/08/24;00:06:29;1.015;-0.021;0.083;0.07941248267889023;-0.02321287989616394;0.004886921960860491
01:00:0A:00:00:00:00;1724717190;27/08/24;00:06:30;1.015;-0.026;0.087;0.07941248267889023;-0.0012217304902151227;0.010995574295520782
01:00:0A:00:00:00:00;1724717191;27/08/24;00:06:31;1.014;-0.03;0.091;0.07819075137376785;-0.015882495790719986;0.009773843921720982
01:00:0A:00:00:00:00;1724717192;27/08/24;00:06:32;1.014;-0.023;0.088;0.07819075137376785;-0.015882495790719986;0.0024434609804302454
01:00:0A:00:00:00:00;1724717193;27/08/24;00:06:33;1.016;-0.027;0.084;0.0757472887635231;-0.0073303827084600925;0.01710422709584236
01:00:0A:00:00:00:00;1724717194;27/08/24;00:06:34;1.015;-0.028;0.092;0.080634206533432;-0.009773843921720982;0.0012217304902151227
01:00:0A:00:00:00:00;1724717195;27/08/24;00:06:35;1.014;-0.022;0.088;0.07452555745840073;-0.02321287989616394;0.0073303827084600925
01:00:0A:00:00:00:00;1724717196;27/08/24;00:06:36;1.015;-0.03;0.086;0.0757472887635231;-0.006108652334660292;0.015882495790719986
01:00:0A:00:00:00:00;1724717197;27/08/24;00:06:37;1.014;-0.024;0.092;0.07941248267889023;-0.00855211354792118;-0.0012217304902151227
01:00:0A:00:00:00:00;1724717198;27/08/24;00:06:38;1.015;-0.026;0.085;0.07208210229873657;-0.018325956538319588;0.015882495790719986
01:00:0A:00:00:00:00;1724717199;27/08/24;00:06:39;1.014;-0.027;0.087;0.07941248267889023;-0.0073303827084600925;0.004886921960860491
01:00:0A:00:00:00:00;1724717200;27/08/24;00:06:40;1.015;-0.024;0.094;0.07452555745840073;-0.012217304669320583;0.009773843921720982
01:00:0A:00:00:00:00;1724717201;27/08/24;00:06:41;1.014;-0.027;0.085;0.07452555745840073;-0.015882495790719986;0.00855211354792118
01:00:0A:00:00:00:00;1724717202;27/08/24;00:06:42;1.013;-0.025;0.088;0.07819075137376785;-0.0073303827084600925;0.006108652334660292
01:00:0A:00:00:00:00;1724717203;27/08/24;00:06:43;1.014;-0.027;0.09;0.07452555745840073;-0.014660765416920185;0.010995574295520782
01:00:0A:00:00:00:00;1724717204;27/08/24;00:06:44;1.014;-0.025;0.086;0.07452555745840073;-0.01710422709584236;0.0036651913542300463
01:00:0A:00:00:00:00;1724717205;27/08/24;00:06:45;1.014;-0.028;0.089;0.07452555745840073;-0.0036651913542300463;0.013439035043120384
01:00:0A:00:00:00:00;1724717206;27/08/24;00:06:46;1.014;-0.027;0.089;0.07452555745840073;-0.015882495790719986;0.0036651913542300463
01:00:0A:00:00:00:00;1724717207;27/08/24;00:06:47;1.015;-0.023;0.085;0.07208210229873657;-0.013439035043120384;0.010995574295520782
01:00:0A:00:00:00:00;1724717208;27/08/24;00:06:48;1.014;-0.027;0.089;0.07452555745840073;-0.00855211354792118;0.0073303827084600925
01:00:0A:00:00:00:00;1724717209;27/08/24;00:06:49;1.015;-0.024;0.089;0.07208210229873657;-0.015882495790719986;0.006108652334660292
01:00:0A:00:00:00:00;1724717210;27/08/24;00:06:50;1.015;-0.027;0.087;0.07208210229873657;-0.0073303827084600925;0.012217304669320583
01:00:0A:00:00:00:00;1724717211;27/08/24;00:06:51;1.015;-0.027;0.088;0.07330382615327835;-0.012217304669320583;0.0024434609804302454
01:00:0A:00:00:00:00;1724717212;27/08/24;00:06:52;1.016;-0.024;0.089;0.06963863223791122;-0.012217304669320583;0.010995574295520782
01:00:0A:00:00:00:00;1724717213;27/08/24;00:06:53;1.014;-0.028;0.087;0.0708603635430336;-0.013439035043120384;0.00855211354792118
01:00:0A:00:00:00:00;1724717214;27/08/24;00:06:54;1.014;-0.024;0.089;0.0708603635430336;-0.00855211354792118;0.006108652334660292
01:00:0A:00:00:00:00;1724717215;27/08/24;00:06:55;1.015;-0.027;0.089;0.06963863223791122;-0.013439035043120384;0.0073303827084600925
01:00:0A:00:00:00:00;1724717216;27/08/24;00:06:56;1.015;-0.027;0.087;0.06841690838336945;-0.015882495790719986;0.0073303827084600925
01:00:0A:00:00:00:00;1724717217;27/08/24;00:06:57;1.016;-0.026;0.089;0.06963863223791122;-0.006108652334660292;0.00855211354792118
01:00:0A:00:00:00:00;1724717218;27/08/24;00:06:58;1.014;-0.026;0.089;0.0659734457731247;-0.01710422709584236;0.00855211354792118
01:00:0A:00:00:00:00;1724717219;27/08/24;00:06:59;1.016;-0.027;0.087;0.06841690838336945;-0.00855211354792118;0.0073303827084600925
01:00:0A:00:00:00:00;1724717220;27/08/24;00:07:00;1.016;-0.026;0.089;0.06719517707824707;-0.012217304669320583;0.0073303827084600925
01:00:0A:00:00:00:00;1724717221;27/08/24;00:07:01;1.013;-0.024;0.087;0.06475171446800232;-0.014660765416920185;0.00855211354792118
01:00:0A:00:00:00:00;1724717222;27/08/24;00:07:02;1.014;-0.026;0.088;0.0659734457731247;-0.00855211354792118;0.0073303827084600925
01:00:0A:00:00:00:00;1724717223;27/08/24;00:07:03;1.015;-0.025;0.089;0.06475171446800232;-0.014660765416920185;0.006108652334660292
01:00:0A:00:00:00:00;1724717224;27/08/24;00:07:04;1.016;-0.027;0.089;0.06475171446800232;-0.009773843921720982;0.0073303827084600925
01:00:0A:00:00:00:00;1724717225;27/08/24;00:07:05;1.016;-0.028;0.089;0.06352998316287994;-0.013439035043120384;0.00855211354792118
01:00:0A:00:00:00:00;1724717226;27/08/24;00:07:06;1.013;-0.025;0.088;0.06352998316287994;-0.010995574295520782;0.0073303827084600925
01:00:0A:00:00:00:00;1724717227;27/08/24;00:07:07;1.015;-0.026;0.088;0.06230825558304787;-0.012217304669320583;0.00855211354792118
01:00:0A:00:00:00:00;1724717228;27/08/24;00:07:08;1.016;-0.026;0.089;0.06230825558304787;-0.012217304669320583;0.004886921960860491
01:00:0A:00:00:00:00;1724717229;27/08/24;00:07:09;1.016;-0.026;0.09;0.06108652427792549;-0.010995574295520782;0.0073303827084600925
01:00:0A:00:00:00:00;1724717230;27/08/24;00:07:10;1.015;-0.025;0.088;0.059864792972803116;-0.013439035043120384;0.009773843921720982
01:00:0A:00:00:00:00;1724717231;27/08/24;00:07:11;1.013;-0.026;0.089;0.06108652427792549;-0.009773843921720982;0.006108652334660292
01:00:0A:00:00:00:00;1724717232;27/08/24;00:07:12;1.014;-0.025;0.088;0.05864306166768074;-0.012217304669320583;0.0073303827084600925
01:00:0A:00:00:00:00;1724717233;27/08/24;00:07:13;1.015;-0.025;0.089;0.05742133408784866;-0.012217304669320583;0.0073303827084600925
01:00:0A:00:00:00:00;1724717234;27/08/24;00:07:14;1.016;-0.026;0.089;0.05742133408784866;-0.010995574295520782;0.0073303827084600925
01:00:0A:00:00:00:00;1724717235;27/08/24;00:07:15;1.014;-0.024;0.088;0.05619959905743599;-0.012217304669320583;0.00855211354792118
01:00:0A:00:00:00:00;1724717236;27/08/24;00:07:16;1.015;-0.027;0.089;0.05619959905743599;-0.009773843921720982;0.0073303827084600925
01:00:0A:00:00:00:00;1724717237;27/08/24;00:07:17;1.015;-0.025;0.089;0.05619959905743599;-0.012217304669320583;0.0073303827084600925
01:00:0A:00:00:00:00;1724717238;27/08/24;00:07:18;1.014;-0.025;0.089;0.05497787147760391;-0.012217304669320583;0.006108652334660292
01:00:0A:00:00:00:00;1724717239;27/08/24;00:07:19;1.015;-0.027;0.089;0.05375614017248154;-0.010995574295520782;0.00855211354792118
01:00:0A:00:00:00:00;1724717240;27/08/24;00:07:20;1.014;-0.025;0.088;0.05375614017248154;-0.012217304669320583;0.004886921960860491
01:00:0A:00:00:00:00;1724717241;27/08/24;00:07:21;1.014;-0.026;0.09;0.05253440886735916;-0.010995574295520782;0.0073303827084600925
01:00:0A:00:00:00:00;1724717242;27/08/24;00:07:22;1.015;-0.026;0.089;0.051312677562236786;-0.012217304669320583;0.0073303827084600925
01:00:0A:00:00:00:00;1724717243;27/08/24;00:07:23;1.015;-0.025;0.087;0.05009094998240471;-0.010995574295520782;0.006108652334660292
01:00:0A:00:00:00:00;1724717244;27/08/24;00:07:24;1.015;-0.026;0.089;0.04886921867728233;-0.012217304669320583;0.0073303827084600925
01:00:0A:00:00:00:00;1724717245;27/08/24;00:07:25;1.014;-0.024;0.088;0.04886921867728233;-0.010995574295520782;0.004886921960860491
01:00:0A:00:00:00:00;1724717246;27/08/24;00:07:26;1.015;-0.027;0.09;0.04764748737215996;-0.009773843921720982;0.0073303827084600925
01:00:0A:00:00:00:00;1724717247;27/08/24;00:07:27;1.015;-0.023;0.088;0.04642575979232788;-0.013439035043120384;0.006108652334660292
01:00:0A:00:00:00:00;1724717248;27/08/24;00:07:28;1.015;-0.026;0.088;0.04642575979232788;-0.010995574295520782;0.0073303827084600925
01:00:0A:00:00:00:00;1724717249;27/08/24;00:07:29;1.014;-0.025;0.088;0.04642575979232788;-0.012217304669320583;0.004886921960860491
01:00:0A:00:00:00:00;1724717250;27/08/24;00:07:30;1.015;-0.026;0.088;0.045204028487205505;-0.010995574295520782;0.0073303827084600925
01:00:0A:00:00:00:00;1724717251;27/08/24;00:07:31;1.015;-0.026;0.088;0.045204028487205505;-0.010995574295520782;0.006108652334660292
01:00:0A:00:00:00:00;1724717252;27/08/24;00:07:32;1.014;-0.024;0.087;0.04398229718208313;-0.014660765416920185;0.004886921960860491
01:00:0A:00:00:00:00;1724717253;27/08/24;00:07:33;1.015;-0.026;0.089;0.04398229718208313;-0.010995574295520782;0.006108652334660292
01:00:0A:00:00:00:00;1724717254;27/08/24;00:07:34;1.014;-0.026;0.087;0.045204028487205505;-0.012217304669320583;0.004886921960860491
01:00:0A:00:00:00:00;1724717255;27/08/24;00:07:35;1.014;-0.025;0.09;0.045204028487205505;-0.010995574295520782;0.006108652334660292
01:00:0A:00:00:00:00;1724717256;27/08/24;00:07:36;1.014;-0.025;0.088;0.04398229718208313;-0.012217304669320583;0.0073303827084600925
01:00:0A:00:00:00:00;1724717257;27/08/24;00:07:37;1.015;-0.027;0.09;0.045204028487205505;-0.012217304669320583;0.006108652334660292
01:00:0A:00:00:00:00;1724717258;27/08/24;00:07:38;1.015;-0.028;0.089;0.045204028487205505;-0.010995574295520782;0.0073303827084600925
01:00:0A:00:00:00:00;1724717259;27/08/24;00:07:39;1.014;-0.027;0.088;0.045204028487205505;-0.012217304669320583;0.004886921960860491
01:00:0A:00:00:00:00;1724717260;27/08/24;00:07:40;1.016;-0.026;0.09;0.045204028487205505;-0.009773843921720982;0.0073303827084600925
01:00:0A:00:00:00:00;1724717261;27/08/24;00:07:41;1.015;-0.025;0.087;0.04398229718208313;-0.013439035043120384;0.006108652334660292
01:00:0A:00:00:00:00;1724717262;27/08/24;00:07:42;1.014;-0.026;0.088;0.04398229718208313;-0.010995574295520782;0.0073303827084600925
01:00:0A:00:00:00:00;1724717263;27/08/24;00:07:43;1.014;-0.027;0.089;0.04398229718208313;-0.010995574295520782;0.004886921960860491
01:00:0A:00:00:00:00;1724717264;27/08/24;00:07:44;1.016;-0.026;0.089;0.04398229718208313;-0.010995574295520782;0.006108652334660292
01:00:0A:00:00:00:00;1724717265;27/08/24;00:07:45;1.015;-0.026;0.088;0.04398229718208313;-0.009773843921720982;0.006108652334660292
01:00:0A:00:00:00:00;1724717266;27/08/24;00:07:46;1.014;-0.026;0.088;0.042760565876960754;-0.015882495790719986;0.006108652334660292
01:00:0A:00:00:00:00;1724717267;27/08/24;00:07:47;1.016;-0.027;0.091;0.04398229718208313;-0.009773843921720982;0.006108652334660292
01:00:0A:00:00:00:00;1724717268;27/08/24;00:07:48;1.013;-0.026;0.088;0.042760565876960754;-0.012217304669320583;0.006108652334660292
01:00:0A:00:00:00:00;1724717269;27/08/24;00:07:49;1.016;-0.006;0.06;0.02932153083384037;-0.0354301817715168;-0.025656338781118393
01:00:0A:00:00:00:00;1724717270;27/08/24;00:07:50;1.015;0.016;0.049;-0.006108652334660292;-0.0073303827084600925;0.0036651913542300463
01:00:0A:00:00:00:00;1724717271;27/08/24;00:07:51;1.015;-0.028;0.079;-0.030543262138962746;0.018325956538319588;0.051312677562236786
01:00:0A:00:00:00:00;1724717272;27/08/24;00:07:52;1.013;-0.044;0.106;-0.00855211354792118;0.0;-0.015882495790719986
01:00:0A:00:00:00:00;1724717273;27/08/24;00:07:53;1.015;-0.007;0.083;-0.014660765416920185;-0.039095375686883926;-0.019547687843441963
01:00:0A:00:00:00:00;1724717274;27/08/24;00:07:54;1.014;-0.027;0.08;-0.02321287989616394;0.00855211354792118;0.042760565876960754
01:00:0A:00:00:00:00;1724717275;27/08/24;00:07:55;1.013;-0.042;0.102;-0.0024434609804302454;-0.0036651913542300463;-0.013439035043120384
01:00:0A:00:00:00:00;1724717276;27/08/24;00:07:56;1.015;-0.009;0.085;-0.009773843921720982;-0.03298672288656235;-0.014660765416920185
01:00:0A:00:00:00:00;1724717277;27/08/24;00:07:57;1.014;-0.027;0.081;-0.01710422709584236;0.004886921960860491;0.03787364438176155
01:00:0A:00:00:00:00;1724717278;27/08/24;00:07:58;1.013;-0.039;0.098;0.0012217304902151227;-0.00855211354792118;-0.018325956538319588
01:00:0A:00:00:00:00;1724717279;27/08/24;00:07:59;1.014;-0.01;0.086;-0.006108652334660292;-0.02932153083384037;-0.009773843921720982
01:00:0A:00:00:00:00;1724717280;27/08/24;00:08:00;1.016;-0.031;0.082;-0.010995574295520782;0.0012217304902151227;0.03298672288656235
01:00:0A:00:00:00:00;1724717281;27/08/24;00:08:01;1.014;-0.038;0.097;0.006108652334660292;-0.004886921960860491;-0.01710422709584236
01:00:0A:00:00:00:00;1724717282;27/08/24;00:08:02;1.015;-0.012;0.084;-0.0036651913542300463;-0.02687807008624077;-0.0012217304902151227
01:00:0A:00:00:00:00;1724717283;27/08/24;00:08:03;1.016;-0.031;0.083;-0.004886921960860491;0.0012217304902151227;0.028099799528717995
01:00:0A:00:00:00:00;1724717284;27/08/24;00:08:04;1.014;-0.035;0.097;0.009773843921720982;-0.0073303827084600925;-0.013439035043120384
01:00:0A:00:00:00:00;1724717285;27/08/24;00:08:05;1.015;-0.014;0.085;0.0012217304902151227;-0.02687807008624077;-0.0012217304902151227
01:00:0A:00:00:00:00;1724717286;27/08/24;00:08:06;1.015;-0.03;0.085;0.0012217304902151227;0.0024434609804302454;0.024434609338641167
01:00:0A:00:00:00:00;1724717287;27/08/24;00:08:07;1.014;-0.031;0.094;0.013439035043120384;-0.010995574295520782;-0.013439035043120384
01:00:0A:00:00:00:00;1724717288;27/08/24;00:08:08;1.014;-0.016;0.084;0.004886921960860491;-0.021991148591041565;0.0024434609804302454
01:00:0A:00:00:00:00;1724717289;27/08/24;00:08:09;1.015;-0.031;0.085;0.006108652334660292;-0.0024434609804302454;0.019547687843441963
01:00:0A:00:00:00:00;1724717290;27/08/24;00:08:10;1.014;-0.03;0.095;0.01710422709584236;-0.010995574295520782;-0.012217304669320583
01:00:0A:00:00:00:00;1724717291;27/08/24;00:08:11;1.015;-0.015;0.084;0.006108652334660292;-0.02687807008624077;-0.0036651913542300463
01:00:0A:00:00:00:00;1724717292;27/08/24;00:08:12;1.015;-0.013;0.072;-0.0073303827084600925;-0.01710422709584236;0.0012217304902151227
01:00:0A:00:00:00:00;1724717293;27/08/24;00:08:13;1.015;-0.008;0.08;-0.024434609338641167;-0.0024434609804302454;-0.012217304669320583
01:00:0A:00:00:00:00;1724717294;27/08/24;00:08:14;1.014;-0.006;0.091;-0.0659734457731247;-0.006108652334660292;0.028099799528717995
01:00:0A:00:00:00:00;1724717295;27/08/24;00:08:15;1.015;-0.047;0.087;-0.05742133408784866;-0.015882495790719986;0.02076941914856434
01:00:0A:00:00:00:00;1724717296;27/08/24;00:08:16;1.015;-0.021;0.085;-0.02687807008624077;-0.0036651913542300463;-0.042760565876960754
01:00:0A:00:00:00:00;1724717297;27/08/24;00:08:17;1.015;-0.01;0.093;-0.05253440886735916;-0.013439035043120384;0.02687807008624077
01:00:0A:00:00:00:00;1724717298;27/08/24;00:08:18;1.014;-0.046;0.085;-0.04153883829712868;-0.015882495790719986;0.009773843921720982
01:00:0A:00:00:00:00;1724717299;27/08/24;00:08:19;1.015;-0.021;0.087;-0.019547687843441963;-0.0012217304902151227;-0.0354301817715168
01:00:0A:00:00:00:00;1724717300;27/08/24;00:08:20;1.014;-0.016;0.093;-0.045204028487205505;-0.015882495790719986;0.030543262138962746
01:00:0A:00:00:00:00;1724717301;27/08/24;00:08:21;1.015;-0.041;0.081;-0.03176499158143997;-0.01710422709584236;0.006108652334660292
01:00:0A:00:00:00:00;1724717302;27/08/24;00:08:22;1.014;-0.019;0.089;-0.013439035043120384;0.0012217304902151227;-0.028099799528717995
01:00:0A:00:00:00:00;1724717303;27/08/24;00:08:23;1.014;-0.019;0.093;-0.03787364438176155;-0.019547687843441963;0.02687807008624077
01:00:0A:00:00:00:00;1724717304;27/08/24;00:08:24;1.015;-0.04;0.081;-0.024434609338641167;-0.014660765416920185;0.0024434609804302454
01:00:0A:00:00:00:00;1724717305;27/08/24;00:08:25;1.015;-0.017;0.093;-0.010995574295520782;0.0024434609804302454;-0.018325956538319588
01:00:0A:00:00:00:00;1724717306;27/08/24;00:08:26;1.015;-0.021;0.089;-0.03298672288656235;-0.024434609338641167;0.024434609338641167
01:00:0A:00:00:00:00;1724717307;27/08/24;00:08:27;1.015;-0.037;0.081;-0.015882495790719986;-0.0073303827084600925;-0.0036651913542300463
01:00:0A:00:00:00:00;1724717308;27/08/24;00:08:28;1.014;-0.017;0.092;-0.010995574295520782;-0.0036651913542300463;-0.012217304669320583
01:00:0A:00:00:00:00;1724717309;27/08/24;00:08:29;1.015;-0.025;0.088;-0.028099799528717995;-0.02076941914856434;0.019547687843441963
01:00:0A:00:00:00:00;1724717310;27/08/24;00:08:30;1.014;-0.021;0.085;-0.028099799528717995;-0.004886921960860491;-0.013439035043120384
01:00:0A:00:00:00:00;1724717311;27/08/24;00:08:31;1.015;-0.02;0.091;-0.039095375686883926;-0.010995574295520782;0.013439035043120384
01:00:0A:00:00:00:00;1724717312;27/08/24;00:08:32;1.015;-0.014;0.097;-0.05619959905743599;-0.00855211354792118;-0.010995574295520782
01:00:0A:00:00:00:00;1724717313;27/08/24;00:08:33;1.014;-0.027;0.083;-0.06841690838336945;-0.025656338781118393;0.021991148591041565
01:00:0A:00:00:00:00;1724717314;27/08/24;00:08:34;1.013;-0.034;0.085;-0.04398229718208313;0.006108652334660292;-0.013439035043120384
01:00:0A:00:00:00:00;1724717315;27/08/24;00:08:35;1.012;-0.016;0.097;-0.04886921867728233;-0.015882495790719986;-0.0073303827084600925
01:00:0A:00:00:00:00;1724717316;27/08/24;00:08:36;1.014;-0.028;0.082;-0.05742133408784866;-0.02321287989616394;0.015882495790719986
01:00:0A:00:00:00:00;1724717317;27/08/24;00:08:37;1.016;-0.032;0.087;-0.039095375686883926;0.006108652334660292;-0.009773843921720982
01:00:0A:00:00:00:00;1724717318;27/08/24;00:08:38;1.015;-0.019;0.094;-0.04642575979232788;-0.01710422709584236;-0.0012217304902151227
01:00:0A:00:00:00:00;1724717319;27/08/24;00:08:39;1.016;-0.027;0.082;-0.051312677562236786;-0.018325956538319588;0.013439035043120384
01:00:0A:00:00:00:00;1724717320;27/08/24;00:08:40;1.014;-0.029;0.086;-0.036651913076639175;0.0012217304902151227;-0.00855211354792118
01:00:0A:00:00:00:00;1724717321;27/08/24;00:08:41;1.014;-0.02;0.094;-0.042760565876960754;-0.013439035043120384;0.0
01:00:0A:00:00:00:00;1724717322;27/08/24;00:08:42;1.014;-0.028;0.085;-0.04642575979232788;-0.02076941914856434;0.009773843921720982
01:00:0A:00:00:00:00;1724717323;27/08/24;00:08:43;1.015;-0.027;0.088;-0.03420845419168472;0.0012217304902151227;-0.006108652334660292
01:00:0A:00:00:00:00;1724717324;27/08/24;00:08:44;1.015;-0.021;0.094;-0.040317103266716;-0.014660765416920185;0.0012217304902151227
01:00:0A:00:00:00:00;1724717325;27/08/24;00:08:45;1.015;-0.028;0.081;-0.04153883829712868;-0.019547687843441963;0.004886921960860491
01:00:0A:00:00:00:00;1724717326;27/08/24;00:08:46;1.015;-0.027;0.088;-0.03298672288656235;0.0036651913542300463;-0.0024434609804302454
01:00:0A:00:00:00:00;1724717327;27/08/24;00:08:47;1.013;-0.022;0.094;-0.039095375686883926;-0.019547687843441963;0.0
01:00:0A:00:00:00:00;1724717328;27/08/24;00:08:48;1.015;-0.026;0.082;-0.039095375686883926;-0.014660765416920185;0.004886921960860491
01:00:0A:00:00:00:00;1724717329;27/08/24;00:08:49;1.015;-0.026;0.09;-0.03176499158143997;0.0;-0.0024434609804302454
01:00:0A:00:00:00:00;1724717330;27/08/24;00:08:50;1.015;-0.025;0.092;-0.03787364438176155;-0.019547687843441963;0.0012217304902151227
01:00:0A:00:00:00:00;1724717331;27/08/24;00:08:51;1.015;-0.026;0.084;-0.036651913076639175;-0.010995574295520782;0.004886921960860491
01:00:0A:00:00:00:00;1724717332;27/08/24;00:08:52;1.016;-0.025;0.09;-0.03176499158143997;-0.004886921960860491;-0.0024434609804302454
01:00:0A:00:00:00:00;1724717333;27/08/24;00:08:53;1.015;-0.025;0.091;-0.0354301817715168;-0.015882495790719986;0.0024434609804302454
01:00:0A:00:00:00:00;1724717334;27/08/24;00:08:54;1.015;-0.026;0.084;-0.03298672288656235;-0.013439035043120384;0.0012217304902151227
01:00:0A:00:00:00:00;1724717335;27/08/24;00:08:55;1.015;-0.025;0.09;-0.02932153083384037;-0.0036651913542300463;0.0
01:00:0A:00:00:00:00;1724717336;27/08/24;00:08:56;1.016;-0.026;0.091;-0.03298672288656235;-0.01710422709584236;0.0024434609804302454
01:00:0A:00:00:00:00;1724717337;27/08/24;00:08:57;1.015;-0.025;0.085;-0.030543262138962746;-0.012217304669320583;0.0
01:00:0A:00:00:00:00;1724717338;27/08/24;00:08:58;1.015;-0.026;0.09;-0.02932153083384037;-0.0024434609804302454;0.0024434609804302454
01:00:0A:00:00:00:00;1724717339;27/08/24;00:08:59;1.014;-0.026;0.09;-0.030543262138962746;-0.018325956538319588;-0.0012217304902151227
01:00:0A:00:00:00:00;1724717340;27/08/24;00:09:00;1.015;-0.026;0.085;-0.02932153083384037;-0.009773843921720982;0.0036651913542300463
01:00:0A:00:00:00:00;1724717341;27/08/24;00:09:01;1.016;-0.025;0.091;-0.02687807008624077;-0.0073303827084600925;0.0012217304902151227
01:00:0A:00:00:00:00;1724717342;27/08/24;00:09:02;1.015;-0.024;0.088;-0.028099799528717995;-0.01710422709584236;0.0
01:00:0A:00:00:00:00;1724717343;27/08/24;00:09:03;1.014;-0.027;0.086;-0.02687807008624077;-0.0073303827084600925;0.0036651913542300463
01:00:0A:00:00:00:00;1724717344;27/08/24;00:09:04;1.014;-0.028;0.09;-0.025656338781118393;-0.009773843921720982;0.0
01:00:0A:00:00:00:00;1724717345;27/08/24;00:09:05;1.015;-0.025;0.089;-0.02687807008624077;-0.013439035043120384;0.0036651913542300463
01:00:0A:00:00:00:00;1724717346;27/08/24;00:09:06;1.014;-0.026;0.087;-0.024434609338641167;-0.009773843921720982;0.0
01:00:0A:00:00:00:00;1724717347;27/08/24;00:09:07;1.014;-0.026;0.09;-0.02321287989616394;-0.00855211354792118;0.0024434609804302454
01:00:0A:00:00:00:00;1724717348;27/08/24;00:09:08;1.015;-0.026;0.088;-0.024434609338641167;-0.014660765416920185;0.0012217304902151227
01:00:0A:00:00:00:00;1724717349;27/08/24;00:09:09;1.014;-0.024;0.086;-0.021991148591041565;-0.009773843921720982;0.0012217304902151227
01:00:0A:00:00:00:00;1724717350;27/08/24;00:09:10;1.014;-0.027;0.089;-0.02321287989616394;-0.009773843921720982;0.004886921960860491
01:00:0A:00:00:00:00;1724717351;27/08/24;00:09:11;1.015;-0.025;0.089;-0.021991148591041565;-0.014660765416920185;-0.0012217304902151227
01:00:0A:00:00:00:00;1724717352;27/08/24;00:09:12;1.015;-0.026;0.088;-0.02076941914856434;-0.00855211354792118;0.004886921960860491
01:00:0A:00:00:00:00;1724717353;27/08/24;00:09:13;1.016;-0.028;0.091;-0.019547687843441963;-0.010995574295520782;0.0012217304902151227
01:00:0A:00:00:00:00;1724717354;27/08/24;00:09:14;1.016;-0.025;0.086;-0.02076941914856434;-0.013439035043120384;0.0012217304902151227
01:00:0A:00:00:00:00;1724717355;27/08/24;00:09:15;1.014;-0.026;0.089;-0.019547687843441963;-0.00855211354792118;0.0036651913542300463
01:00:0A:00:00:00:00;1724717356;27/08/24;00:09:16;1.015;-0.026;0.089;-0.018325956538319588;-0.010995574295520782;0.0
01:00:0A:00:00:00:00;1724717357;27/08/24;00:09:17;1.014;-0.026;0.088;-0.019547687843441963;-0.012217304669320583;0.0036651913542300463
01:00:0A:00:00:00:00;1724717358;27/08/24;00:09:18;1.015;-0.027;0.088;-0.01710422709584236;-0.010995574295520782;0.0012217304902151227
01:00:0A:00:00:00:00;1724717359;27/08/24;00:09:19;1.014;-0.025;0.089;-0.018325956538319588;-0.010995574295520782;0.0036651913542300463
01:00:0A:00:00:00:00;1724717360;27/08/24;00:09:20;1.015;-0.027;0.089;-0.015882495790719986;-0.012217304669320583;0.0012217304902151227
01:00:0A:00:00:00:00;1724717361;27/08/24;00:09:21;1.014;-0.024;0.088;-0.015882495790719986;-0.009773843921720982;0.0024434609804302454
01:00:0A:00:00:00:00;1724717362;27/08/24;00:09:22;1.013;-0.027;0.088;-0.015882495790719986;-0.012217304669320583;0.0036651913542300463
01:00:0A:00:00:00:00;1724717363;27/08/24;00:09:23;1.016;-0.025;0.088;-0.013439035043120384;-0.012217304669320583;0.0
01:00:0A:00:00:00:00;1724717364;27/08/24;00:09:24;1.014;-0.025;0.088;-0.014660765416920185;-0.010995574295520782;0.004886921960860491
01:00:0A:00:00:00:00;1724717365;27/08/24;00:09:25;1.014;-0.027;0.089;-0.012217304669320583;-0.010995574295520782;0.0
01:00:0A:00:00:00:00;1724717366;27/08/24;00:09:26;1.016;-0.024;0.089;-0.012217304669320583;-0.012217304669320583;0.0024434609804302454
01:00:0A:00:00:00:00;1724717367;27/08/24;00:09:27;1.015;-0.027;0.088;-0.010995574295520782;-0.010995574295520782;0.0036651913542300463
01:00:0A:00:00:00:00;1724717368;27/08/24;00:09:28;1.015;-0.025;0.088;-0.009773843921720982;-0.012217304669320583;0.0012217304902151227
01:00:0A:00:00:00:00;1724717369;27/08/24;00:09:29;1.014;-0.025;0.086;-0.009773843921720982;-0.012217304669320583;0.0036651913542300463
01:00:0A:00:00:00:00;1724717370;27/08/24;00:09:30;1.011;-0.051;0.074;0.04764748737215996;-0.00855211354792118;0.01710422709584236
01:00:0A:00:00:00:00;1724717371;27/08/24;00:09:31;1.015;-0.023;0.098;0.0659734457731247;0.006108652334660292;-0.036651913076639175
01:00:0A:00:00:00:00;1724717372;27/08/24;00:09:32;1.016;-0.011;0.088;0.02687807008624077;-0.03298672288656235;0.03420845419168472
01:00:0A:00:00:00:00;1724717373;27/08/24;00:09:33;1.015;-0.045;0.079;0.04153883829712868;-0.0024434609804302454;0.02076941914856434
01:00:0A:00:00:00:00;1724717374;27/08/24;00:09:34;1.014;-0.019;0.097;0.05864306166768074;-0.0024434609804302454;-0.030543262138962746
01:00:0A:00:00:00:00;1724717375;27/08/24;00:09:35;1.014;-0.013;0.086;0.028099799528717995;-0.02932153083384037;0.03420845419168472
01:00:0A:00:00:00:00;1724717376;27/08/24;00:09:36;1.015;-0.043;0.081;0.04398229718208313;-0.0024434609804302454;0.013439035043120384
01:00:0A:00:00:00:00;1724717377;27/08/24;00:09:37;1.013;-0.017;0.095;0.05497787147760391;-0.009773843921720982;-0.025656338781118393
01:00:0A:00:00:00:00;1724717378;27/08/24;00:09:38;1.015;-0.017;0.084;0.02932153083384037;-0.024434609338641167;0.03420845419168472
01:00:0A:00:00:00:00;1724717379;27/08/24;00:09:39;1.015;-0.041;0.085;0.04886921867728233;-0.0012217304902151227;0.0012217304902151227
01:00:0A:00:00:00:00;1724717380;27/08/24;00:09:40;1.016;-0.016;0.093;0.05253440886735916;-0.012217304669320583;-0.01710422709584236
01:00:0A:00:00:00:00;1724717381;27/08/24;00:09:41;1.015;-0.024;0.084;0.03176499158143997;-0.019547687843441963;0.03420845419168472
01:00:0A:00:00:00:00;1724717382;27/08/24;00:09:42;1.015;-0.04;0.087;0.07208210229873657;-0.0024434609804302454;0.009773843921720982
01:00:0A:00:00:00:00;1724717383;27/08/24;00:09:43;1.015;-0.026;0.091;0.09896016865968704;-0.01710422709584236;-0.00855211354792118
01:00:0A:00:00:00:00;1724717384;27/08/24;00:09:44;1.016;-0.024;0.083;0.1111774742603302;-0.012217304669320583;0.014660765416920185
01:00:0A:00:00:00:00;1724717385;27/08/24;00:09:45;1.015;-0.03;0.09;0.10873401165008545;-0.004886921960860491;0.013439035043120384
01:00:0A:00:00:00:00;1724717386;27/08/24;00:09:46;1.015;-0.025;0.09;0.10384709388017654;-0.019547687843441963;0.004886921960860491
01:00:0A:00:00:00:00;1724717387;27/08/24;00:09:47;1.016;-0.023;0.083;0.10018189996480942;-0.009773843921720982;0.013439035043120384
01:00:0A:00:00:00:00;1724717388;27/08/24;00:09:48;1.014;-0.029;0.093;0.10018189996480942;-0.006108652334660292;0.009773843921720982
01:00:0A:00:00:00:00;1724717389;27/08/24;00:09:49;1.014;-0.024;0.088;0.09529497474431992;-0.02076941914856434;0.006108652334660292
01:00:0A:00:00:00:00;1724717390;27/08/24;00:09:50;1.014;-0.026;0.085;0.09285151958465576;-0.006108652334660292;0.013439035043120384
01:00:0A:00:00:00:00;1724717391;27/08/24;00:09:51;1.014;-0.026;0.091;0.09285151958465576;-0.009773843921720982;0.0073303827084600925
01:00:0A:00:00:00:00;1724717392;27/08/24;00:09:52;1.014;-0.024;0.086;0.08796459436416626;-0.019547687843441963;0.0073303827084600925
01:00:0A:00:00:00:00;1724717393;27/08/24;00:09:53;1.015;-0.025;0.087;0.08674286305904388;-0.0073303827084600925;0.010995574295520782
01:00:0A:00:00:00:00;1724717394;27/08/24;00:09:54;1.014;-0.026;0.091;0.08429940044879913;-0.010995574295520782;0.0073303827084600925
01:00:0A:00:00:00:00;1724717395;27/08/24;00:09:55;1.016;-0.024;0.087;0.07941248267889023;-0.01710422709584236;0.00855211354792118
01:00:0A:00:00:00:00;1724717396;27/08/24;00:09:56;1.015;-0.026;0.087;0.07941248267889023;-0.0073303827084600925;0.009773843921720982
01:00:0A:00:00:00:00;1724717397;27/08/24;00:09:57;1.014;-0.025;0.091;0.07819075137376785;-0.010995574295520782;0.006108652334660292
01:00:0A:00:00:00:00;1724717398;27/08/24;00:09:58;1.015;-0.025;0.087;0.07330382615327835;-0.01710422709584236;0.009773843921720982
01:00:0A:00:00:00:00;1724717399;27/08/24;00:09:59;1.015;-0.027;0.087;0.0757472887635231;-0.0073303827084600925;0.0073303827084600925
01:00:0A:00:00:00:00;1724717400;27/08/24;00:10:00;1.014;-0.026;0.091;0.07208210229873657;-0.012217304669320583;0.006108652334660292
01:00:0A:00:00:00:00;1724717411;27/08/24;00:10:11;1.015;-0.026;0.089;0.06230825558304787;-0.009773843921720982;0.004886921960860491
01:00:0A:00:00:00:00;1724717412;27/08/24;00:10:12;1.014;-0.024;0.088;0.059864792972803116;-0.013439035043120384;0.0073303827084600925
01:00:0A:00:00:00:00;1724717413;27/08/24;00:10:13;1.015;-0.026;0.087;0.059864792972803116;-0.010995574295520782;0.00855211354792118
01:00:0A:00:00:00:00;1724717414;27/08/24;00:10:14;1.014;-0.027;0.089;0.06230825558304787;-0.009773843921720982;0.004886921960860491
01:00:0A:00:00:00:00;1724717415;27/08/24;00:10:15;1.015;-0.024;0.088;0.05864306166768074;-0.013439035043120384;0.009773843921720982
01:00:0A:00:00:00:00;1724717416;27/08/24;00:10:16;1.015;-0.027;0.088;0.06108652427792549;-0.010995574295520782;0.006108652334660292
01:00:0A:00:00:00:00;1724717417;27/08/24;00:10:17;1.015;-0.025;0.088;0.06108652427792549;-0.010995574295520782;0.006108652334660292
01:00:0A:00:00:00:00;1724717418;27/08/24;00:10:18;1.016;-0.026;0.089;0.059864792972803116;-0.013439035043120384;0.00855211354792118
01:00:0A:00:00:00:00;1724717419;27/08/24;00:10:19;1.015;-0.027;0.087;0.06108652427792549;-0.010995574295520782;0.006108652334660292
01:00:0A:00:00:00:00;1724717420;27/08/24;00:10:20;1.015;-0.026;0.089;0.06108652427792549;-0.012217304669320583;0.0073303827084600925
01:00:0A:00:00:00:00;1724717421;27/08/24;00:10:21;1.015;-0.026;0.087;0.06108652427792549;-0.012217304669320583;0.0073303827084600925
01:00:0A:00:00:00:00;1724717422;27/08/24;00:10:22;1.016;-0.027;0.088;0.06108652427792549;-0.010995574295520782;0.0073303827084600925
01:00:0A:00:00:00:00;1724717423;27/08/24;00:10:23;1.014;-0.026;0.089;0.06230825558304787;-0.012217304669320583;0.006108652334660292
01:00:0A:00:00:00:00;1724717424;27/08/24;00:10:24;1.015;-0.026;0.088;0.06108652427792549;-0.012217304669320583;0.00855211354792118
01:00:0A:00:00:00:00;1724717425;27/08/24;00:10:25;1.015;-0.027;0.088;0.06230825558304787;-0.010995574295520782;0.006108652334660292
01:00:0A:00:00:00:00;1724717426;27/08/24;00:10:26;1.015;-0.025;0.088;0.06108652427792549;-0.012217304669320583;0.006108652334660292
01:00:0A:00:00:00:00;1724717427;27/08/24;00:10:27;1.015;-0.026;0.088;0.059864792972803116;-0.012217304669320583;0.009773843921720982
01:00:0A:00:00:00:00;1724717428;27/08/24;00:10:28;1.015;-0.026;0.089;0.06108652427792549;-0.010995574295520782;0.006108652334660292
01:00:0A:00:00:00:00;1724717429;27/08/24;00:10:29;1.015;-0.025;0.088;0.059864792972803116;-0.012217304669320583;0.0073303827084600925
01:00:0A:00:00:00:00;1724717430;27/08/24;00:10:30;1.015;-0.027;0.09;0.05864306166768074;-0.012217304669320583;0.0073303827084600925
01:00:0A:00:00:00:00;1724717431;27/08/24;00:10:31;1.016;-0.026;0.088;0.05864306166768074;-0.010995574295520782;0.006108652334660292
01:00:0A:00:00:00:00;1724717432;27/08/24;00:10:32;1.014;-0.026;0.089;0.05742133408784866;-0.010995574295520782;0.0073303827084600925
01:00:0A:00:00:00:00;1724717433;27/08/24;00:10:33;1.015;-0.026;0.088;0.05742133408784866;-0.012217304669320583;0.0073303827084600925
01:00:0A:00:00:00:00;1724717434;27/08/24;00:10:34;1.015;-0.025;0.089;0.05742133408784866;-0.010995574295520782;0.006108652334660292
01:00:0A:00:00:00:00;1724717435;27/08/24;00:10:35;1.015;-0.026;0.088;0.05619959905743599;-0.012217304669320583;0.006108652334660292
01:00:0A:00:00:00:00;1724717436;27/08/24;00:10:36;1.015;-0.027;0.087;0.05497787147760391;-0.010995574295520782;0.0073303827084600925
01:00:0A:00:00:00:00;1724717437;27/08/24;00:10:37;1.016;-0.026;0.089;0.05497787147760391;-0.010995574295520782;0.006108652334660292
01:00:0A:00:00:00:00;1724717438;27/08/24;00:10:38;1.014;-0.026;0.088;0.05375614017248154;-0.012217304669320583;0.006108652334660292
01:00:0A:00:00:00:00;1724717439;27/08/24;00:10:39;1.015;-0.027;0.088;0.05253440886735916;-0.010995574295520782;0.0073303827084600925
01:00:0A:00:00:00:00;1724717440;27/08/24;00:10:40;1.015;-0.027;0.089;0.05253440886735916;-0.012217304669320583;0.004886921960860491
01:00:0A:00:00:00:00;1724717441;27/08/24;00:10:41;1.015;-0.025;0.088;0.051312677562236786;-0.010995574295520782;0.0073303827084600925
01:00:0A:00:00:00:00;1724717442;27/08/24;00:10:42;1.015;-0.026;0.089;0.05009094998240471;-0.012217304669320583;0.006108652334660292
01:00:0A:00:00:00:00;1724717443;27/08/24;00:10:43;1.014;-0.025;0.088;0.05253440886735916;-0.010995574295520782;0.006108652334660292
01:00:0A:00:00:00:00;1724717444;27/08/24;00:10:44;1.015;-0.043;0.09;-0.036651913076639175;-0.01710422709584236;0.025656338781118393
01:00:0A:00:00:00:00;1724717445;27/08/24;00:10:45;1.014;-0.042;0.088;-0.04886921867728233;-0.006108652334660292;-0.010995574295520782
01:00:0A:00:00:00:00;1724717446;27/08/24;00:10:46;1.014;-0.02;0.094;-0.042760565876960754;-0.015882495790719986;-0.02687807008624077
01:00:0A:00:00:00:00;1724717447;27/08/24;00:10:47;1.014;-0.018;0.083;-0.05497787147760391;-0.01710422709584236;0.021991148591041565
01:00:0A:00:00:00:00;1724717448;27/08/24;00:10:48;1.014;-0.038;0.087;-0.039095375686883926;-0.0012217304902151227;0.004886921960860491
01:00:0A:00:00:00:00;1724717449;27/08/24;00:10:49;1.015;-0.019;0.094;-0.03176499158143997;-0.014660765416920185;-0.019547687843441963
01:00:0A:00:00:00:00;1724717450;27/08/24;00:10:50;1.015;-0.02;0.084;-0.045204028487205505;-0.018325956538319588;0.02076941914856434
01:00:0A:00:00:00:00;1724717451;27/08/24;00:10:51;1.015;-0.037;0.087;-0.02932153083384037;0.0;-0.0012217304902151227
01:00:0A:00:00:00:00;1724717452;27/08/24;00:10:52;1.014;-0.02;0.093;-0.02687807008624077;-0.013439035043120384;-0.015882495790719986
01:00:0A:00:00:00:00;1724717453;27/08/24;00:10:53;1.016;-0.024;0.084;-0.039095375686883926;-0.01710422709584236;0.019547687843441963
01:00:0A:00:00:00:00;1724717454;27/08/24;00:10:54;1.015;-0.035;0.087;-0.024434609338641167;-0.0012217304902151227;-0.0024434609804302454
01:00:0A:00:00:00:00;1724717455;27/08/24;00:10:55;1.014;-0.02;0.093;-0.024434609338641167;-0.012217304669320583;-0.010995574295520782
01:00:0A:00:00:00:00;1724717456;27/08/24;00:10:56;1.016;-0.026;0.085;-0.03420845419168472;-0.01710422709584236;0.01710422709584236
01:00:0A:00:00:00:00;1724717457;27/08/24;00:10:57;1.014;-0.033;0.086;-0.02076941914856434;-0.0012217304902151227;-0.0036651913542300463
01:00:0A:00:00:00:00;1724717458;27/08/24;00:10:58;1.015;-0.02;0.093;-0.02321287989616394;-0.014660765416920185;-0.004886921960860491
01:00:0A:00:00:00:00;1724717459;27/08/24;00:10:59;1.015;-0.025;0.084;-0.02932153083384037;-0.01710422709584236;0.013439035043120384
01:00:0A:00:00:00:00;1724717460;27/08/24;00:11:00;1.015;-0.03;0.087;-0.01710422709584236;-0.0012217304902151227;-0.0036651913542300463
01:00:0A:00:00:00:00;1724717461;27/08/24;00:11:01;1.014;-0.02;0.093;-0.02076941914856434;-0.014660765416920185;-0.0036651913542300463
01:00:0A:00:00:00:00;1724717462;27/08/24;00:11:02;1.016;-0.027;0.084;-0.025656338781118393;-0.015882495790719986;0.012217304669320583
01:00:0A:00:00:00:00;1724717463;27/08/24;00:11:03;1.015;-0.029;0.088;-0.015882495790719986;-0.0024434609804302454;-0.0036651913542300463
01:00:0A:00:00:00:00;1724717464;27/08/24;00:11:04;1.014;-0.021;0.092;-0.018325956538319588;-0.015882495790719986;-0.0012217304902151227
01:00:0A:00:00:00:00;1724717465;27/08/24;00:11:05;1.015;-0.026;0.085;-0.021991148591041565;-0.014660765416920185;0.010995574295520782
01:00:0A:00:00:00:00;1724717466;27/08/24;00:11:06;1.015;-0.028;0.089;-0.013439035043120384;-0.0036651913542300463;-0.0036651913542300463
01:00:0A:00:00:00:00;1724717467;27/08/24;00:11:07;1.015;-0.022;0.091;-0.018325956538319588;-0.015882495790719986;0.0012217304902151227
01:00:0A:00:00:00:00;1724717468;27/08/24;00:11:08;1.015;-0.028;0.085;-0.019547687843441963;-0.013439035043120384;0.00855211354792118
01:00:0A:00:00:00:00;1724717469;27/08/24;00:11:09;1.015;-0.027;0.089;-0.012217304669320583;-0.0036651913542300463;-0.0036651913542300463
01:00:0A:00:00:00:00;1724717470;27/08/24;00:11:10;1.014;-0.023;0.09;-0.01710422709584236;-0.015882495790719986;0.0024434609804302454
01:00:0A:00:00:00:00;1724717471;27/08/24;00:11:11;1.015;-0.027;0.084;-0.01710422709584236;-0.012217304669320583;0.006108652334660292
01:00:0A:00:00:00:00;1724717472;27/08/24;00:11:12;1.014;-0.027;0.09;-0.010995574295520782;-0.004886921960860491;-0.0024434609804302454
01:00:0A:00:00:00:00;1724717473;27/08/24;00:11:13;1.014;-0.023;0.089;-0.015882495790719986;-0.01710422709584236;0.0024434609804302454
01:00:0A:00:00:00:00;1724717474;27/08/24;00:11:14;1.015;-0.028;0.084;-0.015882495790719986;-0.010995574295520782;0.006108652334660292
01:00:0A:00:00:00:00;1724717475;27/08/24;00:11:15;1.015;-0.027;0.089;-0.010995574295520782;-0.004886921960860491;-0.0012217304902151227
01:00:0A:00:00:00:00;1724717476;27/08/24;00:11:16;1.016;-0.024;0.09;-0.014660765416920185;-0.015882495790719986;0.0036651913542300463
01:00:0A:00:00:00:00;1724717477;27/08/24;00:11:17;1.015;-0.027;0.085;-0.013439035043120384;-0.010995574295520782;0.006108652334660292
01:00:0A:00:00:00:00;1724717478;27/08/24;00:11:18;1.015;-0.025;0.09;-0.009773843921720982;-0.0073303827084600925;-0.0012217304902151227
01:00:0A:00:00:00:00;1724717479;27/08/24;00:11:19;1.014;-0.024;0.088;-0.013439035043120384;-0.015882495790719986;0.0036651913542300463
01:00:0A:00:00:00:00;1724717480;27/08/24;00:11:20;1.015;-0.027;0.085;-0.010995574295520782;-0.009773843921720982;0.0036651913542300463
01:00:0A:00:00:00:00;1724717481;27/08/24;00:11:21;1.014;-0.026;0.09;-0.00855211354792118;-0.0073303827084600925;0.0
01:00:0A:00:00:00:00;1724717482;27/08/24;00:11:22;1.014;-0.025;0.089;-0.012217304669320583;-0.015882495790719986;0.004886921960860491
01:00:0A:00:00:00:00;1724717483;27/08/24;00:11:23;1.014;-0.027;0.087;-0.009773843921720982;-0.009773843921720982;0.0024434609804302454
01:00:0A:00:00:00:00;1724717484;27/08/24;00:11:24;1.014;-0.026;0.091;-0.00855211354792118;-0.00855211354792118;0.0012217304902151227
01:00:0A:00:00:00:00;1724717485;27/08/24;00:11:25;1.014;-0.026;0.088;-0.010995574295520782;-0.014660765416920185;0.0036651913542300463
01:00:0A:00:00:00:00;1724717486;27/08/24;00:11:26;1.014;-0.026;0.086;-0.00855211354792118;-0.009773843921720982;0.0036651913542300463
01:00:0A:00:00:00:00;1724717487;27/08/24;00:11:27;1.015;-0.025;0.09;-0.0073303827084600925;-0.009773843921720982;0.0012217304902151227
01:00:0A:00:00:00:00;1724717488;27/08/24;00:11:28;1.014;-0.025;0.087;-0.009773843921720982;-0.015882495790719986;0.0036651913542300463
01:00:0A:00:00:00:00;1724717489;27/08/24;00:11:29;1.015;-0.027;0.087;-0.006108652334660292;-0.00855211354792118;0.0036651913542300463
01:00:0A:00:00:00:00;1724717490;27/08/24;00:11:30;1.015;-0.026;0.09;-0.006108652334660292;-0.010995574295520782;0.0012217304902151227
01:00:0A:00:00:00:00;1724717491;27/08/24;00:11:31;1.015;-0.025;0.088;-0.0073303827084600925;-0.014660765416920185;0.0036651913542300463
01:00:0A:00:00:00:00;1724717492;27/08/24;00:11:32;1.015;-0.026;0.087;-0.006108652334660292;-0.00855211354792118;0.0024434609804302454
01:00:0A:00:00:00:00;1724717493;27/08/24;00:11:33;1.015;-0.026;0.091;-0.006108652334660292;-0.010995574295520782;0.0024434609804302454
01:00:0A:00:00:00:00;1724717494;27/08/24;00:11:34;1.014;-0.025;0.088;-0.006108652334660292;-0.013439035043120384;0.0036651913542300463
01:00:0A:00:00:00:00;1724717495;27/08/24;00:11:35;1.015;-0.025;0.087;-0.004886921960860491;-0.00855211354792118;0.0024434609804302454
01:00:0A:00:00:00:00;1724717496;27/08/24;00:11:36;1.015;-0.025;0.09;-0.004886921960860491;-0.012217304669320583;0.0024434609804302454
01:00:0A:00:00:00:00;1724717497;27/08/24;00:11:37;1.016;-0.026;0.087;-0.004886921960860491;-0.013439035043120384;0.0036651913542300463
01:00:0A:00:00:00:00;1724717498;27/08/24;00:11:38;1.014;-0.026;0.088;-0.0036651913542300463;-0.00855211354792118;0.0024434609804302454
01:00:0A:00:00:00:00;1724717499;27/08/24;00:11:39;1.013;-0.025;0.089;-0.0036651913542300463;-0.010995574295520782;0.0024434609804302454
01:00:0A:00:00:00:00;1724717500;27/08/24;00:11:40;1.015;-0.026;0.087;-0.0036651913542300463;-0.012217304669320583;0.0036651913542300463
01:00:0A:00:00:00:00;1724717501;27/08/24;00:11:41;1.014;-0.026;0.088;-0.0024434609804302454;-0.00855211354792118;0.0036651913542300463
01:00:0A:00:00:00:00;1724717502;27/08/24;00:11:42;1.015;-0.025;0.089;-0.0036651913542300463;-0.012217304669320583;0.0024434609804302454
01:00:0A:00:00:00:00;1724717503;27/08/24;00:11:43;1.015;-0.026;0.087;-0.0036651913542300463;-0.012217304669320583;0.0036651913542300463
01:00:0A:00:00:00:00;1724717504;27/08/24;00:11:44;1.014;-0.026;0.088;-0.0012217304902151227;-0.009773843921720982;0.0024434609804302454
01:00:0A:00:00:00:00;1724717505;27/08/24;00:11:45;1.015;-0.026;0.088;-0.0024434609804302454;-0.012217304669320583;0.0036651913542300463
01:00:0A:00:00:00:00;1724717506;27/08/24;00:11:46;1.014;-0.026;0.087;-0.0024434609804302454;-0.012217304669320583;0.0036651913542300463
01:00:0A:00:00:00:00;1724717507;27/08/24;00:11:47;1.014;-0.026;0.089;-0.0012217304902151227;-0.009773843921720982;0.0024434609804302454
01:00:0A:00:00:00:00;1724717508;27/08/24;00:11:48;1.014;-0.026;0.089;-0.0012217304902151227;-0.012217304669320583;0.0036651913542300463
01:00:0A:00:00:00:00;1724717509;27/08/24;00:11:49;1.015;-0.025;0.088;-0.0012217304902151227;-0.010995574295520782;0.0024434609804302454
01:00:0A:00:00:00:00;1724717510;27/08/24;00:11:50;1.015;-0.026;0.089;0.0;-0.009773843921720982;0.0036651913542300463
01:00:0A:00:00:00:00;1724717511;27/08/24;00:11:51;1.014;-0.026;0.088;-0.0012217304902151227;-0.012217304669320583;0.0024434609804302454
01:00:0A:00:00:00:00;1724717512;27/08/24;00:11:52;1.015;-0.026;0.087;0.0;-0.010995574295520782;0.0036651913542300463
01:00:0A:00:00:00:00;1724717513;27/08/24;00:11:53;1.016;-0.026;0.089;0.0;-0.009773843921720982;0.0036651913542300463
01:00:0A:00:00:00:00;1724717514;27/08/24;00:11:54;1.015;-0.025;0.088;0.0;-0.012217304669320583;0.0024434609804302454
01:00:0A:00:00:00:00;1724717515;27/08/24;00:11:55;1.016;-0.026;0.088;0.0;-0.010995574295520782;0.0036651913542300463
01:00:0A:00:00:00:00;1724717516;27/08/24;00:11:56;1.015;-0.025;0.089;0.0012217304902151227;-0.010995574295520782;0.0024434609804302454
01:00:0A:00:00:00:00;1724717517;27/08/24;00:11:57;1.015;-0.026;0.089;0.0;-0.012217304669320583;0.0036651913542300463
01:00:0A:00:00:00:00;1724717518;27/08/24;00:11:58;1.014;-0.026;0.089;0.0012217304902151227;-0.010995574295520782;0.0036651913542300463
01:00:0A:00:00:00:00;1724717519;27/08/24;00:11:59;1.015;-0.026;0.089;0.0012217304902151227;-0.010995574295520782;0.0036651913542300463
01:00:0A:00:00:00:00;1724717520;27/08/24;00:12:00;1.015;-0.027;0.089;0.0;-0.012217304669320583;0.0036651913542300463
01:00:0A:00:00:00:00;1724717521;27/08/24;00:12:01;1.014;-0.025;0.088;0.0012217304902151227;-0.010995574295520782;0.0024434609804302454
01:00:0A:00:00:00:00;1724717522;27/08/24;00:12:02;1.013;-0.026;0.088;0.0012217304902151227;-0.010995574295520782;0.0036651913542300463
01:00:0A:00:00:00:00;1724717523;27/08/24;00:12:03;1.014;-0.025;0.088;0.0;-0.012217304669320583;0.0036651913542300463
01:00:0A:00:00:00:00;1724717524;27/08/24;00:12:04;1.014;-0.025;0.088;0.0;-0.010995574295520782;0.0036651913542300463
01:00:0A:00:00:00:00;1724717525;27/08/24;00:12:05;1.015;-0.026;0.089;0.0012217304902151227;-0.010995574295520782;0.0036651913542300463
01:00:0A:00:00:00:00;1724717526;27/08/24;00:12:06;1.015;-0.025;0.088;0.0;-0.012217304669320583;0.0036651913542300463
01:00:0A:00:00:00:00;1724717527;27/08/24;00:12:07;1.014;-0.026;0.088;0.0;-0.010995574295520782;0.0036651913542300463
01:00:0A:00:00:00:00;1724717528;27/08/24;00:12:08;1.014;-0.025;0.089;0.0012217304902151227;-0.010995574295520782;0.0024434609804302454
01:00:0A:00:00:00:00;1724717529;27/08/24;00:12:09;1.014;-0.025;0.088;0.0;-0.012217304669320583;0.0036651913542300463
01:00:0A:00:00:00:00;1724717530;27/08/24;00:12:10;1.015;-0.026;0.088;0.0012217304902151227;-0.010995574295520782;0.0024434609804302454
01:00:0A:00:00:00:00;1724717531;27/08/24;00:12:11;1.014;-0.026;0.088;0.0012217304902151227;-0.010995574295520782;0.0036651913542300463
01:00:0A:00:00:00:00;1724717532;27/08/24;00:12:12;1.014;-0.026;0.087;0.0012217304902151227;-0.012217304669320583;0.0036651913542300463
01:00:0A:00:00:00:00;1724717533;27/08/24;00:12:13;1.015;-0.026;0.089;0.0012217304902151227;-0.010995574295520782;0.0036651913542300463
01:00:0A:00:00:00:00;1724717534;27/08/24;00:12:14;1.015;-0.026;0.089;0.0012217304902151227;-0.010995574295520782;0.0036651913542300463
01:00:0A:00:00:00:00;1724717535;27/08/24;00:12:15;1.015;-0.025;0.088;0.0012217304902151227;-0.010995574295520782;0.0024434609804302454
01:00:0A:00:00:00:00;1724717536;27/08/24;00:12:16;1.015;-0.025;0.089;0.0024434609804302454;-0.010995574295520782;0.0036651913542300463
01:00:0A:00:00:00:00;1724717537;27/08/24;00:12:17;1.014;-0.026;0.088;0.0024434609804302454;-0.010995574295520782;0.0024434609804302454
01:00:0A:00:00:00:00;1724717538;27/08/24;00:12:18;1.015;-0.026;0.088;0.0024434609804302454;-0.012217304669320583;0.0036651913542300463
01:00:0A:00:00:00:00;1724717539;27/08/24;00:12:19;1.015;-0.027;0.089;0.0024434609804302454;-0.010995574295520782;0.0036651913542300463
01:00:0A:00:00:00:00;1724717540;27/08/24;00:12:20;1.015;-0.026;0.088;0.0036651913542300463;-0.010995574295520782;0.0036651913542300463
01:00:0A:00:00:00:00;1724717541;27/08/24;00:12:21;1.015;-0.027;0.088;0.0024434609804302454;-0.010995574295520782;0.0036651913542300463
01:00:0A:00:00:00:00;1724717542;27/08/24;00:12:22;1.014;-0.027;0.088;0.0036651913542300463;-0.010995574295520782;0.0036651913542300463
01:00:0A:00:00:00:00;1724717543;27/08/24;00:12:23;1.014;-0.026;0.088;0.0036651913542300463;-0.012217304669320583;0.0036651913542300463
01:00:0A:00:00:00:00;1724717544;27/08/24;00:12:24;1.014;-0.026;0.088;0.0036651913542300463;-0.010995574295520782;0.0036651913542300463
01:00:0A:00:00:00:00;1724717545;27/08/24;00:12:25;1.015;-0.025;0.089;0.004886921960860491;-0.010995574295520782;0.0036651913542300463
01:00:0A:00:00:00:00;1724717546;27/08/24;00:12:26;1.015;-0.026;0.088;0.004886921960860491;-0.012217304669320583;0.0036651913542300463
01:00:0A:00:00:00:00;1724717547;27/08/24;00:12:27;1.014;-0.025;0.088;0.004886921960860491;-0.010995574295520782;0.0036651913542300463
01:00:0A:00:00:00:00;1724717548;27/08/24;00:12:28;1.014;-0.025;0.088;0.004886921960860491;-0.010995574295520782;0.0036651913542300463
01:00:0A:00:00:00:00;1724717549;27/08/24;00:12:29;1.015;-0.026;0.087;0.004886921960860491;-0.012217304669320583;0.0036651913542300463
01:00:0A:00:00:00:00;1724717550;27/08/24;00:12:30;1.015;-0.026;0.088;0.004886921960860491;-0.010995574295520782;0.0036651913542300463
01:00:0A:00:00:00:00;1724717551;27/08/24;00:12:31;1.014;-0.025;0.088;0.006108652334660292;-0.010995574295520782;0.0036651913542300463
01:00:0A:00:00:00:00;1724717552;27/08/24;00:12:32;1.015;-0.026;0.089;0.006108652334660292;-0.010995574295520782;0.0036651913542300463
01:00:0A:00:00:00:00;1724717553;27/08/24;00:12:33;1.014;-0.027;0.088;0.006108652334660292;-0.010995574295520782;0.0036651913542300463
01:00:0A:00:00:00:00;1724717554;27/08/24;00:12:34;1.015;-0.027;0.088;0.006108652334660292;-0.010995574295520782;0.0036651913542300463
01:00:0A:00:00:00:00;1724717555;27/08/24;00:12:35;1.015;-0.026;0.088;0.006108652334660292;-0.010995574295520782;0.0036651913542300463
01:00:0A:00:00:00:00;1724717556;27/08/24;00:12:36;1.014;-0.027;0.088;0.006108652334660292;-0.010995574295520782;0.0036651913542300463
01:00:0A:00:00:00:00;1724717557;27/08/24;00:12:37;1.015;-0.026;0.089;0.006108652334660292;-0.010995574295520782;0.0036651913542300463
01:00:0A:00:00:00:00;1724717558;27/08/24;00:12:38;1.015;-0.026;0.089;0.006108652334660292;-0.012217304669320583;0.0036651913542300463
01:00:0A:00:00:00:00;1724717559;27/08/24;00:12:39;1.015;-0.025;0.087;0.006108652334660292;-0.010995574295520782;0.0036651913542300463
01:00:0A:00:00:00:00;1724717560;27/08/24;00:12:40;1.015;-0.027;0.087;0.006108652334660292;-0.010995574295520782;0.0036651913542300463
01:00:0A:00:00:00:00;1724717561;27/08/24;00:12:41;1.015;-0.025;0.088;0.0073303827084600925;-0.010995574295520782;0.0036651913542300463
01:00:0A:00:00:00:00;1724717562;27/08/24;00:12:42;1.015;-0.024;0.088;0.0073303827084600925;-0.010995574295520782;0.0036651913542300463
01:00:0A:00:00:00:00;1724717563;27/08/24;00:12:43;1.015;-0.026;0.089;0.0073303827084600925;-0.010995574295520782;0.0036651913542300463
01:00:0A:00:00:00:00;1724717564;27/08/24;00:12:44;1.015;-0.026;0.088;0.0073303827084600925;-0.010995574295520782;0.0036651913542300463
01:00:0A:00:00:00:00;1724717565;27/08/24;00:12:45;1.014;-0.025;0.088;0.0073303827084600925;-0.010995574295520782;0.0036651913542300463
01:00:0A:00:00:00:00;1724717566;27/08/24;00:12:46;1.016;-0.026;0.088;0.0073303827084600925;-0.010995574295520782;0.0036651913542300463
01:00:0A:00:00:00:00;1724717567;27/08/24;00:12:47;1.013;-0.025;0.087;0.0073303827084600925;-0.010995574295520782;0.0036651913542300463
01:00:0A:00:00:00:00;1724717568;27/08/24;00:12:48;1.014;-0.026;0.088;0.0073303827084600925;-0.010995574295520782;0.0036651913542300463
01:00:0A:00:00:00:00;1724717569;27/08/24;00:12:49;1.015;-0.026;0.088;0.0073303827084600925;-0.010995574295520782;0.0036651913542300463
01:00:0A:00:00:00:00;1724717570;27/08/24;00:12:50;1.015;-0.026;0.088;0.0073303827084600925;-0.010995574295520782;0.0036651913542300463
01:00:0A:00:00:00:00;1724717571;27/08/24;00:12:51;1.015;-0.025;0.089;0.0073303827084600925;-0.010995574295520782;0.0036651913542300463
01:00:0A:00:00:00:00;1724717572;27/08/24;00:12:52;1.014;-0.026;0.088;0.0073303827084600925;-0.010995574295520782;0.0036651913542300463
01:00:0A:00:00:00:00;1724717573;27/08/24;00:12:53;1.014;-0.025;0.089;0.0073303827084600925;-0.010995574295520782;0.0024434609804302454
01:00:0A:00:00:00:00;1724717574;27/08/24;00:12:54;1.015;-0.026;0.088;0.006108652334660292;-0.010995574295520782;0.0036651913542300463
01:00:0A:00:00:00:00;1724717575;27/08/24;00:12:55;1.014;-0.026;0.088;0.0073303827084600925;-0.010995574295520782;0.0036651913542300463
01:00:0A:00:00:00:00;1724717576;27/08/24;00:12:56;1.016;-0.026;0.087;0.0073303827084600925;-0.010995574295520782;0.0036651913542300463
01:00:0A:00:00:00:00;1724717577;27/08/24;00:12:57;1.013;-0.026;0.087;0.0073303827084600925;-0.010995574295520782;0.0036651913542300463
01:00:0A:00:00:00:00;1724717578;27/08/24;00:12:58;1.015;-0.026;0.088;0.0073303827084600925;-0.010995574295520782;0.0036651913542300463
01:00:0A:00:00:00:00;1724717579;27/08/24;00:12:59;1.014;-0.026;0.088;0.0073303827084600925;-0.010995574295520782;0.0036651913542300463
01:00:0A:00:00:00:00;1724717580;27/08/24;00:13:00;1.015;-0.026;0.089;0.0073303827084600925;-0.010995574295520782;0.0036651913542300463
01:00:0A:00:00:00:00;1724717581;27/08/24;00:13:01;1.014;-0.025;0.089;0.0073303827084600925;-0.010995574295520782;0.0036651913542300463
01:00:0A:00:00:00:00;1724717582;27/08/24;00:13:02;1.014;-0.025;0.089;0.0073303827084600925;-0.010995574295520782;0.0036651913542300463
01:00:0A:00:00:00:00;1724717583;27/08/24;00:13:03;1.015;-0.024;0.088;0.0073303827084600925;-0.010995574295520782;0.0036651913542300463
01:00:0A:00:00:00:00;1724717584;27/08/24;00:13:04;1.014;-0.026;0.088;0.0073303827084600925;-0.010995574295520782;0.0036651913542300463
01:00:0A:00:00:00:00;1724717585;27/08/24;00:13:05;1.015;-0.027;0.088;0.0073303827084600925;-0.010995574295520782;0.0036651913542300463
01:00:0A:00:00:00:00;1724717586;27/08/24;00:13:06;1.015;-0.025;0.088;0.0073303827084600925;-0.010995574295520782;0.0036651913542300463
01:00:0A:00:00:00:00;1724717587;27/08/24;00:13:07;1.014;-0.026;0.088;0.0073303827084600925;-0.010995574295520782;0.0036651913542300463
01:00:0A:00:00:00:00;1724717588;27/08/24;00:13:08;1.015;-0.026;0.088;0.0073303827084600925;-0.010995574295520782;0.0036651913542300463
01:00:0A:00:00:00:00;1724717589;27/08/24;00:13:09;1.016;-0.026;0.089;0.00855211354792118;-0.010995574295520782;0.0036651913542300463
01:00:0A:00:00:00:00;1724717590;27/08/24;00:13:10;1.014;-0.026;0.088;0.0073303827084600925;-0.010995574295520782;0.0036651913542300463
01:00:0A:00:00:00:00;1724717591;27/08/24;00:13:11;1.014;-0.026;0.089;0.0073303827084600925;-0.012217304669320583;0.004886921960860491
01:00:0A:00:00:00:00;1724717592;27/08/24;00:13:12;1.015;-0.025;0.089;0.0073303827084600925;-0.010995574295520782;0.0036651913542300463
01:00:0A:00:00:00:00;1724717593;27/08/24;00:13:13;1.015;-0.026;0.088;0.0073303827084600925;-0.010995574295520782;0.0036651913542300463
01:00:0A:00:00:00:00;1724717594;27/08/24;00:13:14;1.015;-0.025;0.088;0.00855211354792118;-0.010995574295520782;0.0036651913542300463
01:00:0A:00:00:00:00;1724717595;27/08/24;00:13:15;1.016;-0.027;0.089;0.0073303827084600925;-0.010995574295520782;0.0036651913542300463
01:00:0A:00:00:00:00;1724717596;27/08/24;00:13:16;1.015;-0.026;0.089;0.0073303827084600925;-0.010995574295520782;0.0036651913542300463
01:00:0A:00:00:00:00;1724717597;27/08/24;00:13:17;1.015;-0.026;0.088;0.00855211354792118;-0.010995574295520782;0.0036651913542300463
01:00:0A:00:00:00:00;1724717598;27/08/24;00:13:18;1.015;-0.025;0.087;0.0073303827084600925;-0.010995574295520782;0.0036651913542300463
01:00:0A:00:00:00:00;1724717599;27/08/24;00:13:19;1.014;-0.026;0.088;0.00855211354792118;-0.010995574295520782;0.0036651913542300463
01:00:0A:00:00:00:00;1724717600;27/08/24;00:13:20;1.015;-0.025;0.088;0.00855211354792118;-0.010995574295520782;0.004886921960860491
01:00:0A:00:00:00:00;1724717601;27/08/24;00:13:21;1.015;-0.026;0.088;0.00855211354792118;-0.010995574295520782;0.0036651913542300463
01:00:0A:00:00:00:00;1724717602;27/08/24;00:13:22;1.014;-0.025;0.088;0.0073303827084600925;-0.010995574295520782;0.0036651913542300463
01:00:0A:00:00:00:00;1724717603;27/08/24;00:13:23;1.014;-0.026;0.088;0.0073303827084600925;-0.010995574295520782;0.0036651913542300463
01:00:0A:00:00:00:00;1724717604;27/08/24;00:13:24;1.014;-0.025;0.088;0.00855211354792118;-0.010995574295520782;0.0036651913542300463
01:00:0A:00:00:00:00;1724717605;27/08/24;00:13:25;1.015;-0.025;0.088;0.0073303827084600925;-0.012217304669320583;0.004886921960860491
01:00:0A:00:00:00:00;1724717606;27/08/24;00:13:26;1.013;-0.026;0.088;0.00855211354792118;-0.010995574295520782;0.0036651913542300463
01:00:0A:00:00:00:00;1724717607;27/08/24;00:13:27;1.014;-0.026;0.089;0.00855211354792118;-0.010995574295520782;0.0036651913542300463
01:00:0A:00:00:00:00;1724717608;27/08/24;00:13:28;1.015;-0.026;0.088;0.0073303827084600925;-0.010995574295520782;0.0036651913542300463
01:00:0A:00:00:00:00;1724717609;27/08/24;00:13:29;1.015;-0.025;0.088;0.00855211354792118;-0.010995574295520782;0.0036651913542300463
01:00:0A:00:00:00:00;1724717610;27/08/24;00:13:30;1.014;-0.025;0.088;0.0073303827084600925;-0.010995574295520782;0.0036651913542300463
01:00:0A:00:00:00:00;1724717611;27/08/24;00:13:31;1.016;-0.026;0.089;0.0073303827084600925;-0.010995574295520782;0.0036651913542300463
01:00:0A:00:00:00:00;1724717612;27/08/24;00:13:32;1.016;-0.025;0.088;0.0073303827084600925;-0.010995574295520782;0.004886921960860491
01:00:0A:00:00:00:00;1724717613;27/08/24;00:13:33;1.015;-0.026;0.088;0.0073303827084600925;-0.010995574295520782;0.0036651913542300463
01:00:0A:00:00:00:00;1724717614;27/08/24;00:13:34;1.015;-0.025;0.088;0.0073303827084600925;-0.010995574295520782;0.0036651913542300463
01:00:0A:00:00:00:00;1724717615;27/08/24;00:13:35;1.015;-0.026;0.089;0.0073303827084600925;-0.010995574295520782;0.0036651913542300463
01:00:0A:00:00:00:00;1724717616;27/08/24;00:13:36;1.014;-0.026;0.089;0.0073303827084600925;-0.010995574295520782;0.0036651913542300463
01:00:0A:00:00:00:00;1724717617;27/08/24;00:13:37;1.015;-0.026;0.089;0.0073303827084600925;-0.010995574295520782;0.0036651913542300463
01:00:0A:00:00:00:00;1724717618;27/08/24;00:13:38;1.015;-0.025;0.089;0.0073303827084600925;-0.010995574295520782;0.0036651913542300463
01:00:0A:00:00:00:00;1724717619;27/08/24;00:13:39;1.015;-0.025;0.089;0.0073303827084600925;-0.012217304669320583;0.0036651913542300463
01:00:0A:00:00:00:00;1724717620;27/08/24;00:13:40;1.015;-0.025;0.087;0.0073303827084600925;-0.010995574295520782;0.0036651913542300463
01:00:0A:00:00:00:00;1724717621;27/08/24;00:13:41;1.015;-0.025;0.09;0.0073303827084600925;-0.010995574295520782;0.0036651913542300463
01:00:0A:00:00:00:00;1724717622;27/08/24;00:13:42;1.014;-0.026;0.088;0.0073303827084600925;-0.010995574295520782;0.0036651913542300463
01:00:0A:00:00:00:00;1724717623;27/08/24;00:13:43;1.015;-0.025;0.089;0.0073303827084600925;-0.010995574295520782;0.0036651913542300463
01:00:0A:00:00:00:00;1724717624;27/08/24;00:13:44;1.015;-0.026;0.089;0.0073303827084600925;-0.010995574295520782;0.0036651913542300463
01:00:0A:00:00:00:00;1724717625;27/08/24;00:13:45;1.016;-0.026;0.088;0.0073303827084600925;-0.010995574295520782;0.0036651913542300463
01:00:0A:00:00:00:00;1724717626;27/08/24;00:13:46;1.015;-0.025;0.088;0.006108652334660292;-0.010995574295520782;0.0036651913542300463
01:00:0A:00:00:00:00;1724717627;27/08/24;00:13:47;1.015;-0.026;0.088;0.0073303827084600925;-0.010995574295520782;0.0036651913542300463
01:00:0A:00:00:00:00;1724717628;27/08/24;00:13:48;1.015;-0.026;0.088;0.0073303827084600925;-0.010995574295520782;0.0036651913542300463
01:00:0A:00:00:00:00;1724717629;27/08/24;00:13:49;1.015;-0.025;0.088;0.0073303827084600925;-0.010995574295520782;0.0036651913542300463
01:00:0A:00:00:00:00;1724717630;27/08/24;00:13:50;1.014;-0.026;0.089;0.0073303827084600925;-0.010995574295520782;0.0024434609804302454
01:00:0A:00:00:00:00;1724717631;27/08/24;00:13:51;1.014;-0.026;0.088;0.0073303827084600925;-0.010995574295520782;0.0036651913542300463
01:00:0A:00:00:00:00;1724717632;27/08/24;00:13:52;1.014;-0.025;0.088;0.0073303827084600925;-0.010995574295520782;0.0024434609804302454
01:00:0A:00:00:00:00;1724717633;27/08/24;00:13:53;1.016;-0.026;0.089;0.006108652334660292;-0.010995574295520782;0.0036651913542300463
01:00:0A:00:00:00:00;1724717634;27/08/24;00:13:54;1.015;-0.027;0.089;0.006108652334660292;-0.010995574295520782;0.0036651913542300463
01:00:0A:00:00:00:00;1724717635;27/08/24;00:13:55;1.014;-0.025;0.088;0.006108652334660292;-0.010995574295520782;0.0036651913542300463
01:00:0A:00:00:00:00;1724717636;27/08/24;00:13:56;1.014;-0.026;0.089;0.006108652334660292;-0.010995574295520782;0.0036651913542300463
01:00:0A:00:00:00:00;1724717637;27/08/24;00:13:57;1.014;-0.032;0.093;0.00855211354792118;-0.006108652334660292;0.00855211354792118
01:00:0A:00:00:00:00;1724717638;27/08/24;00:13:58;1.013;-0.034;0.094;0.012217304669320583;-0.013439035043120384;0.009773843921720982
01:00:0A:00:00:00:00;1724717639;27/08/24;00:13:59;1.014;-0.038;0.092;0.02321287989616394;-0.014660765416920185;0.0012217304902151227
01:00:0A:00:00:00:00;1724717640;27/08/24;00:14:00;1.014;-0.027;0.09;0.02932153083384037;-0.012217304669320583;-0.0073303827084600925
01:00:0A:00:00:00:00;1724717641;27/08/24;00:14:01;1.014;-0.021;0.088;0.02076941914856434;-0.015882495790719986;0.00855211354792118
01:00:0A:00:00:00:00;1724717642;27/08/24;00:14:02;1.016;-0.03;0.087;0.021991148591041565;-0.0073303827084600925;0.009773843921720982
01:00:0A:00:00:00:00;1724717643;27/08/24;00:14:03;1.014;-0.025;0.091;0.024434609338641167;-0.010995574295520782;-0.0036651913542300463
01:00:0A:00:00:00:00;1724717644;27/08/24;00:14:04;1.015;-0.023;0.087;0.01710422709584236;-0.014660765416920185;0.009773843921720982
01:00:0A:00:00:00:00;1724717645;27/08/24;00:14:05;1.015;-0.03;0.088;0.019547687843441963;-0.00855211354792118;0.00855211354792118
01:00:0A:00:00:00:00;1724717646;27/08/24;00:14:06;1.014;-0.025;0.09;0.021991148591041565;-0.012217304669320583;-0.0036651913542300463
01:00:0A:00:00:00:00;1724717647;27/08/24;00:14:07;1.015;-0.022;0.087;0.015882495790719986;-0.013439035043120384;0.009773843921720982
01:00:0A:00:00:00:00;1724717648;27/08/24;00:14:08;1.014;-0.03;0.088;0.018325956538319588;-0.0073303827084600925;0.0073303827084600925
01:00:0A:00:00:00:00;1724717649;27/08/24;00:14:09;1.014;-0.024;0.09;0.019547687843441963;-0.012217304669320583;-0.0024434609804302454
01:00:0A:00:00:00:00;1724717650;27/08/24;00:14:10;1.016;-0.024;0.087;0.015882495790719986;-0.013439035043120384;0.009773843921720982
01:00:0A:00:00:00:00;1724717651;27/08/24;00:14:11;1.015;-0.028;0.088;0.018325956538319588;-0.00855211354792118;0.0036651913542300463
01:00:0A:00:00:00:00;1724717652;27/08/24;00:14:12;1.015;-0.024;0.089;0.018325956538319588;-0.012217304669320583;0.0
01:00:0A:00:00:00:00;1724717653;27/08/24;00:14:13;1.014;-0.025;0.087;0.014660765416920185;-0.012217304669320583;0.009773843921720982
01:00:0A:00:00:00:00;1724717654;27/08/24;00:14:14;1.014;-0.028;0.089;0.01710422709584236;-0.00855211354792118;0.0036651913542300463
01:00:0A:00:00:00:00;1724717655;27/08/24;00:14:15;1.015;-0.024;0.089;0.01710422709584236;-0.013439035043120384;0.0012217304902151227
01:00:0A:00:00:00:00;1724717656;27/08/24;00:14:16;1.015;-0.025;0.087;0.014660765416920185;-0.010995574295520782;0.00855211354792118
01:00:0A:00:00:00:00;1724717657;27/08/24;00:14:17;1.014;-0.028;0.088;0.01710422709584236;-0.00855211354792118;0.0036651913542300463
01:00:0A:00:00:00:00;1724717658;27/08/24;00:14:18;1.015;-0.025;0.088;0.015882495790719986;-0.013439035043120384;0.0012217304902151227
01:00:0A:00:00:00:00;1724717659;27/08/24;00:14:19;1.016;-0.025;0.087;0.013439035043120384;-0.010995574295520782;0.00855211354792118
01:00:0A:00:00:00:00;1724717660;27/08/24;00:14:20;1.014;-0.027;0.089;0.015882495790719986;-0.009773843921720982;0.0024434609804302454
01:00:0A:00:00:00:00;1724717661;27/08/24;00:14:21;1.014;-0.024;0.089;0.015882495790719986;-0.013439035043120384;0.0024434609804302454
01:00:0A:00:00:00:00;1724717662;27/08/24;00:14:22;1.015;-0.026;0.089;0.013439035043120384;-0.010995574295520782;0.00855211354792118
01:00:0A:00:00:00:00;1724717663;27/08/24;00:14:23;1.015;-0.027;0.088;0.015882495790719986;-0.009773843921720982;0.0024434609804302454
01:00:0A:00:00:00:00;1724717664;27/08/24;00:14:24;1.014;-0.024;0.089;0.014660765416920185;-0.013439035043120384;0.0036651913542300463
01:00:0A:00:00:00:00;1724717665;27/08/24;00:14:25;1.015;-0.027;0.087;0.013439035043120384;-0.010995574295520782;0.0073303827084600925
01:00:0A:00:00:00:00;1724717666;27/08/24;00:14:26;1.015;-0.026;0.09;0.015882495790719986;-0.009773843921720982;0.0024434609804302454
01:00:0A:00:00:00:00;1724717667;27/08/24;00:14:27;1.014;-0.025;0.089;0.013439035043120384;-0.012217304669320583;0.004886921960860491
01:00:0A:00:00:00:00;1724717668;27/08/24;00:14:28;1.014;-0.026;0.087;0.013439035043120384;-0.010995574295520782;0.006108652334660292
01:00:0A:00:00:00:00;1724717669;27/08/24;00:14:29;1.014;-0.026;0.09;0.014660765416920185;-0.010995574295520782;0.0024434609804302454
01:00:0A:00:00:00:00;1724717670;27/08/24;00:14:30;1.014;-0.025;0.088;0.014660765416920185;-0.012217304669320583;0.0036651913542300463
01:00:0A:00:00:00:00;1724717671;27/08/24;00:14:31;1.015;-0.026;0.087;0.013439035043120384;-0.010995574295520782;0.006108652334660292
01:00:0A:00:00:00:00;1724717672;27/08/24;00:14:32;1.016;-0.025;0.089;0.014660765416920185;-0.010995574295520782;0.0024434609804302454
01:00:0A:00:00:00:00;1724717673;27/08/24;00:14:33;1.014;-0.025;0.088;0.013439035043120384;-0.012217304669320583;0.0036651913542300463
01:00:0A:00:00:00:00;1724717674;27/08/24;00:14:34;1.014;-0.027;0.088;0.013439035043120384;-0.010995574295520782;0.006108652334660292
01:00:0A:00:00:00:00;1724717675;27/08/24;00:14:35;1.015;-0.025;0.09;0.014660765416920185;-0.010995574295520782;0.0024434609804302454
01:00:0A:00:00:00:00;1724717676;27/08/24;00:14:36;1.015;-0.026;0.088;0.013439035043120384;-0.012217304669320583;0.004886921960860491
01:00:0A:00:00:00:00;1724717677;27/08/24;00:14:37;1.015;-0.026;0.088;0.013439035043120384;-0.009773843921720982;0.004886921960860491
01:00:0A:00:00:00:00;1724717678;27/08/24;00:14:38;1.015;-0.025;0.089;0.013439035043120384;-0.010995574295520782;0.0024434609804302454
01:00:0A:00:00:00:00;1724717679;27/08/24;00:14:39;1.015;-0.025;0.088;0.013439035043120384;-0.012217304669320583;0.004886921960860491
01:00:0A:00:00:00:00;1724717680;27/08/24;00:14:40;1.014;-0.027;0.088;0.013439035043120384;-0.010995574295520782;0.004886921960860491
01:00:0A:00:00:00:00;1724717681;27/08/24;00:14:41;1.014;-0.025;0.089;0.013439035043120384;-0.010995574295520782;0.0036651913542300463
01:00:0A:00:00:00:00;1724717682;27/08/24;00:14:42;1.015;-0.026;0.088;0.012217304669320583;-0.012217304669320583;0.0036651913542300463
01:00:0A:00:00:00:00;1724717683;27/08/24;00:14:43;1.015;-0.026;0.088;0.013439035043120384;-0.010995574295520782;0.004886921960860491
01:00:0A:00:00:00:00;1724717684;27/08/24;00:14:44;1.014;-0.026;0.088;0.013439035043120384;-0.010995574295520782;0.0024434609804302454
01:00:0A:00:00:00:00;1724717685;27/08/24;00:14:45;1.015;-0.025;0.089;0.012217304669320583;-0.010995574295520782;0.004886921960860491
01:00:0A:00:00:00:00;1724717686;27/08/24;00:14:46;1.015;-0.026;0.089;0.013439035043120384;-0.010995574295520782;0.004886921960860491
01:00:0A:00:00:00:00;1724717687;27/08/24;00:14:47;1.014;-0.026;0.088;0.012217304669320583;-0.012217304669320583;0.0036651913542300463
01:00:0A:00:00:00:00;1724717688;27/08/24;00:14:48;1.015;-0.026;0.087;0.012217304669320583;-0.012217304669320583;0.004886921960860491
01:00:0A:00:00:00:00;1724717689;27/08/24;00:14:49;1.015;-0.029;0.092;0.012217304669320583;-0.004886921960860491;0.012217304669320583
01:00:0A:00:00:00:00;1724717690;27/08/24;00:14:50;1.014;-0.03;0.092;0.014660765416920185;-0.01710422709584236;-0.0024434609804302454
01:00:0A:00:00:00:00;1724717691;27/08/24;00:14:51;1.016;-0.027;0.091;0.012217304669320583;-0.009773843921720982;0.0073303827084600925
01:00:0A:00:00:00:00;1724717692;27/08/24;00:14:52;1.015;-0.027;0.089;0.013439035043120384;-0.014660765416920185;0.0012217304902151227
01:00:0A:00:00:00:00;1724717693;27/08/24;00:14:53;1.014;-0.024;0.088;0.013439035043120384;-0.010995574295520782;0.0036651913542300463
01:00:0A:00:00:00:00;1724717694;27/08/24;00:14:54;1.015;-0.026;0.089;0.012217304669320583;-0.010995574295520782;0.004886921960860491
01:00:0A:00:00:00:00;1724717695;27/08/24;00:14:55;1.015;-0.026;0.088;0.012217304669320583;-0.012217304669320583;0.0036651913542300463
01:00:0A:00:00:00:00;1724717696;27/08/24;00:14:56;1.015;-0.025;0.089;0.012217304669320583;-0.009773843921720982;0.0036651913542300463
01:00:0A:00:00:00:00;1724717697;27/08/24;00:14:57;1.014;-0.025;0.089;0.012217304669320583;-0.010995574295520782;0.004886921960860491
01:00:0A:00:00:00:00;1724717698;27/08/24;00:14:58;1.015;-0.026;0.088;0.012217304669320583;-0.012217304669320583;0.0024434609804302454
01:00:0A:00:00:00:00;1724717699;27/08/24;00:14:59;1.015;-0.025;0.087;0.012217304669320583;-0.010995574295520782;0.0036651913542300463
01:00:0A:00:00:00:00;1724717700;27/08/24;00:15:00;1.015;-0.026;0.089;0.010995574295520782;-0.010995574295520782;0.004886921960860491
01:00:0A:00:00:00:00;1724717701;27/08/24;00:15:01;1.015;-0.026;0.087;0.010995574295520782;-0.010995574295520782;0.0024434609804302454
01:00:0A:00:00:00:00;1724717702;27/08/24;00:15:02;1.015;-0.024;0.088;0.010995574295520782;-0.010995574295520782;0.004886921960860491
01:00:0A:00:00:00:00;1724717703;27/08/24;00:15:03;1.014;-0.027;0.089;0.010995574295520782;-0.010995574295520782;0.004886921960860491
01:00:0A:00:00:00:00;1724717704;27/08/24;00:15:04;1.015;-0.026;0.088;0.010995574295520782;-0.012217304669320583;0.0036651913542300463
01:00:0A:00:00:00:00;1724717705;27/08/24;00:15:05;1.014;-0.026;0.089;0.010995574295520782;-0.010995574295520782;0.004886921960860491
01:00:0A:00:00:00:00;1724717706;27/08/24;00:15:06;1.014;-0.026;0.089;0.010995574295520782;-0.010995574295520782;0.004886921960860491
01:00:0A:00:00:00:00;1724717707;27/08/24;00:15:07;1.015;-0.026;0.088;0.010995574295520782;-0.012217304669320583;0.0036651913542300463
01:00:0A:00:00:00:00;1724717708;27/08/24;00:15:08;1.015;-0.026;0.088;0.010995574295520782;-0.010995574295520782;0.0036651913542300463
01:00:0A:00:00:00:00;1724717709;27/08/24;00:15:09;1.014;-0.026;0.089;0.010995574295520782;-0.010995574295520782;0.004886921960860491
01:00:0A:00:00:00:00;1724717710;27/08/24;00:15:10;1.015;-0.026;0.088;0.010995574295520782;-0.010995574295520782;0.0036651913542300463
01:00:0A:00:00:00:00;1724717711;27/08/24;00:15:11;1.015;-0.025;0.088;0.010995574295520782;-0.010995574295520782;0.0036651913542300463
01:00:0A:00:00:00:00;1724717712;27/08/24;00:15:12;1.015;-0.026;0.088;0.009773843921720982;-0.010995574295520782;0.004886921960860491
01:00:0A:00:00:00:00;1724717713;27/08/24;00:15:13;1.015;-0.027;0.088;0.010995574295520782;-0.010995574295520782;0.0036651913542300463
01:00:0A:00:00:00:00;1724717714;27/08/24;00:15:14;1.014;-0.027;0.089;0.010995574295520782;-0.010995574295520782;0.004886921960860491
01:00:0A:00:00:00:00;1724717715;27/08/24;00:15:15;1.014;-0.027;0.089;0.010995574295520782;-0.010995574295520782;0.0036651913542300463
01:00:0A:00:00:00:00;1724717716;27/08/24;00:15:16;1.014;-0.025;0.088;0.010995574295520782;-0.010995574295520782;0.0036651913542300463
01:00:0A:00:00:00:00;1724717717;27/08/24;00:15:17;1.015;-0.027;0.088;0.009773843921720982;-0.010995574295520782;0.0036651913542300463
01:00:0A:00:00:00:00;1724717718;27/08/24;00:15:18;1.014;-0.026;0.088;0.009773843921720982;-0.010995574295520782;0.0036651913542300463
01:00:0A:00:00:00:00;1724717719;27/08/24;00:15:19;1.015;-0.026;0.088;0.009773843921720982;-0.010995574295520782;0.0036651913542300463
01:00:0A:00:00:00:00;1724717720;27/08/24;00:15:20;1.016;-0.021;0.094;0.0073303827084600925;-0.0012217304902151227;-0.00855211354792118
01:00:0A:00:00:00:00;1724717721;27/08/24;00:15:21;0.998;-0.015;0.031;0.0;-0.03420845419168472;0.015882495790719986
01:00:0A:00:00:00:00;1724717722;27/08/24;00:15:22;0.911;0.09;0.344;-0.20525071024894714;0.013439035043120384;-0.15271630883216858
