Source;Epoch timestamp (UTC);Date;Time (UTC);Accel X (G);Accel Y (G);Accel Z (G);Gyro X (rad/s);Gyro Y (rad/s);Gyro Z (rad/s)
01:00:0A:00:00:00:00;1723680002;15/08/24;00:00:02;1.013;-0.021;0.073;-0.006108652334660292;-0.02076941914856434;0.015882495790719986
01:00:0A:00:00:00:00;1723680003;15/08/24;00:00:03;1.015;-0.02;0.068;0.0024434609804302454;-0.00855211354792118;-0.0073303827084600925
01:00:0A:00:00:00:00;1723680004;15/08/24;00:00:04;1.015;-0.014;0.073;0.0012217304902151227;-0.0073303827084600925;0.0024434609804302454
01:00:0A:00:00:00:00;1723680005;15/08/24;00:00:05;1.016;-0.02;0.072;-0.0024434609804302454;-0.01710422709584236;0.009773843921720982
01:00:0A:00:00:00:00;1723680006;15/08/24;00:00:06;1.015;-0.021;0.069;0.0036651913542300463;-0.009773843921720982;-0.0024434609804302454
01:00:0A:00:00:00:00;1723680007;15/08/24;00:00:07;1.014;-0.013;0.074;0.0036651913542300463;-0.004886921960860491;0.0036651913542300463
01:00:0A:00:00:00:00;1723680008;15/08/24;00:00:08;1.015;-0.019;0.075;0.0012217304902151227;-0.018325956538319588;0.010995574295520782
01:00:0A:00:00:00:00;1723680009;15/08/24;00:00:09;1.016;-0.02;0.067;0.006108652334660292;-0.010995574295520782;-0.0024434609804302454
01:00:0A:00:00:00:00;1723680010;15/08/24;00:00:10;1.016;-0.014;0.074;0.006108652334660292;-0.0073303827084600925;0.0036651913542300463
01:00:0A:00:00:00:00;1723680011;15/08/24;00:00:11;1.014;-0.02;0.073;0.0036651913542300463;-0.015882495790719986;0.00855211354792118
01:00:0A:00:00:00:00;1723680012;15/08/24;00:00:12;1.014;-0.019;0.068;0.00855211354792118;-0.010995574295520782;-0.0012217304902151227
01:00:0A:00:00:00:00;1723680013;15/08/24;00:00:13;1.015;-0.017;0.073;0.00855211354792118;-0.00855211354792118;0.0024434609804302454
01:00:0A:00:00:00:00;1723680014;15/08/24;00:00:14;1.016;-0.019;0.072;0.006108652334660292;-0.015882495790719986;0.0073303827084600925
01:00:0A:00:00:00:00;1723680015;15/08/24;00:00:15;1.014;-0.021;0.069;0.009773843921720982;-0.010995574295520782;0.0012217304902151227
01:00:0A:00:00:00:00;1723680016;15/08/24;00:00:16;1.013;-0.015;0.074;0.009773843921720982;-0.009773843921720982;0.0036651913542300463
01:00:0A:00:00:00:00;1723680017;15/08/24;00:00:17;1.015;-0.018;0.073;-0.004886921960860491;-0.010995574295520782;0.0024434609804302454
01:00:0A:00:00:00:00;1723680018;15/08/24;00:00:18;1.016;-0.019;0.072;0.0036651913542300463;-0.013439035043120384;0.0
01:00:0A:00:00:00:00;1723680019;15/08/24;00:00:19;1.016;-0.018;0.071;0.006108652334660292;-0.009773843921720982;0.00855211354792118
01:00:0A:00:00:00:00;1723680020;15/08/24;00:00:20;1.013;-0.021;0.073;0.0073303827084600925;-0.006108652334660292;0.0073303827084600925
01:00:0A:00:00:00:00;1723680021;15/08/24;00:00:21;1.013;-0.021;0.073;0.00855211354792118;-0.010995574295520782;0.0024434609804302454
01:00:0A:00:00:00:00;1723680022;15/08/24;00:00:22;1.015;-0.02;0.075;0.009773843921720982;-0.009773843921720982;0.0024434609804302454
01:00:0A:00:00:00:00;1723680023;15/08/24;00:00:23;1.016;-0.019;0.073;0.009773843921720982;-0.019547687843441963;0.0024434609804302454
01:00:0A:00:00:00:00;1723680024;15/08/24;00:00:24;1.016;-0.017;0.069;0.010995574295520782;-0.00855211354792118;0.004886921960860491
01:00:0A:00:00:00:00;1723680025;15/08/24;00:00:25;1.014;-0.019;0.075;0.009773843921720982;-0.00855211354792118;0.00855211354792118
01:00:0A:00:00:00:00;1723680026;15/08/24;00:00:26;1.013;-0.019;0.071;0.010995574295520782;-0.015882495790719986;-0.0012217304902151227
01:00:0A:00:00:00:00;1723680027;15/08/24;00:00:27;1.015;-0.018;0.07;0.010995574295520782;-0.009773843921720982;0.004886921960860491
01:00:0A:00:00:00:00;1723680028;15/08/24;00:00:28;1.016;-0.021;0.074;0.010995574295520782;-0.009773843921720982;0.004886921960860491
01:00:0A:00:00:00:00;1723680029;15/08/24;00:00:29;1.015;-0.017;0.072;0.0073303827084600925;-0.014660765416920185;0.0024434609804302454
01:00:0A:00:00:00:00;1723680030;15/08/24;00:00:30;1.014;-0.018;0.07;0.0073303827084600925;-0.009773843921720982;0.0036651913542300463
01:00:0A:00:00:00:00;1723680031;15/08/24;00:00:31;1.015;-0.019;0.073;0.0073303827084600925;-0.009773843921720982;0.004886921960860491
01:00:0A:00:00:00:00;1723680032;15/08/24;00:00:32;1.016;-0.018;0.071;0.00855211354792118;-0.014660765416920185;0.0
01:00:0A:00:00:00:00;1723680033;15/08/24;00:00:33;1.015;-0.017;0.071;0.0073303827084600925;-0.009773843921720982;0.0073303827084600925
01:00:0A:00:00:00:00;1723680034;15/08/24;00:00:34;1.014;-0.02;0.073;0.0073303827084600925;-0.010995574295520782;0.004886921960860491
01:00:0A:00:00:00:00;1723680035;15/08/24;00:00:35;1.014;-0.018;0.072;0.00855211354792118;-0.014660765416920185;0.0
01:00:0A:00:00:00:00;1723680036;15/08/24;00:00:36;1.016;-0.018;0.07;0.0073303827084600925;-0.009773843921720982;0.006108652334660292
01:00:0A:00:00:00:00;1723680037;15/08/24;00:00:37;1.015;-0.02;0.074;0.00855211354792118;-0.010995574295520782;0.0036651913542300463
01:00:0A:00:00:00:00;1723680038;15/08/24;00:00:38;1.014;-0.019;0.07;0.00855211354792118;-0.014660765416920185;0.0036651913542300463
01:00:0A:00:00:00:00;1723680039;15/08/24;00:00:39;1.014;-0.016;0.071;0.00855211354792118;-0.00855211354792118;0.0036651913542300463
01:00:0A:00:00:00:00;1723680040;15/08/24;00:00:40;1.016;-0.02;0.072;0.00855211354792118;-0.012217304669320583;0.0036651913542300463
01:00:0A:00:00:00:00;1723680041;15/08/24;00:00:41;1.016;-0.019;0.072;0.009773843921720982;-0.0024434609804302454;0.00855211354792118
01:00:0A:00:00:00:00;1723680042;15/08/24;00:00:42;1.015;-0.023;0.078;0.009773843921720982;-0.010995574295520782;0.0073303827084600925
01:00:0A:00:00:00:00;1723680043;15/08/24;00:00:43;1.014;-0.021;0.076;0.012217304669320583;-0.00855211354792118;0.0024434609804302454
01:00:0A:00:00:00:00;1723680044;15/08/24;00:00:44;1.014;-0.02;0.078;0.012217304669320583;-0.015882495790719986;0.0
01:00:0A:00:00:00:00;1723680045;15/08/24;00:00:45;1.016;-0.018;0.069;0.012217304669320583;-0.01710422709584236;-0.0012217304902151227
01:00:0A:00:00:00:00;1723680046;15/08/24;00:00:46;1.016;-0.017;0.07;0.012217304669320583;-0.004886921960860491;0.00855211354792118
01:00:0A:00:00:00:00;1723680047;15/08/24;00:00:47;1.015;-0.02;0.076;0.010995574295520782;-0.012217304669320583;0.0036651913542300463
01:00:0A:00:00:00:00;1723680048;15/08/24;00:00:48;1.014;-0.017;0.069;0.009773843921720982;-0.015882495790719986;0.0024434609804302454
01:00:0A:00:00:00:00;1723680049;15/08/24;00:00:49;1.014;-0.018;0.071;0.009773843921720982;-0.006108652334660292;0.006108652334660292
01:00:0A:00:00:00:00;1723680050;15/08/24;00:00:50;1.015;-0.019;0.074;0.00855211354792118;-0.013439035043120384;0.0024434609804302454
01:00:0A:00:00:00:00;1723680051;15/08/24;00:00:51;1.014;-0.022;0.076;0.009773843921720982;-0.009773843921720982;0.006108652334660292
01:00:0A:00:00:00:00;1723680052;15/08/24;00:00:52;1.014;-0.019;0.076;0.009773843921720982;-0.014660765416920185;0.0012217304902151227
01:00:0A:00:00:00:00;1723680053;15/08/24;00:00:53;1.015;-0.019;0.074;0.00855211354792118;-0.010995574295520782;0.006108652334660292
01:00:0A:00:00:00:00;1723680054;15/08/24;00:00:54;1.015;-0.02;0.074;0.00855211354792118;-0.014660765416920185;-0.0012217304902151227
01:00:0A:00:00:00:00;1723680055;15/08/24;00:00:55;1.015;-0.017;0.069;0.00855211354792118;-0.010995574295520782;0.004886921960860491
01:00:0A:00:00:00:00;1723680056;15/08/24;00:00:56;1.014;-0.019;0.074;0.00855211354792118;-0.0073303827084600925;0.006108652334660292
01:00:0A:00:00:00:00;1723680057;15/08/24;00:00:57;1.014;-0.019;0.071;0.0073303827084600925;-0.01710422709584236;0.0012217304902151227
01:00:0A:00:00:00:00;1723680058;15/08/24;00:00:58;1.016;-0.02;0.075;0.00855211354792118;-0.00855211354792118;0.0024434609804302454
01:00:0A:00:00:00:00;1723680059;15/08/24;00:00:59;1.015;-0.019;0.075;0.006108652334660292;-0.01710422709584236;0.0036651913542300463
01:00:0A:00:00:00:00;1723680060;15/08/24;00:01:00;1.014;-0.018;0.069;0.00855211354792118;-0.009773843921720982;0.0024434609804302454
01:00:0A:00:00:00:00;1723680061;15/08/24;00:01:01;1.014;-0.018;0.074;0.0073303827084600925;-0.010995574295520782;0.004886921960860491
01:00:0A:00:00:00:00;1723680062;15/08/24;00:01:02;1.014;-0.019;0.071;0.006108652334660292;-0.013439035043120384;0.0024434609804302454
01:00:0A:00:00:00:00;1723680063;15/08/24;00:01:03;1.014;-0.016;0.072;0.0073303827084600925;-0.00855211354792118;0.0012217304902151227
01:00:0A:00:00:00:00;1723680064;15/08/24;00:01:04;1.015;-0.018;0.073;0.004886921960860491;-0.013439035043120384;0.0073303827084600925
01:00:0A:00:00:00:00;1723680065;15/08/24;00:01:05;1.015;-0.016;0.071;0.02321287989616394;-0.013439035043120384;0.004886921960860491
01:00:0A:00:00:00:00;1723680066;15/08/24;00:01:06;1.015;-0.02;0.069;0.021991148591041565;-0.010995574295520782;0.006108652334660292
01:00:0A:00:00:00:00;1723680067;15/08/24;00:01:07;1.015;-0.018;0.071;0.021991148591041565;-0.009773843921720982;0.0024434609804302454
01:00:0A:00:00:00:00;1723680068;15/08/24;00:01:08;1.015;-0.016;0.07;0.02076941914856434;-0.013439035043120384;0.0036651913542300463
01:00:0A:00:00:00:00;1723680069;15/08/24;00:01:09;1.015;-0.016;0.071;0.03176499158143997;-0.00855211354792118;0.0036651913542300463
01:00:0A:00:00:00:00;1723680070;15/08/24;00:01:10;1.014;-0.018;0.071;0.028099799528717995;-0.012217304669320583;0.006108652334660292
01:00:0A:00:00:00:00;1723680071;15/08/24;00:01:11;1.016;-0.018;0.071;0.03298672288656235;-0.012217304669320583;0.0024434609804302454
01:00:0A:00:00:00:00;1723680072;15/08/24;00:01:12;1.016;-0.017;0.071;0.03176499158143997;-0.009773843921720982;0.006108652334660292
01:00:0A:00:00:00:00;1723680073;15/08/24;00:01:13;1.015;-0.017;0.073;0.03787364438176155;-0.010995574295520782;0.0036651913542300463
01:00:0A:00:00:00:00;1723680074;15/08/24;00:01:14;1.013;-0.019;0.07;0.036651913076639175;-0.013439035043120384;0.006108652334660292
01:00:0A:00:00:00:00;1723680075;15/08/24;00:01:15;1.014;-0.018;0.072;0.036651913076639175;-0.010995574295520782;0.004886921960860491
01:00:0A:00:00:00:00;1723680076;15/08/24;00:01:16;1.016;-0.02;0.072;0.0354301817715168;-0.012217304669320583;0.004886921960860491
01:00:0A:00:00:00:00;1723680077;15/08/24;00:01:17;1.015;-0.019;0.071;0.03420845419168472;-0.012217304669320583;0.004886921960860491
01:00:0A:00:00:00:00;1723680078;15/08/24;00:01:18;1.014;-0.019;0.072;0.03420845419168472;-0.010995574295520782;0.006108652334660292
01:00:0A:00:00:00:00;1723680079;15/08/24;00:01:19;1.016;-0.018;0.071;0.03420845419168472;-0.010995574295520782;0.0024434609804302454
01:00:0A:00:00:00:00;1723680080;15/08/24;00:01:20;1.016;-0.019;0.072;0.03298672288656235;-0.013439035043120384;0.004886921960860491
01:00:0A:00:00:00:00;1723680081;15/08/24;00:01:21;1.016;-0.02;0.072;0.03298672288656235;-0.010995574295520782;0.004886921960860491
01:00:0A:00:00:00:00;1723680082;15/08/24;00:01:22;1.015;-0.018;0.072;0.03298672288656235;-0.010995574295520782;0.004886921960860491
01:00:0A:00:00:00:00;1723680083;15/08/24;00:01:23;1.015;-0.018;0.07;0.03176499158143997;-0.013439035043120384;0.006108652334660292
01:00:0A:00:00:00:00;1723680084;15/08/24;00:01:24;1.015;-0.018;0.071;0.03298672288656235;-0.009773843921720982;0.004886921960860491
01:00:0A:00:00:00:00;1723680085;15/08/24;00:01:25;1.015;-0.019;0.072;0.03176499158143997;-0.013439035043120384;0.0036651913542300463
01:00:0A:00:00:00:00;1723680086;15/08/24;00:01:26;1.016;-0.018;0.07;0.03176499158143997;-0.012217304669320583;0.004886921960860491
01:00:0A:00:00:00:00;1723680087;15/08/24;00:01:27;1.014;-0.018;0.074;0.039095375686883926;-0.009773843921720982;0.004886921960860491
01:00:0A:00:00:00:00;1723680088;15/08/24;00:01:28;1.015;-0.017;0.072;0.04764748737215996;-0.014660765416920185;0.006108652334660292
01:00:0A:00:00:00:00;1723680089;15/08/24;00:01:29;1.015;-0.019;0.07;0.04642575979232788;-0.010995574295520782;0.006108652334660292
01:00:0A:00:00:00:00;1723680090;15/08/24;00:01:30;1.016;-0.018;0.072;0.04642575979232788;-0.010995574295520782;0.0036651913542300463
01:00:0A:00:00:00:00;1723680091;15/08/24;00:01:31;1.016;-0.019;0.071;0.04398229718208313;-0.012217304669320583;0.0073303827084600925
01:00:0A:00:00:00:00;1723680092;15/08/24;00:01:32;1.015;-0.017;0.071;0.04398229718208313;-0.010995574295520782;0.006108652334660292
01:00:0A:00:00:00:00;1723680093;15/08/24;00:01:33;1.014;-0.018;0.072;0.04398229718208313;-0.010995574295520782;0.0036651913542300463
01:00:0A:00:00:00:00;1723680094;15/08/24;00:01:34;1.015;-0.018;0.072;0.042760565876960754;-0.013439035043120384;0.004886921960860491
01:00:0A:00:00:00:00;1723680095;15/08/24;00:01:35;1.015;-0.02;0.07;0.042760565876960754;-0.010995574295520782;0.0073303827084600925
01:00:0A:00:00:00:00;1723680096;15/08/24;00:01:36;1.016;-0.019;0.072;0.042760565876960754;-0.009773843921720982;0.0036651913542300463
01:00:0A:00:00:00:00;1723680097;15/08/24;00:01:37;1.016;-0.018;0.071;0.040317103266716;-0.012217304669320583;0.00855211354792118
01:00:0A:00:00:00:00;1723680098;15/08/24;00:01:38;1.016;-0.019;0.071;0.04153883829712868;-0.012217304669320583;0.0036651913542300463
01:00:0A:00:00:00:00;1723680099;15/08/24;00:01:39;1.015;-0.018;0.072;0.04153883829712868;-0.010995574295520782;0.004886921960860491
01:00:0A:00:00:00:00;1723680100;15/08/24;00:01:40;1.015;-0.019;0.07;0.040317103266716;-0.013439035043120384;0.006108652334660292
01:00:0A:00:00:00:00;1723680101;15/08/24;00:01:41;1.015;-0.02;0.071;0.04153883829712868;-0.00855211354792118;0.006108652334660292
01:00:0A:00:00:00:00;1723680102;15/08/24;00:01:42;1.014;-0.019;0.073;0.04153883829712868;-0.013439035043120384;0.004886921960860491
01:00:0A:00:00:00:00;1723680103;15/08/24;00:01:43;1.014;-0.018;0.069;0.04153883829712868;-0.010995574295520782;0.006108652334660292
01:00:0A:00:00:00:00;1723680104;15/08/24;00:01:44;1.015;-0.018;0.073;0.04642575979232788;-0.012217304669320583;0.004886921960860491
01:00:0A:00:00:00:00;1723680105;15/08/24;00:01:45;1.016;-0.02;0.07;0.045204028487205505;-0.012217304669320583;0.006108652334660292
01:00:0A:00:00:00:00;1723680106;15/08/24;00:01:46;1.014;-0.02;0.071;0.045204028487205505;-0.010995574295520782;0.004886921960860491
01:00:0A:00:00:00:00;1723680107;15/08/24;00:01:47;1.015;-0.018;0.071;0.04398229718208313;-0.012217304669320583;0.004886921960860491
01:00:0A:00:00:00:00;1723680108;15/08/24;00:01:48;1.015;-0.02;0.072;0.04398229718208313;-0.010995574295520782;0.004886921960860491
01:00:0A:00:00:00:00;1723680109;15/08/24;00:01:49;1.016;-0.019;0.071;0.042760565876960754;-0.012217304669320583;0.006108652334660292
01:00:0A:00:00:00:00;1723680110;15/08/24;00:01:50;1.014;-0.018;0.072;0.042760565876960754;-0.009773843921720982;0.004886921960860491
01:00:0A:00:00:00:00;1723680111;15/08/24;00:01:51;1.015;-0.019;0.073;0.04153883829712868;-0.012217304669320583;0.006108652334660292
01:00:0A:00:00:00:00;1723680112;15/08/24;00:01:52;1.015;-0.02;0.072;0.04153883829712868;-0.010995574295520782;0.006108652334660292
01:00:0A:00:00:00:00;1723680113;15/08/24;00:01:53;1.016;-0.019;0.072;0.04153883829712868;-0.010995574295520782;0.0036651913542300463
01:00:0A:00:00:00:00;1723680114;15/08/24;00:01:54;1.015;-0.019;0.073;0.040317103266716;-0.010995574295520782;0.006108652334660292
01:00:0A:00:00:00:00;1723680115;15/08/24;00:01:55;1.016;-0.019;0.072;0.040317103266716;-0.012217304669320583;0.0036651913542300463
01:00:0A:00:00:00:00;1723680116;15/08/24;00:01:56;1.015;-0.018;0.071;0.039095375686883926;-0.010995574295520782;0.006108652334660292
01:00:0A:00:00:00:00;1723680117;15/08/24;00:01:57;1.015;-0.019;0.072;0.039095375686883926;-0.012217304669320583;0.004886921960860491
01:00:0A:00:00:00:00;1723680118;15/08/24;00:01:58;1.015;-0.018;0.072;0.039095375686883926;-0.010995574295520782;0.004886921960860491
01:00:0A:00:00:00:00;1723680119;15/08/24;00:01:59;1.016;-0.018;0.072;0.03787364438176155;-0.012217304669320583;0.006108652334660292
01:00:0A:00:00:00:00;1723680120;15/08/24;00:02:00;1.016;-0.018;0.072;0.03787364438176155;-0.010995574295520782;0.004886921960860491
01:00:0A:00:00:00:00;1723680121;15/08/24;00:02:01;1.015;-0.018;0.072;0.036651913076639175;-0.012217304669320583;0.004886921960860491
01:00:0A:00:00:00:00;1723680122;15/08/24;00:02:02;1.015;-0.018;0.072;0.03787364438176155;-0.010995574295520782;0.0036651913542300463
01:00:0A:00:00:00:00;1723680123;15/08/24;00:02:03;1.015;-0.019;0.072;0.036651913076639175;-0.010995574295520782;0.004886921960860491
01:00:0A:00:00:00:00;1723680124;15/08/24;00:02:04;1.015;-0.019;0.071;0.0354301817715168;-0.012217304669320583;0.004886921960860491
01:00:0A:00:00:00:00;1723680125;15/08/24;00:02:05;1.015;-0.017;0.073;0.0354301817715168;-0.010995574295520782;0.0036651913542300463
01:00:0A:00:00:00:00;1723680126;15/08/24;00:02:06;1.015;-0.018;0.071;0.03420845419168472;-0.012217304669320583;0.004886921960860491
01:00:0A:00:00:00:00;1723680127;15/08/24;00:02:07;1.015;-0.018;0.072;0.03298672288656235;-0.010995574295520782;0.0036651913542300463
01:00:0A:00:00:00:00;1723680128;15/08/24;00:02:08;1.015;-0.018;0.073;0.03298672288656235;-0.012217304669320583;0.004886921960860491
01:00:0A:00:00:00:00;1723680129;15/08/24;00:02:09;1.016;-0.019;0.072;0.03176499158143997;-0.010995574295520782;0.004886921960860491
01:00:0A:00:00:00:00;1723680130;15/08/24;00:02:10;1.015;-0.018;0.073;0.030543262138962746;-0.012217304669320583;0.0036651913542300463
01:00:0A:00:00:00:00;1723680131;15/08/24;00:02:11;1.015;-0.018;0.072;0.02932153083384037;-0.010995574295520782;0.004886921960860491
01:00:0A:00:00:00:00;1723680132;15/08/24;00:02:12;1.015;-0.018;0.072;0.028099799528717995;-0.012217304669320583;0.0036651913542300463
01:00:0A:00:00:00:00;1723680133;15/08/24;00:02:13;1.015;-0.018;0.072;0.028099799528717995;-0.010995574295520782;0.004886921960860491
01:00:0A:00:00:00:00;1723680134;15/08/24;00:02:14;1.015;-0.018;0.071;0.02687807008624077;-0.012217304669320583;0.004886921960860491
01:00:0A:00:00:00:00;1723680135;15/08/24;00:02:15;1.016;-0.018;0.072;0.025656338781118393;-0.010995574295520782;0.004886921960860491
01:00:0A:00:00:00:00;1723680136;15/08/24;00:02:16;1.015;-0.019;0.072;0.024434609338641167;-0.012217304669320583;0.004886921960860491
01:00:0A:00:00:00:00;1723680137;15/08/24;00:02:17;1.016;-0.018;0.072;0.024434609338641167;-0.010995574295520782;0.0024434609804302454
01:00:0A:00:00:00:00;1723680138;15/08/24;00:02:18;1.014;-0.018;0.073;0.02321287989616394;-0.012217304669320583;0.006108652334660292
01:00:0A:00:00:00:00;1723680139;15/08/24;00:02:19;1.015;-0.018;0.073;0.02321287989616394;-0.010995574295520782;0.0036651913542300463
01:00:0A:00:00:00:00;1723680140;15/08/24;00:02:20;1.015;-0.018;0.073;0.021991148591041565;-0.012217304669320583;0.004886921960860491
01:00:0A:00:00:00:00;1723680141;15/08/24;00:02:21;1.015;-0.019;0.072;0.02076941914856434;-0.010995574295520782;0.004886921960860491
01:00:0A:00:00:00:00;1723680142;15/08/24;00:02:22;1.014;-0.017;0.072;0.02076941914856434;-0.012217304669320583;0.0036651913542300463
01:00:0A:00:00:00:00;1723680143;15/08/24;00:02:23;1.015;-0.019;0.071;0.019547687843441963;-0.012217304669320583;0.004886921960860491
01:00:0A:00:00:00:00;1723680144;15/08/24;00:02:24;1.015;-0.019;0.071;0.019547687843441963;-0.010995574295520782;0.0024434609804302454
01:00:0A:00:00:00:00;1723680145;15/08/24;00:02:25;1.015;-0.018;0.071;0.018325956538319588;-0.012217304669320583;0.004886921960860491
01:00:0A:00:00:00:00;1723680146;15/08/24;00:02:26;1.015;-0.018;0.072;0.01710422709584236;-0.010995574295520782;0.0036651913542300463
01:00:0A:00:00:00:00;1723680147;15/08/24;00:02:27;1.016;-0.017;0.071;0.01710422709584236;-0.012217304669320583;0.0036651913542300463
01:00:0A:00:00:00:00;1723680148;15/08/24;00:02:28;1.015;-0.017;0.071;0.015882495790719986;-0.010995574295520782;0.004886921960860491
01:00:0A:00:00:00:00;1723680149;15/08/24;00:02:29;1.015;-0.019;0.071;0.015882495790719986;-0.012217304669320583;0.0036651913542300463
01:00:0A:00:00:00:00;1723680150;15/08/24;00:02:30;1.014;-0.018;0.072;0.014660765416920185;-0.010995574295520782;0.004886921960860491
01:00:0A:00:00:00:00;1723680151;15/08/24;00:02:31;1.015;-0.018;0.071;0.014660765416920185;-0.012217304669320583;0.0036651913542300463
01:00:0A:00:00:00:00;1723680152;15/08/24;00:02:32;1.016;-0.018;0.072;0.013439035043120384;-0.010995574295520782;0.004886921960860491
01:00:0A:00:00:00:00;1723680153;15/08/24;00:02:33;1.014;-0.018;0.072;0.013439035043120384;-0.012217304669320583;0.004886921960860491
01:00:0A:00:00:00:00;1723680154;15/08/24;00:02:34;1.015;-0.016;0.072;0.013439035043120384;-0.010995574295520782;0.0036651913542300463
01:00:0A:00:00:00:00;1723680155;15/08/24;00:02:35;1.015;-0.018;0.071;0.012217304669320583;-0.012217304669320583;0.004886921960860491
01:00:0A:00:00:00:00;1723680156;15/08/24;00:02:36;1.015;-0.018;0.071;0.012217304669320583;-0.010995574295520782;0.0024434609804302454
01:00:0A:00:00:00:00;1723680157;15/08/24;00:02:37;1.015;-0.017;0.071;0.010995574295520782;-0.012217304669320583;0.004886921960860491
01:00:0A:00:00:00:00;1723680158;15/08/24;00:02:38;1.015;-0.019;0.071;0.010995574295520782;-0.012217304669320583;0.0036651913542300463
01:00:0A:00:00:00:00;1723680159;15/08/24;00:02:39;1.015;-0.018;0.072;0.010995574295520782;-0.012217304669320583;0.0036651913542300463
01:00:0A:00:00:00:00;1723680160;15/08/24;00:02:40;1.015;-0.019;0.072;0.009773843921720982;-0.012217304669320583;0.0036651913542300463
01:00:0A:00:00:00:00;1723680161;15/08/24;00:02:41;1.014;-0.018;0.071;0.009773843921720982;-0.010995574295520782;0.0024434609804302454
01:00:0A:00:00:00:00;1723680162;15/08/24;00:02:42;1.015;-0.019;0.071;0.00855211354792118;-0.012217304669320583;0.004886921960860491
01:00:0A:00:00:00:00;1723680163;15/08/24;00:02:43;1.015;-0.018;0.072;0.00855211354792118;-0.012217304669320583;0.0024434609804302454
01:00:0A:00:00:00:00;1723680164;15/08/24;00:02:44;1.014;-0.017;0.07;0.00855211354792118;-0.012217304669320583;0.004886921960860491
01:00:0A:00:00:00:00;1723680165;15/08/24;00:02:45;1.015;-0.018;0.072;0.00855211354792118;-0.010995574295520782;0.0036651913542300463
01:00:0A:00:00:00:00;1723680166;15/08/24;00:02:46;1.015;-0.018;0.071;0.0073303827084600925;-0.012217304669320583;0.0036651913542300463
01:00:0A:00:00:00:00;1723680167;15/08/24;00:02:47;1.015;-0.018;0.071;0.0073303827084600925;-0.010995574295520782;0.004886921960860491
01:00:0A:00:00:00:00;1723680168;15/08/24;00:02:48;1.015;-0.018;0.071;0.0073303827084600925;-0.012217304669320583;0.0036651913542300463
01:00:0A:00:00:00:00;1723680169;15/08/24;00:02:49;1.016;-0.017;0.071;0.0073303827084600925;-0.010995574295520782;0.0036651913542300463
01:00:0A:00:00:00:00;1723680170;15/08/24;00:02:50;1.015;-0.017;0.072;0.006108652334660292;-0.012217304669320583;0.0024434609804302454
01:00:0A:00:00:00:00;1723680171;15/08/24;00:02:51;1.015;-0.018;0.072;0.006108652334660292;-0.010995574295520782;0.0036651913542300463
01:00:0A:00:00:00:00;1723680172;15/08/24;00:02:52;1.016;-0.017;0.072;0.004886921960860491;-0.012217304669320583;0.004886921960860491
01:00:0A:00:00:00:00;1723680173;15/08/24;00:02:53;1.015;-0.017;0.072;0.004886921960860491;-0.010995574295520782;0.0024434609804302454
01:00:0A:00:00:00:00;1723680174;15/08/24;00:02:54;1.014;-0.018;0.072;0.004886921960860491;-0.012217304669320583;0.004886921960860491
01:00:0A:00:00:00:00;1723680175;15/08/24;00:02:55;1.014;-0.018;0.071;0.004886921960860491;-0.010995574295520782;0.0024434609804302454
01:00:0A:00:00:00:00;1723680176;15/08/24;00:02:56;1.015;-0.018;0.072;0.0036651913542300463;-0.012217304669320583;0.0036651913542300463
01:00:0A:00:00:00:00;1723680177;15/08/24;00:02:57;1.015;-0.018;0.072;0.0036651913542300463;-0.010995574295520782;0.0036651913542300463
01:00:0A:00:00:00:00;1723680178;15/08/24;00:02:58;1.015;-0.018;0.071;0.0036651913542300463;-0.010995574295520782;0.0036651913542300463
01:00:0A:00:00:00:00;1723680179;15/08/24;00:02:59;1.015;-0.017;0.071;0.0024434609804302454;-0.010995574295520782;0.0036651913542300463
01:00:0A:00:00:00:00;1723680180;15/08/24;00:03:00;1.015;-0.018;0.073;0.0024434609804302454;-0.010995574295520782;0.0024434609804302454
01:00:0A:00:00:00:00;1723680181;15/08/24;00:03:01;1.015;-0.017;0.07;0.0024434609804302454;-0.012217304669320583;0.004886921960860491
01:00:0A:00:00:00:00;1723680182;15/08/24;00:03:02;1.016;-0.018;0.072;0.0024434609804302454;-0.010995574295520782;0.0036651913542300463
01:00:0A:00:00:00:00;1723680183;15/08/24;00:03:03;1.016;-0.018;0.071;0.0012217304902151227;-0.012217304669320583;0.0036651913542300463
01:00:0A:00:00:00:00;1723680184;15/08/24;00:03:04;1.015;-0.018;0.071;0.0012217304902151227;-0.010995574295520782;0.0036651913542300463
01:00:0A:00:00:00:00;1723680185;15/08/24;00:03:05;1.015;-0.017;0.071;0.0012217304902151227;-0.012217304669320583;0.0036651913542300463
01:00:0A:00:00:00:00;1723680186;15/08/24;00:03:06;1.015;-0.018;0.072;0.0012217304902151227;-0.010995574295520782;0.0036651913542300463
01:00:0A:00:00:00:00;1723680187;15/08/24;00:03:07;1.015;-0.018;0.072;0.0012217304902151227;-0.012217304669320583;0.0024434609804302454
01:00:0A:00:00:00:00;1723680188;15/08/24;00:03:08;1.015;-0.017;0.071;0.0012217304902151227;-0.010995574295520782;0.0036651913542300463
01:00:0A:00:00:00:00;1723680189;15/08/24;00:03:09;1.015;-0.018;0.072;0.0012217304902151227;-0.012217304669320583;0.0036651913542300463
01:00:0A:00:00:00:00;1723680190;15/08/24;00:03:10;1.015;-0.019;0.072;0.0012217304902151227;-0.010995574295520782;0.0036651913542300463
01:00:0A:00:00:00:00;1723680191;15/08/24;00:03:11;1.014;-0.018;0.071;0.0;-0.012217304669320583;0.0036651913542300463
01:00:0A:00:00:00:00;1723680192;15/08/24;00:03:12;1.015;-0.018;0.071;0.0012217304902151227;-0.010995574295520782;0.0024434609804302454
01:00:0A:00:00:00:00;1723680192;15/08/24;00:03:12;1.015;-0.019;0.072;0.0;-0.012217304669320583;0.004886921960860491
01:00:0A:00:00:00:00;1723680193;15/08/24;00:03:13;1.015;-0.018;0.071;0.0012217304902151227;-0.010995574295520782;0.0024434609804302454
01:00:0A:00:00:00:00;1723680194;15/08/24;00:03:14;1.014;-0.018;0.072;0.0;-0.012217304669320583;0.0036651913542300463
01:00:0A:00:00:00:00;1723680195;15/08/24;00:03:15;1.016;-0.019;0.071;0.0;-0.010995574295520782;0.0036651913542300463
01:00:0A:00:00:00:00;1723680196;15/08/24;00:03:16;1.016;-0.018;0.072;0.0;-0.010995574295520782;0.0036651913542300463
01:00:0A:00:00:00:00;1723680197;15/08/24;00:03:17;1.015;-0.017;0.071;0.0;-0.010995574295520782;0.0036651913542300463
01:00:0A:00:00:00:00;1723680198;15/08/24;00:03:18;1.015;-0.019;0.072;0.0012217304902151227;-0.010995574295520782;0.0024434609804302454
01:00:0A:00:00:00:00;1723680199;15/08/24;00:03:19;1.015;-0.017;0.071;0.0;-0.012217304669320583;0.0036651913542300463
01:00:0A:00:00:00:00;1723680200;15/08/24;00:03:20;1.015;-0.017;0.071;0.0;-0.010995574295520782;0.0036651913542300463
01:00:0A:00:00:00:00;1723680201;15/08/24;00:03:21;1.015;-0.017;0.071;0.0;-0.012217304669320583;0.0036651913542300463
01:00:0A:00:00:00:00;1723680202;15/08/24;00:03:22;1.016;-0.019;0.071;0.0;-0.010995574295520782;0.0036651913542300463
01:00:0A:00:00:00:00;1723680203;15/08/24;00:03:23;1.014;-0.017;0.071;0.0;-0.012217304669320583;0.0024434609804302454
01:00:0A:00:00:00:00;1723680204;15/08/24;00:03:24;1.016;-0.018;0.072;0.0;-0.010995574295520782;0.0036651913542300463
01:00:0A:00:00:00:00;1723680205;15/08/24;00:03:25;1.015;-0.019;0.072;0.0;-0.012217304669320583;0.0024434609804302454
01:00:0A:00:00:00:00;1723680206;15/08/24;00:03:26;1.015;-0.019;0.072;0.0;-0.010995574295520782;0.0036651913542300463
01:00:0A:00:00:00:00;1723680207;15/08/24;00:03:27;1.015;-0.018;0.071;0.0;-0.012217304669320583;0.0036651913542300463
01:00:0A:00:00:00:00;1723680208;15/08/24;00:03:28;1.015;-0.018;0.073;-0.0012217304902151227;-0.010995574295520782;0.0036651913542300463
01:00:0A:00:00:00:00;1723680209;15/08/24;00:03:29;1.015;-0.018;0.072;-0.0012217304902151227;-0.012217304669320583;0.0036651913542300463
01:00:0A:00:00:00:00;1723680210;15/08/24;00:03:30;1.015;-0.018;0.071;-0.0012217304902151227;-0.012217304669320583;0.0024434609804302454
01:00:0A:00:00:00:00;1723680211;15/08/24;00:03:31;1.015;-0.018;0.072;-0.0012217304902151227;-0.012217304669320583;0.0036651913542300463
01:00:0A:00:00:00:00;1723680212;15/08/24;00:03:32;1.014;-0.018;0.071;-0.0012217304902151227;-0.010995574295520782;0.0036651913542300463
01:00:0A:00:00:00:00;1723680213;15/08/24;00:03:33;1.016;-0.018;0.071;-0.0012217304902151227;-0.012217304669320583;0.0036651913542300463
01:00:0A:00:00:00:00;1723680214;15/08/24;00:03:34;1.015;-0.018;0.072;-0.0012217304902151227;-0.010995574295520782;0.0036651913542300463
01:00:0A:00:00:00:00;1723680215;15/08/24;00:03:35;1.015;-0.017;0.072;-0.0012217304902151227;-0.010995574295520782;0.0024434609804302454
01:00:0A:00:00:00:00;1723680216;15/08/24;00:03:36;1.015;-0.018;0.071;-0.0012217304902151227;-0.010995574295520782;0.0036651913542300463
01:00:0A:00:00:00:00;1723680217;15/08/24;00:03:37;1.015;-0.018;0.072;-0.0012217304902151227;-0.010995574295520782;0.0036651913542300463
01:00:0A:00:00:00:00;1723680218;15/08/24;00:03:38;1.015;-0.018;0.071;-0.0012217304902151227;-0.012217304669320583;0.0036651913542300463
01:00:0A:00:00:00:00;1723680219;15/08/24;00:03:39;1.016;-0.017;0.072;-0.0012217304902151227;-0.010995574295520782;0.0036651913542300463
01:00:0A:00:00:00:00;1723680220;15/08/24;00:03:40;1.015;-0.018;0.071;-0.0012217304902151227;-0.012217304669320583;0.0036651913542300463
01:00:0A:00:00:00:00;1723680221;15/08/24;00:03:41;1.015;-0.018;0.071;-0.0012217304902151227;-0.010995574295520782;0.0036651913542300463
01:00:0A:00:00:00:00;1723680222;15/08/24;00:03:42;1.015;-0.018;0.072;-0.0012217304902151227;-0.012217304669320583;0.0024434609804302454
01:00:0A:00:00:00:00;1723680223;15/08/24;00:03:43;1.015;-0.018;0.071;-0.0012217304902151227;-0.010995574295520782;0.0036651913542300463
01:00:0A:00:00:00:00;1723680224;15/08/24;00:03:44;1.015;-0.019;0.071;-0.0012217304902151227;-0.012217304669320583;0.0036651913542300463
01:00:0A:00:00:00:00;1723680225;15/08/24;00:03:45;1.015;-0.018;0.071;-0.0012217304902151227;-0.010995574295520782;0.0036651913542300463
01:00:0A:00:00:00:00;1723680226;15/08/24;00:03:46;1.015;-0.018;0.071;-0.0012217304902151227;-0.012217304669320583;0.0036651913542300463
01:00:0A:00:00:00:00;1723680227;15/08/24;00:03:47;1.015;-0.018;0.071;-0.0012217304902151227;-0.010995574295520782;0.0024434609804302454
01:00:0A:00:00:00:00;1723680228;15/08/24;00:03:48;1.016;-0.018;0.073;-0.0012217304902151227;-0.012217304669320583;0.0036651913542300463
01:00:0A:00:00:00:00;1723680229;15/08/24;00:03:49;1.015;-0.019;0.072;-0.0012217304902151227;-0.010995574295520782;0.0036651913542300463
01:00:0A:00:00:00:00;1723680230;15/08/24;00:03:50;1.015;-0.019;0.071;-0.0012217304902151227;-0.012217304669320583;0.0036651913542300463
01:00:0A:00:00:00:00;1723680231;15/08/24;00:03:51;1.015;-0.018;0.072;-0.0012217304902151227;-0.010995574295520782;0.0036651913542300463
01:00:0A:00:00:00:00;1723680232;15/08/24;00:03:52;1.016;-0.018;0.071;-0.0012217304902151227;-0.012217304669320583;0.0036651913542300463
01:00:0A:00:00:00:00;1723680233;15/08/24;00:03:53;1.014;-0.018;0.071;-0.0012217304902151227;-0.012217304669320583;0.0036651913542300463
01:00:0A:00:00:00:00;1723680234;15/08/24;00:03:54;1.016;-0.018;0.072;-0.0012217304902151227;-0.010995574295520782;0.0036651913542300463
01:00:0A:00:00:00:00;1723680235;15/08/24;00:03:55;1.016;-0.018;0.071;-0.0024434609804302454;-0.012217304669320583;0.0036651913542300463
01:00:0A:00:00:00:00;1723680236;15/08/24;00:03:56;1.015;-0.02;0.072;-0.0024434609804302454;-0.010995574295520782;0.0024434609804302454
01:00:0A:00:00:00:00;1723680237;15/08/24;00:03:57;1.015;-0.018;0.071;-0.0024434609804302454;-0.012217304669320583;0.0036651913542300463
01:00:0A:00:00:00:00;1723680238;15/08/24;00:03:58;1.016;-0.018;0.071;-0.0024434609804302454;-0.010995574295520782;0.0036651913542300463
01:00:0A:00:00:00:00;1723680239;15/08/24;00:03:59;1.014;-0.019;0.072;-0.0024434609804302454;-0.012217304669320583;0.0024434609804302454
01:00:0A:00:00:00:00;1723680240;15/08/24;00:04:00;1.015;-0.018;0.071;-0.0024434609804302454;-0.010995574295520782;0.0036651913542300463
01:00:0A:00:00:00:00;1723680241;15/08/24;00:04:01;1.016;-0.018;0.072;-0.0024434609804302454;-0.012217304669320583;0.0024434609804302454
01:00:0A:00:00:00:00;1723680242;15/08/24;00:04:02;1.016;-0.019;0.072;-0.0024434609804302454;-0.010995574295520782;0.0036651913542300463
01:00:0A:00:00:00:00;1723680243;15/08/24;00:04:03;1.013;-0.019;0.072;-0.0036651913542300463;-0.012217304669320583;0.0036651913542300463
01:00:0A:00:00:00:00;1723680244;15/08/24;00:04:04;1.016;-0.019;0.073;-0.0036651913542300463;-0.010995574295520782;0.0036651913542300463
01:00:0A:00:00:00:00;1723680245;15/08/24;00:04:05;1.014;-0.018;0.071;-0.0036651913542300463;-0.012217304669320583;0.0036651913542300463
01:00:0A:00:00:00:00;1723680246;15/08/24;00:04:06;1.015;-0.019;0.072;-0.0036651913542300463;-0.010995574295520782;0.0024434609804302454
01:00:0A:00:00:00:00;1723680247;15/08/24;00:04:07;1.015;-0.018;0.071;-0.0036651913542300463;-0.012217304669320583;0.0036651913542300463
01:00:0A:00:00:00:00;1723680248;15/08/24;00:04:08;1.016;-0.018;0.071;-0.0036651913542300463;-0.010995574295520782;0.0024434609804302454
01:00:0A:00:00:00:00;1723680249;15/08/24;00:04:09;1.015;-0.019;0.072;-0.0036651913542300463;-0.012217304669320583;0.0036651913542300463
01:00:0A:00:00:00:00;1723680250;15/08/24;00:04:10;1.015;-0.017;0.07;-0.004886921960860491;-0.012217304669320583;0.0024434609804302454
01:00:0A:00:00:00:00;1723680251;15/08/24;00:04:11;1.015;-0.018;0.071;-0.0036651913542300463;-0.010995574295520782;0.0036651913542300463
01:00:0A:00:00:00:00;1723680252;15/08/24;00:04:12;1.016;-0.019;0.071;-0.0036651913542300463;-0.012217304669320583;0.0036651913542300463
01:00:0A:00:00:00:00;1723680253;15/08/24;00:04:13;1.015;-0.019;0.072;-0.0036651913542300463;-0.010995574295520782;0.0024434609804302454
01:00:0A:00:00:00:00;1723680254;15/08/24;00:04:14;1.015;-0.019;0.071;-0.004886921960860491;-0.012217304669320583;0.0024434609804302454
01:00:0A:00:00:00:00;1723680255;15/08/24;00:04:15;1.015;-0.018;0.072;-0.004886921960860491;-0.010995574295520782;0.0036651913542300463
01:00:0A:00:00:00:00;1723680256;15/08/24;00:04:16;1.014;-0.019;0.072;-0.004886921960860491;-0.012217304669320583;0.0024434609804302454
01:00:0A:00:00:00:00;1723680257;15/08/24;00:04:17;1.016;-0.017;0.071;-0.004886921960860491;-0.010995574295520782;0.0036651913542300463
01:00:0A:00:00:00:00;1723680258;15/08/24;00:04:18;1.016;-0.017;0.072;-0.004886921960860491;-0.012217304669320583;0.0024434609804302454
01:00:0A:00:00:00:00;1723680259;15/08/24;00:04:19;1.015;-0.017;0.072;-0.004886921960860491;-0.010995574295520782;0.0036651913542300463
01:00:0A:00:00:00:00;1723680260;15/08/24;00:04:20;1.015;-0.018;0.071;-0.004886921960860491;-0.012217304669320583;0.0024434609804302454
01:00:0A:00:00:00:00;1723680261;15/08/24;00:04:21;1.015;-0.018;0.07;-0.004886921960860491;-0.010995574295520782;0.0036651913542300463
01:00:0A:00:00:00:00;1723680262;15/08/24;00:04:22;1.014;-0.019;0.073;-0.004886921960860491;-0.012217304669320583;0.0024434609804302454
01:00:0A:00:00:00:00;1723680263;15/08/24;00:04:23;1.015;-0.018;0.07;-0.004886921960860491;-0.010995574295520782;0.0024434609804302454
01:00:0A:00:00:00:00;1723680264;15/08/24;00:04:24;1.016;-0.018;0.071;-0.004886921960860491;-0.012217304669320583;0.0036651913542300463
01:00:0A:00:00:00:00;1723680265;15/08/24;00:04:25;1.014;-0.018;0.071;-0.004886921960860491;-0.010995574295520782;0.0024434609804302454
01:00:0A:00:00:00:00;1723680266;15/08/24;00:04:26;1.015;-0.018;0.072;-0.004886921960860491;-0.012217304669320583;0.0036651913542300463
01:00:0A:00:00:00:00;1723680267;15/08/24;00:04:27;1.015;-0.017;0.071;-0.004886921960860491;-0.010995574295520782;0.0024434609804302454
01:00:0A:00:00:00:00;1723680268;15/08/24;00:04:28;1.015;-0.019;0.072;-0.004886921960860491;-0.012217304669320583;0.0036651913542300463
01:00:0A:00:00:00:00;1723680269;15/08/24;00:04:29;1.014;-0.018;0.071;-0.004886921960860491;-0.012217304669320583;0.0036651913542300463
01:00:0A:00:00:00:00;1723680270;15/08/24;00:04:30;1.014;-0.018;0.071;-0.004886921960860491;-0.010995574295520782;0.0024434609804302454
01:00:0A:00:00:00:00;1723680271;15/08/24;00:04:31;1.016;-0.019;0.072;-0.006108652334660292;-0.012217304669320583;0.0036651913542300463
01:00:0A:00:00:00:00;1723680272;15/08/24;00:04:32;1.015;-0.019;0.071;-0.004886921960860491;-0.010995574295520782;0.0024434609804302454
01:00:0A:00:00:00:00;1723680273;15/08/24;00:04:33;1.014;-0.018;0.071;-0.004886921960860491;-0.012217304669320583;0.0036651913542300463
01:00:0A:00:00:00:00;1723680274;15/08/24;00:04:34;1.015;-0.018;0.072;-0.004886921960860491;-0.010995574295520782;0.0036651913542300463
01:00:0A:00:00:00:00;1723680275;15/08/24;00:04:35;1.016;-0.018;0.071;-0.004886921960860491;-0.012217304669320583;0.0036651913542300463
01:00:0A:00:00:00:00;1723680276;15/08/24;00:04:36;1.016;-0.019;0.071;-0.006108652334660292;-0.012217304669320583;0.0036651913542300463
01:00:0A:00:00:00:00;1723680277;15/08/24;00:04:37;1.015;-0.018;0.071;-0.004886921960860491;-0.010995574295520782;0.0024434609804302454
01:00:0A:00:00:00:00;1723680278;15/08/24;00:04:38;1.015;-0.017;0.071;-0.004886921960860491;-0.010995574295520782;0.0036651913542300463
01:00:0A:00:00:00:00;1723680279;15/08/24;00:04:39;1.016;-0.017;0.071;-0.004886921960860491;-0.010995574295520782;0.0024434609804302454
01:00:0A:00:00:00:00;1723680280;15/08/24;00:04:40;1.015;-0.018;0.072;-0.006108652334660292;-0.010995574295520782;0.0024434609804302454
01:00:0A:00:00:00:00;1723680281;15/08/24;00:04:41;1.015;-0.018;0.071;-0.006108652334660292;-0.012217304669320583;0.0024434609804302454
01:00:0A:00:00:00:00;1723680282;15/08/24;00:04:42;1.015;-0.018;0.072;-0.006108652334660292;-0.010995574295520782;0.0036651913542300463
01:00:0A:00:00:00:00;1723680283;15/08/24;00:04:43;1.015;-0.018;0.072;-0.004886921960860491;-0.012217304669320583;0.0036651913542300463
01:00:0A:00:00:00:00;1723680284;15/08/24;00:04:44;1.014;-0.019;0.071;-0.006108652334660292;-0.010995574295520782;0.0036651913542300463
01:00:0A:00:00:00:00;1723680285;15/08/24;00:04:45;1.015;-0.017;0.072;-0.006108652334660292;-0.012217304669320583;0.0024434609804302454
01:00:0A:00:00:00:00;1723680286;15/08/24;00:04:46;1.015;-0.019;0.072;-0.006108652334660292;-0.012217304669320583;0.0036651913542300463
01:00:0A:00:00:00:00;1723680287;15/08/24;00:04:47;1.016;-0.018;0.072;-0.006108652334660292;-0.010995574295520782;0.0024434609804302454
01:00:0A:00:00:00:00;1723680288;15/08/24;00:04:48;1.014;-0.018;0.07;-0.006108652334660292;-0.012217304669320583;0.0036651913542300463
01:00:0A:00:00:00:00;1723680289;15/08/24;00:04:49;1.016;-0.018;0.072;-0.006108652334660292;-0.010995574295520782;0.0024434609804302454
01:00:0A:00:00:00:00;1723680290;15/08/24;00:04:50;1.015;-0.019;0.071;-0.006108652334660292;-0.012217304669320583;0.0024434609804302454
01:00:0A:00:00:00:00;1723680291;15/08/24;00:04:51;1.016;-0.019;0.071;-0.006108652334660292;-0.010995574295520782;0.0024434609804302454
01:00:0A:00:00:00:00;1723680292;15/08/24;00:04:52;1.015;-0.018;0.072;-0.006108652334660292;-0.012217304669320583;0.0024434609804302454
01:00:0A:00:00:00:00;1723680293;15/08/24;00:04:53;1.015;-0.018;0.072;-0.006108652334660292;-0.012217304669320583;0.0036651913542300463
01:00:0A:00:00:00:00;1723680294;15/08/24;00:04:54;1.015;-0.018;0.071;-0.006108652334660292;-0.012217304669320583;0.0024434609804302454
01:00:0A:00:00:00:00;1723680295;15/08/24;00:04:55;1.016;-0.018;0.071;-0.006108652334660292;-0.012217304669320583;0.0036651913542300463
01:00:0A:00:00:00:00;1723680296;15/08/24;00:04:56;1.016;-0.019;0.071;-0.006108652334660292;-0.010995574295520782;0.0024434609804302454
01:00:0A:00:00:00:00;1723680297;15/08/24;00:04:57;1.016;-0.017;0.071;-0.006108652334660292;-0.010995574295520782;0.0036651913542300463
01:00:0A:00:00:00:00;1723680298;15/08/24;00:04:58;1.016;-0.019;0.071;-0.006108652334660292;-0.012217304669320583;0.0024434609804302454
01:00:0A:00:00:00:00;1723680299;15/08/24;00:04:59;1.015;-0.018;0.071;-0.006108652334660292;-0.010995574295520782;0.0036651913542300463
01:00:0A:00:00:00:00;1723680300;15/08/24;00:05:00;1.015;-0.019;0.072;-0.006108652334660292;-0.012217304669320583;0.0024434609804302454
01:00:0A:00:00:00:00;1723680301;15/08/24;00:05:01;1.015;-0.019;0.072;-0.006108652334660292;-0.010995574295520782;0.0024434609804302454
01:00:0A:00:00:00:00;1723680302;15/08/24;00:05:02;1.015;-0.018;0.071;-0.006108652334660292;-0.012217304669320583;0.0036651913542300463
01:00:0A:00:00:00:00;1723680303;15/08/24;00:05:03;1.015;-0.019;0.071;-0.006108652334660292;-0.010995574295520782;0.0024434609804302454
01:00:0A:00:00:00:00;1723680304;15/08/24;00:05:04;1.015;-0.016;0.071;-0.006108652334660292;-0.012217304669320583;0.0024434609804302454
01:00:0A:00:00:00:00;1723680305;15/08/24;00:05:05;1.015;-0.017;0.071;-0.006108652334660292;-0.012217304669320583;0.0036651913542300463
01:00:0A:00:00:00:00;1723680306;15/08/24;00:05:06;1.016;-0.019;0.071;-0.006108652334660292;-0.010995574295520782;0.0024434609804302454
01:00:0A:00:00:00:00;1723680307;15/08/24;00:05:07;1.016;-0.018;0.071;-0.006108652334660292;-0.010995574295520782;0.0036651913542300463
01:00:0A:00:00:00:00;1723680308;15/08/24;00:05:08;1.015;-0.019;0.071;-0.006108652334660292;-0.010995574295520782;0.0036651913542300463
01:00:0A:00:00:00:00;1723680309;15/08/24;00:05:09;1.015;-0.018;0.071;-0.004886921960860491;-0.012217304669320583;0.0036651913542300463
01:00:0A:00:00:00:00;1723680310;15/08/24;00:05:10;1.014;-0.018;0.072;-0.006108652334660292;-0.010995574295520782;0.0036651913542300463
01:00:0A:00:00:00:00;1723680311;15/08/24;00:05:11;1.015;-0.019;0.071;-0.004886921960860491;-0.010995574295520782;0.0036651913542300463
01:00:0A:00:00:00:00;1723680312;15/08/24;00:05:12;1.015;-0.018;0.071;-0.004886921960860491;-0.012217304669320583;0.0036651913542300463
01:00:0A:00:00:00:00;1723680313;15/08/24;00:05:13;1.016;-0.018;0.071;-0.004886921960860491;-0.010995574295520782;0.0024434609804302454
01:00:0A:00:00:00:00;1723680314;15/08/24;00:05:14;1.015;-0.018;0.071;-0.004886921960860491;-0.010995574295520782;0.0036651913542300463
01:00:0A:00:00:00:00;1723680315;15/08/24;00:05:15;1.014;-0.017;0.07;-0.004886921960860491;-0.010995574295520782;0.0024434609804302454
01:00:0A:00:00:00:00;1723680316;15/08/24;00:05:16;1.015;-0.019;0.072;-0.004886921960860491;-0.012217304669320583;0.0036651913542300463
01:00:0A:00:00:00:00;1723680317;15/08/24;00:05:17;1.014;-0.018;0.071;-0.0036651913542300463;-0.012217304669320583;0.0024434609804302454
01:00:0A:00:00:00:00;1723680318;15/08/24;00:05:18;1.015;-0.017;0.072;-0.0036651913542300463;-0.010995574295520782;0.0024434609804302454
01:00:0A:00:00:00:00;1723680319;15/08/24;00:05:19;1.016;-0.018;0.071;-0.0036651913542300463;-0.012217304669320583;0.0036651913542300463
01:00:0A:00:00:00:00;1723680320;15/08/24;00:05:20;1.015;-0.018;0.071;-0.0036651913542300463;-0.010995574295520782;0.0036651913542300463
01:00:0A:00:00:00:00;1723680321;15/08/24;00:05:21;1.015;-0.017;0.071;-0.0036651913542300463;-0.012217304669320583;0.0036651913542300463
01:00:0A:00:00:00:00;1723680322;15/08/24;00:05:22;1.015;-0.019;0.07;-0.0024434609804302454;-0.010995574295520782;0.0036651913542300463
01:00:0A:00:00:00:00;1723680323;15/08/24;00:05:23;1.014;-0.018;0.072;-0.0024434609804302454;-0.010995574295520782;0.0036651913542300463
01:00:0A:00:00:00:00;1723680324;15/08/24;00:05:24;1.015;-0.018;0.072;-0.0024434609804302454;-0.012217304669320583;0.0036651913542300463
01:00:0A:00:00:00:00;1723680325;15/08/24;00:05:25;1.015;-0.018;0.071;-0.0024434609804302454;-0.010995574295520782;0.0036651913542300463
01:00:0A:00:00:00:00;1723680326;15/08/24;00:05:26;1.015;-0.017;0.072;-0.0024434609804302454;-0.012217304669320583;0.0036651913542300463
01:00:0A:00:00:00:00;1723680327;15/08/24;00:05:27;1.015;-0.018;0.072;-0.0024434609804302454;-0.010995574295520782;0.0036651913542300463
01:00:0A:00:00:00:00;1723680328;15/08/24;00:05:28;1.015;-0.018;0.072;-0.0024434609804302454;-0.012217304669320583;0.0036651913542300463
01:00:0A:00:00:00:00;1723680329;15/08/24;00:05:29;1.015;-0.018;0.072;-0.0024434609804302454;-0.010995574295520782;0.0036651913542300463
01:00:0A:00:00:00:00;1723680330;15/08/24;00:05:30;1.016;-0.017;0.071;-0.0012217304902151227;-0.010995574295520782;0.0024434609804302454
01:00:0A:00:00:00:00;1723680331;15/08/24;00:05:31;1.015;-0.018;0.071;-0.0012217304902151227;-0.012217304669320583;0.0036651913542300463
01:00:0A:00:00:00:00;1723680332;15/08/24;00:05:32;1.015;-0.017;0.071;-0.0012217304902151227;-0.010995574295520782;0.0024434609804302454
01:00:0A:00:00:00:00;1723680333;15/08/24;00:05:33;1.015;-0.018;0.072;-0.0012217304902151227;-0.012217304669320583;0.0036651913542300463
01:00:0A:00:00:00:00;1723680334;15/08/24;00:05:34;1.015;-0.018;0.072;-0.0012217304902151227;-0.010995574295520782;0.0024434609804302454
01:00:0A:00:00:00:00;1723680335;15/08/24;00:05:35;1.015;-0.019;0.071;-0.0012217304902151227;-0.010995574295520782;0.0036651913542300463
01:00:0A:00:00:00:00;1723680336;15/08/24;00:05:36;1.015;-0.018;0.072;-0.0012217304902151227;-0.012217304669320583;0.0036651913542300463
01:00:0A:00:00:00:00;1723680337;15/08/24;00:05:37;1.016;-0.019;0.072;0.0;-0.010995574295520782;0.0036651913542300463
01:00:0A:00:00:00:00;1723680338;15/08/24;00:05:38;1.014;-0.018;0.072;0.0;-0.012217304669320583;0.0036651913542300463
01:00:0A:00:00:00:00;1723680339;15/08/24;00:05:39;1.016;-0.018;0.071;0.0;-0.010995574295520782;0.0036651913542300463
01:00:0A:00:00:00:00;1723680340;15/08/24;00:05:40;1.015;-0.018;0.071;0.0;-0.012217304669320583;0.0036651913542300463
01:00:0A:00:00:00:00;1723680341;15/08/24;00:05:41;1.016;-0.019;0.071;0.0;-0.010995574295520782;0.0036651913542300463
01:00:0A:00:00:00:00;1723680342;15/08/24;00:05:42;1.016;-0.018;0.072;0.0;-0.010995574295520782;0.0036651913542300463
01:00:0A:00:00:00:00;1723680343;15/08/24;00:05:43;1.016;-0.018;0.072;0.0;-0.012217304669320583;0.0036651913542300463
01:00:0A:00:00:00:00;1723680344;15/08/24;00:05:44;1.015;-0.019;0.072;0.0;-0.010995574295520782;0.0036651913542300463
01:00:0A:00:00:00:00;1723680345;15/08/24;00:05:45;1.015;-0.018;0.072;0.0;-0.012217304669320583;0.0036651913542300463
01:00:0A:00:00:00:00;1723680346;15/08/24;00:05:46;1.015;-0.019;0.072;0.0;-0.010995574295520782;0.0036651913542300463
01:00:0A:00:00:00:00;1723680347;15/08/24;00:05:47;1.016;-0.019;0.072;0.0;-0.012217304669320583;0.0024434609804302454
01:00:0A:00:00:00:00;1723680348;15/08/24;00:05:48;1.016;-0.018;0.071;0.0;-0.012217304669320583;0.0036651913542300463
01:00:0A:00:00:00:00;1723680349;15/08/24;00:05:49;1.016;-0.018;0.071;0.0;-0.010995574295520782;0.0036651913542300463
01:00:0A:00:00:00:00;1723680350;15/08/24;00:05:50;1.015;-0.019;0.072;0.0;-0.012217304669320583;0.0036651913542300463
01:00:0A:00:00:00:00;1723680351;15/08/24;00:05:51;1.014;-0.018;0.07;0.0;-0.010995574295520782;0.0024434609804302454
01:00:0A:00:00:00:00;1723680352;15/08/24;00:05:52;1.015;-0.019;0.071;0.0;-0.012217304669320583;0.0036651913542300463
01:00:0A:00:00:00:00;1723680353;15/08/24;00:05:53;1.015;-0.018;0.071;0.0;-0.012217304669320583;0.0036651913542300463
01:00:0A:00:00:00:00;1723680354;15/08/24;00:05:54;1.016;-0.018;0.073;0.0;-0.010995574295520782;0.0036651913542300463
01:00:0A:00:00:00:00;1723680355;15/08/24;00:05:55;1.015;-0.018;0.071;0.0;-0.010995574295520782;0.0036651913542300463
01:00:0A:00:00:00:00;1723680356;15/08/24;00:05:56;1.015;-0.018;0.072;0.0;-0.010995574295520782;0.0036651913542300463
01:00:0A:00:00:00:00;1723680357;15/08/24;00:05:57;1.015;-0.017;0.071;0.0;-0.010995574295520782;0.0036651913542300463
01:00:0A:00:00:00:00;1723680358;15/08/24;00:05:58;1.015;-0.019;0.07;0.0;-0.012217304669320583;0.0024434609804302454
01:00:0A:00:00:00:00;1723680359;15/08/24;00:05:59;1.014;-0.019;0.072;0.0;-0.010995574295520782;0.0036651913542300463
01:00:0A:00:00:00:00;1723680360;15/08/24;00:06:00;1.015;-0.018;0.072;0.0;-0.012217304669320583;0.0036651913542300463
01:00:0A:00:00:00:00;1723680361;15/08/24;00:06:01;1.015;-0.017;0.071;0.0;-0.010995574295520782;0.0036651913542300463
01:00:0A:00:00:00:00;1723680362;15/08/24;00:06:02;1.014;-0.018;0.071;0.0;-0.010995574295520782;0.0024434609804302454
01:00:0A:00:00:00:00;1723680363;15/08/24;00:06:03;1.015;-0.018;0.072;0.0;-0.010995574295520782;0.0036651913542300463
01:00:0A:00:00:00:00;1723680364;15/08/24;00:06:04;1.015;-0.018;0.072;0.0;-0.012217304669320583;0.0036651913542300463
01:00:0A:00:00:00:00;1723680365;15/08/24;00:06:05;1.016;-0.019;0.072;0.0;-0.010995574295520782;0.0036651913542300463
01:00:0A:00:00:00:00;1723680366;15/08/24;00:06:06;1.014;-0.017;0.07;0.0;-0.010995574295520782;0.0024434609804302454
01:00:0A:00:00:00:00;1723680367;15/08/24;00:06:07;1.015;-0.019;0.071;0.0;-0.010995574295520782;0.0036651913542300463
01:00:0A:00:00:00:00;1723680368;15/08/24;00:06:08;1.014;-0.016;0.087;-0.0036651913542300463;0.0012217304902151227;0.0024434609804302454
01:00:0A:00:00:00:00;1723680369;15/08/24;00:06:09;1.014;-0.016;0.09;-0.015882495790719986;-0.015882495790719986;0.0012217304902151227
01:00:0A:00:00:00:00;1723680370;15/08/24;00:06:10;1.015;-0.017;0.078;-0.02321287989616394;-0.02932153083384037;0.0036651913542300463
01:00:0A:00:00:00:00;1723680371;15/08/24;00:06:11;1.016;-0.02;0.063;-0.019547687843441963;-0.013439035043120384;0.0024434609804302454
01:00:0A:00:00:00:00;1723680372;15/08/24;00:06:12;1.015;-0.018;0.077;-0.014660765416920185;0.0024434609804302454;0.0012217304902151227
01:00:0A:00:00:00:00;1723680373;15/08/24;00:06:13;1.016;-0.018;0.075;-0.019547687843441963;-0.024434609338641167;0.0036651913542300463
01:00:0A:00:00:00:00;1723680374;15/08/24;00:06:14;1.016;-0.018;0.064;-0.015882495790719986;-0.009773843921720982;0.0024434609804302454
01:00:0A:00:00:00:00;1723680375;15/08/24;00:06:15;1.015;-0.017;0.076;-0.013439035043120384;-0.0012217304902151227;0.0024434609804302454
01:00:0A:00:00:00:00;1723680376;15/08/24;00:06:16;1.015;-0.018;0.073;-0.018325956538319588;-0.024434609338641167;0.0024434609804302454
01:00:0A:00:00:00:00;1723680377;15/08/24;00:06:17;1.016;-0.018;0.065;-0.013439035043120384;-0.0073303827084600925;0.0024434609804302454
01:00:0A:00:00:00:00;1723680378;15/08/24;00:06:18;1.015;-0.018;0.076;-0.012217304669320583;-0.0024434609804302454;0.0036651913542300463
01:00:0A:00:00:00:00;1723680379;15/08/24;00:06:19;1.016;-0.018;0.072;-0.015882495790719986;-0.02321287989616394;0.0012217304902151227
01:00:0A:00:00:00:00;1723680380;15/08/24;00:06:20;1.015;-0.017;0.065;-0.012217304669320583;-0.0073303827084600925;0.0024434609804302454
01:00:0A:00:00:00:00;1723680381;15/08/24;00:06:21;1.015;-0.019;0.077;-0.012217304669320583;-0.006108652334660292;0.0036651913542300463
01:00:0A:00:00:00:00;1723680382;15/08/24;00:06:22;1.016;-0.019;0.07;-0.013439035043120384;-0.021991148591041565;0.0012217304902151227
01:00:0A:00:00:00:00;1723680383;15/08/24;00:06:23;1.016;-0.018;0.068;-0.009773843921720982;-0.006108652334660292;0.0024434609804302454
01:00:0A:00:00:00:00;1723680384;15/08/24;00:06:24;1.014;-0.018;0.076;-0.010995574295520782;-0.00855211354792118;0.0036651913542300463
01:00:0A:00:00:00:00;1723680385;15/08/24;00:06:25;1.014;-0.018;0.071;-0.012217304669320583;-0.02076941914856434;0.0012217304902151227
01:00:0A:00:00:00:00;1723680386;15/08/24;00:06:26;1.015;-0.018;0.069;-0.009773843921720982;-0.006108652334660292;0.0036651913542300463
01:00:0A:00:00:00:00;1723680387;15/08/24;00:06:27;1.015;-0.019;0.075;-0.009773843921720982;-0.009773843921720982;0.0036651913542300463
01:00:0A:00:00:00:00;1723680388;15/08/24;00:06:28;1.015;-0.018;0.071;-0.010995574295520782;-0.018325956538319588;0.0012217304902151227
01:00:0A:00:00:00:00;1723680389;15/08/24;00:06:29;1.015;-0.018;0.07;-0.00855211354792118;-0.004886921960860491;0.0036651913542300463
01:00:0A:00:00:00:00;1723680390;15/08/24;00:06:30;1.015;-0.018;0.075;-0.009773843921720982;-0.012217304669320583;0.0036651913542300463
01:00:0A:00:00:00:00;1723680391;15/08/24;00:06:31;1.015;-0.019;0.069;-0.009773843921720982;-0.01710422709584236;0.0012217304902151227
01:00:0A:00:00:00:00;1723680392;15/08/24;00:06:32;1.016;-0.018;0.07;-0.0073303827084600925;-0.006108652334660292;0.004886921960860491
01:00:0A:00:00:00:00;1723680393;15/08/24;00:06:33;1.015;-0.019;0.075;-0.00855211354792118;-0.012217304669320583;0.0036651913542300463
01:00:0A:00:00:00:00;1723680394;15/08/24;00:06:34;1.016;-0.018;0.07;-0.00855211354792118;-0.015882495790719986;0.0012217304902151227
01:00:0A:00:00:00:00;1723680395;15/08/24;00:06:35;1.015;-0.017;0.071;-0.006108652334660292;-0.006108652334660292;0.004886921960860491
01:00:0A:00:00:00:00;1723680396;15/08/24;00:06:36;1.014;-0.019;0.074;-0.0073303827084600925;-0.013439035043120384;0.0036651913542300463
01:00:0A:00:00:00:00;1723680397;15/08/24;00:06:37;1.015;-0.018;0.069;-0.006108652334660292;-0.014660765416920185;0.0012217304902151227
01:00:0A:00:00:00:00;1723680398;15/08/24;00:06:38;1.015;-0.018;0.072;-0.006108652334660292;-0.006108652334660292;0.004886921960860491
01:00:0A:00:00:00:00;1723680399;15/08/24;00:06:39;1.015;-0.019;0.073;-0.006108652334660292;-0.014660765416920185;0.0024434609804302454
01:00:0A:00:00:00:00;1723680400;15/08/24;00:06:40;1.015;-0.018;0.07;-0.006108652334660292;-0.013439035043120384;0.0012217304902151227
01:00:0A:00:00:00:00;1723680401;15/08/24;00:06:41;1.016;-0.017;0.071;-0.004886921960860491;-0.0073303827084600925;0.004886921960860491
01:00:0A:00:00:00:00;1723680402;15/08/24;00:06:42;1.016;-0.018;0.072;-0.006108652334660292;-0.014660765416920185;0.0024434609804302454
01:00:0A:00:00:00:00;1723680403;15/08/24;00:06:43;1.014;-0.018;0.07;-0.004886921960860491;-0.012217304669320583;0.0024434609804302454
01:00:0A:00:00:00:00;1723680404;15/08/24;00:06:44;1.016;-0.017;0.072;-0.0036651913542300463;-0.00855211354792118;0.004886921960860491
01:00:0A:00:00:00:00;1723680405;15/08/24;00:06:45;1.014;-0.019;0.072;-0.004886921960860491;-0.014660765416920185;0.0024434609804302454
01:00:0A:00:00:00:00;1723680406;15/08/24;00:06:46;1.015;-0.018;0.071;-0.0036651913542300463;-0.012217304669320583;0.0024434609804302454
01:00:0A:00:00:00:00;1723680407;15/08/24;00:06:47;1.015;-0.017;0.071;-0.0036651913542300463;-0.00855211354792118;0.004886921960860491
01:00:0A:00:00:00:00;1723680408;15/08/24;00:06:48;1.016;-0.019;0.072;-0.0036651913542300463;-0.013439035043120384;0.0024434609804302454
01:00:0A:00:00:00:00;1723680409;15/08/24;00:06:49;1.016;-0.018;0.071;-0.0036651913542300463;-0.010995574295520782;0.0024434609804302454
01:00:0A:00:00:00:00;1723680410;15/08/24;00:06:50;1.015;-0.018;0.072;-0.0036651913542300463;-0.009773843921720982;0.004886921960860491
01:00:0A:00:00:00:00;1723680411;15/08/24;00:06:51;1.015;-0.018;0.072;-0.0036651913542300463;-0.013439035043120384;0.0024434609804302454
01:00:0A:00:00:00:00;1723680412;15/08/24;00:06:52;1.015;-0.018;0.07;-0.0024434609804302454;-0.010995574295520782;0.0024434609804302454
01:00:0A:00:00:00:00;1723680413;15/08/24;00:06:53;1.014;-0.018;0.073;-0.0036651913542300463;-0.009773843921720982;0.004886921960860491
01:00:0A:00:00:00:00;1723680414;15/08/24;00:06:54;1.015;-0.019;0.072;-0.0024434609804302454;-0.013439035043120384;0.0024434609804302454
01:00:0A:00:00:00:00;1723680415;15/08/24;00:06:55;1.015;-0.018;0.07;-0.0024434609804302454;-0.010995574295520782;0.0036651913542300463
01:00:0A:00:00:00:00;1723680416;15/08/24;00:06:56;1.015;-0.018;0.072;-0.0024434609804302454;-0.010995574295520782;0.0036651913542300463
01:00:0A:00:00:00:00;1723680417;15/08/24;00:06:57;1.015;-0.019;0.071;-0.0024434609804302454;-0.013439035043120384;0.0024434609804302454
01:00:0A:00:00:00:00;1723680418;15/08/24;00:06:58;1.014;-0.018;0.07;-0.0024434609804302454;-0.010995574295520782;0.0036651913542300463
01:00:0A:00:00:00:00;1723680419;15/08/24;00:06:59;1.015;-0.019;0.073;-0.0024434609804302454;-0.010995574295520782;0.0036651913542300463
01:00:0A:00:00:00:00;1723680420;15/08/24;00:07:00;1.016;-0.02;0.071;-0.0024434609804302454;-0.013439035043120384;0.0024434609804302454
01:00:0A:00:00:00:00;1723680421;15/08/24;00:07:01;1.015;-0.018;0.07;-0.0012217304902151227;-0.009773843921720982;0.0036651913542300463
01:00:0A:00:00:00:00;1723680422;15/08/24;00:07:02;1.015;-0.018;0.073;-0.0024434609804302454;-0.010995574295520782;0.0036651913542300463
01:00:0A:00:00:00:00;1723680423;15/08/24;00:07:03;1.015;-0.018;0.07;-0.0012217304902151227;-0.012217304669320583;0.0024434609804302454
01:00:0A:00:00:00:00;1723680424;15/08/24;00:07:04;1.015;-0.018;0.07;-0.0012217304902151227;-0.010995574295520782;0.0036651913542300463
01:00:0A:00:00:00:00;1723680425;15/08/24;00:07:05;1.015;-0.018;0.072;-0.0012217304902151227;-0.010995574295520782;0.0036651913542300463
01:00:0A:00:00:00:00;1723680426;15/08/24;00:07:06;1.015;-0.018;0.071;-0.0012217304902151227;-0.012217304669320583;0.0024434609804302454
01:00:0A:00:00:00:00;1723680427;15/08/24;00:07:07;1.016;-0.017;0.072;-0.0012217304902151227;-0.010995574295520782;0.0036651913542300463
01:00:0A:00:00:00:00;1723680428;15/08/24;00:07:08;1.015;-0.018;0.073;-0.0012217304902151227;-0.012217304669320583;0.0036651913542300463
01:00:0A:00:00:00:00;1723680429;15/08/24;00:07:09;1.015;-0.018;0.071;-0.0012217304902151227;-0.012217304669320583;0.0024434609804302454
01:00:0A:00:00:00:00;1723680430;15/08/24;00:07:10;1.015;-0.018;0.071;-0.0012217304902151227;-0.010995574295520782;0.0036651913542300463
01:00:0A:00:00:00:00;1723680431;15/08/24;00:07:11;1.015;-0.019;0.072;-0.0012217304902151227;-0.012217304669320583;0.0036651913542300463
01:00:0A:00:00:00:00;1723680432;15/08/24;00:07:12;1.014;-0.019;0.071;-0.0012217304902151227;-0.012217304669320583;0.0024434609804302454
01:00:0A:00:00:00:00;1723680433;15/08/24;00:07:13;1.015;-0.018;0.072;-0.0012217304902151227;-0.010995574295520782;0.0036651913542300463
01:00:0A:00:00:00:00;1723680434;15/08/24;00:07:14;1.015;-0.018;0.072;-0.0012217304902151227;-0.012217304669320583;0.0036651913542300463
01:00:0A:00:00:00:00;1723680435;15/08/24;00:07:15;1.015;-0.018;0.071;0.0;-0.012217304669320583;0.0036651913542300463
01:00:0A:00:00:00:00;1723680436;15/08/24;00:07:16;1.015;-0.018;0.072;-0.0012217304902151227;-0.010995574295520782;0.0036651913542300463
01:00:0A:00:00:00:00;1723680437;15/08/24;00:07:17;1.015;-0.018;0.071;0.0;-0.012217304669320583;0.0036651913542300463
01:00:0A:00:00:00:00;1723680438;15/08/24;00:07:18;1.015;-0.019;0.071;0.0;-0.010995574295520782;0.0024434609804302454
01:00:0A:00:00:00:00;1723680439;15/08/24;00:07:19;1.014;-0.018;0.072;0.0;-0.010995574295520782;0.0036651913542300463
01:00:0A:00:00:00:00;1723680440;15/08/24;00:07:20;1.015;-0.018;0.072;0.0;-0.012217304669320583;0.0036651913542300463
01:00:0A:00:00:00:00;1723680441;15/08/24;00:07:21;1.014;-0.019;0.071;0.0;-0.012217304669320583;0.0036651913542300463
01:00:0A:00:00:00:00;1723680442;15/08/24;00:07:22;1.015;-0.019;0.072;0.0;-0.010995574295520782;0.0036651913542300463
01:00:0A:00:00:00:00;1723680443;15/08/24;00:07:23;1.014;-0.018;0.072;0.0;-0.012217304669320583;0.0024434609804302454
01:00:0A:00:00:00:00;1723680444;15/08/24;00:07:24;1.014;-0.018;0.071;0.0;-0.010995574295520782;0.0036651913542300463
01:00:0A:00:00:00:00;1723680445;15/08/24;00:07:25;1.014;-0.019;0.071;0.0;-0.010995574295520782;0.0036651913542300463
01:00:0A:00:00:00:00;1723680446;15/08/24;00:07:26;1.015;-0.019;0.072;0.0;-0.012217304669320583;0.0024434609804302454
01:00:0A:00:00:00:00;1723680447;15/08/24;00:07:27;1.015;-0.018;0.072;0.0;-0.010995574295520782;0.0036651913542300463
01:00:0A:00:00:00:00;1723680448;15/08/24;00:07:28;1.015;-0.018;0.071;0.0;-0.010995574295520782;0.0036651913542300463
01:00:0A:00:00:00:00;1723680449;15/08/24;00:07:29;1.016;-0.019;0.071;0.0;-0.012217304669320583;0.0024434609804302454
01:00:0A:00:00:00:00;1723680450;15/08/24;00:07:30;1.013;-0.018;0.072;0.0;-0.010995574295520782;0.0036651913542300463
01:00:0A:00:00:00:00;1723680451;15/08/24;00:07:31;1.015;-0.019;0.071;0.0;-0.010995574295520782;0.0036651913542300463
01:00:0A:00:00:00:00;1723680452;15/08/24;00:07:32;1.015;-0.018;0.072;0.0;-0.012217304669320583;0.0036651913542300463
01:00:0A:00:00:00:00;1723680453;15/08/24;00:07:33;1.015;-0.017;0.072;0.0;-0.010995574295520782;0.0036651913542300463
01:00:0A:00:00:00:00;1723680454;15/08/24;00:07:34;1.015;-0.019;0.071;0.0;-0.010995574295520782;0.0036651913542300463
01:00:0A:00:00:00:00;1723680455;15/08/24;00:07:35;1.015;-0.019;0.072;0.0;-0.010995574295520782;0.0024434609804302454
01:00:0A:00:00:00:00;1723680456;15/08/24;00:07:36;1.015;-0.019;0.071;0.0;-0.010995574295520782;0.0036651913542300463
01:00:0A:00:00:00:00;1723680457;15/08/24;00:07:37;1.014;-0.017;0.072;0.0;-0.010995574295520782;0.0036651913542300463
01:00:0A:00:00:00:00;1723680458;15/08/24;00:07:38;1.015;-0.018;0.071;0.0;-0.010995574295520782;0.0036651913542300463
01:00:0A:00:00:00:00;1723680459;15/08/24;00:07:39;1.015;-0.018;0.072;0.0;-0.010995574295520782;0.0036651913542300463
01:00:0A:00:00:00:00;1723680460;15/08/24;00:07:40;1.016;-0.017;0.071;0.0;-0.010995574295520782;0.0036651913542300463
01:00:0A:00:00:00:00;1723680461;15/08/24;00:07:41;1.015;-0.018;0.071;0.0;-0.012217304669320583;0.0036651913542300463
01:00:0A:00:00:00:00;1723680462;15/08/24;00:07:42;1.016;-0.017;0.071;0.0;-0.010995574295520782;0.0036651913542300463
01:00:0A:00:00:00:00;1723680463;15/08/24;00:07:43;1.015;-0.018;0.071;0.0;-0.010995574295520782;0.0036651913542300463
01:00:0A:00:00:00:00;1723680464;15/08/24;00:07:44;1.016;-0.018;0.071;0.0;-0.010995574295520782;0.0036651913542300463
01:00:0A:00:00:00:00;1723680465;15/08/24;00:07:45;1.014;-0.018;0.072;0.0;-0.010995574295520782;0.0036651913542300463
01:00:0A:00:00:00:00;1723680466;15/08/24;00:07:46;1.015;-0.018;0.071;0.0;-0.012217304669320583;0.0036651913542300463
01:00:0A:00:00:00:00;1723680467;15/08/24;00:07:47;1.015;-0.018;0.072;0.0;-0.012217304669320583;0.0036651913542300463
01:00:0A:00:00:00:00;1723680468;15/08/24;00:07:48;1.016;-0.018;0.071;0.0;-0.010995574295520782;0.0036651913542300463
01:00:0A:00:00:00:00;1723680469;15/08/24;00:07:49;1.015;-0.017;0.071;0.0;-0.010995574295520782;0.0036651913542300463
01:00:0A:00:00:00:00;1723680470;15/08/24;00:07:50;1.015;-0.018;0.071;0.0;-0.010995574295520782;0.0036651913542300463
01:00:0A:00:00:00:00;1723680471;15/08/24;00:07:51;1.015;-0.018;0.071;0.0;-0.010995574295520782;0.0036651913542300463
01:00:0A:00:00:00:00;1723680472;15/08/24;00:07:52;1.016;-0.018;0.071;0.0;-0.010995574295520782;0.0036651913542300463
01:00:0A:00:00:00:00;1723680473;15/08/24;00:07:53;1.016;-0.018;0.071;0.0;-0.010995574295520782;0.0036651913542300463
01:00:0A:00:00:00:00;1723680474;15/08/24;00:07:54;1.015;-0.019;0.071;0.0;-0.010995574295520782;0.0036651913542300463
01:00:0A:00:00:00:00;1723680475;15/08/24;00:07:55;1.015;-0.018;0.071;0.0;-0.010995574295520782;0.0036651913542300463
01:00:0A:00:00:00:00;1723680476;15/08/24;00:07:56;1.015;-0.018;0.071;0.0;-0.010995574295520782;0.0036651913542300463
01:00:0A:00:00:00:00;1723680477;15/08/24;00:07:57;1.016;-0.018;0.071;-0.0012217304902151227;-0.010995574295520782;0.0036651913542300463
01:00:0A:00:00:00:00;1723680478;15/08/24;00:07:58;1.015;-0.019;0.072;-0.0012217304902151227;-0.010995574295520782;0.0036651913542300463
01:00:0A:00:00:00:00;1723680479;15/08/24;00:07:59;1.015;-0.018;0.071;0.0;-0.012217304669320583;0.0036651913542300463
01:00:0A:00:00:00:00;1723680480;15/08/24;00:08:00;1.016;-0.018;0.071;0.0;-0.010995574295520782;0.0036651913542300463
01:00:0A:00:00:00:00;1723680481;15/08/24;00:08:01;1.016;-0.018;0.072;0.0;-0.012217304669320583;0.0036651913542300463
01:00:0A:00:00:00:00;1723680482;15/08/24;00:08:02;1.016;-0.018;0.071;-0.0012217304902151227;-0.010995574295520782;0.0036651913542300463
01:00:0A:00:00:00:00;1723680483;15/08/24;00:08:03;1.015;-0.019;0.072;0.0;-0.010995574295520782;0.0036651913542300463
01:00:0A:00:00:00:00;1723680484;15/08/24;00:08:04;1.016;-0.018;0.071;0.0;-0.010995574295520782;0.0036651913542300463
01:00:0A:00:00:00:00;1723680485;15/08/24;00:08:05;1.015;-0.018;0.072;0.0;-0.010995574295520782;0.0036651913542300463
01:00:0A:00:00:00:00;1723680486;15/08/24;00:08:06;1.015;-0.019;0.071;0.0;-0.010995574295520782;0.0036651913542300463
01:00:0A:00:00:00:00;1723680487;15/08/24;00:08:07;1.016;-0.018;0.071;0.0;-0.010995574295520782;0.0036651913542300463
01:00:0A:00:00:00:00;1723680488;15/08/24;00:08:08;1.016;-0.018;0.07;0.0;-0.010995574295520782;0.0036651913542300463
01:00:0A:00:00:00:00;1723680489;15/08/24;00:08:09;1.016;-0.017;0.07;0.0;-0.010995574295520782;0.0036651913542300463
01:00:0A:00:00:00:00;1723680490;15/08/24;00:08:10;1.016;-0.018;0.071;0.0;-0.010995574295520782;0.0036651913542300463
01:00:0A:00:00:00:00;1723680491;15/08/24;00:08:11;1.015;-0.017;0.072;0.0;-0.010995574295520782;0.0036651913542300463
01:00:0A:00:00:00:00;1723680492;15/08/24;00:08:12;1.015;-0.018;0.071;0.0;-0.010995574295520782;0.0036651913542300463
01:00:0A:00:00:00:00;1723680493;15/08/24;00:08:13;1.015;-0.018;0.072;0.0;-0.010995574295520782;0.0024434609804302454
01:00:0A:00:00:00:00;1723680494;15/08/24;00:08:14;1.015;-0.018;0.071;0.0012217304902151227;-0.010995574295520782;0.0036651913542300463
01:00:0A:00:00:00:00;1723680495;15/08/24;00:08:15;1.015;-0.019;0.071;0.0012217304902151227;-0.010995574295520782;0.0036651913542300463
01:00:0A:00:00:00:00;1723680496;15/08/24;00:08:16;1.016;-0.018;0.071;0.0012217304902151227;-0.012217304669320583;0.0036651913542300463
01:00:0A:00:00:00:00;1723680497;15/08/24;00:08:17;1.015;-0.017;0.072;0.0012217304902151227;-0.010995574295520782;0.0036651913542300463
01:00:0A:00:00:00:00;1723680498;15/08/24;00:08:18;1.015;-0.017;0.071;0.0012217304902151227;-0.012217304669320583;0.0036651913542300463
01:00:0A:00:00:00:00;1723680499;15/08/24;00:08:19;1.015;-0.019;0.072;0.0012217304902151227;-0.010995574295520782;0.0036651913542300463
01:00:0A:00:00:00:00;1723680500;15/08/24;00:08:20;1.015;-0.017;0.072;0.0012217304902151227;-0.010995574295520782;0.0036651913542300463
01:00:0A:00:00:00:00;1723680501;15/08/24;00:08:21;1.015;-0.019;0.071;0.0012217304902151227;-0.010995574295520782;0.0036651913542300463
01:00:0A:00:00:00:00;1723680502;15/08/24;00:08:22;1.015;-0.017;0.071;0.0012217304902151227;-0.010995574295520782;0.0036651913542300463
01:00:0A:00:00:00:00;1723680503;15/08/24;00:08:23;1.016;-0.019;0.071;0.0024434609804302454;-0.010995574295520782;0.0036651913542300463
01:00:0A:00:00:00:00;1723680504;15/08/24;00:08:24;1.014;-0.019;0.071;0.0024434609804302454;-0.012217304669320583;0.0036651913542300463
01:00:0A:00:00:00:00;1723680505;15/08/24;00:08:25;1.015;-0.019;0.071;0.0024434609804302454;-0.010995574295520782;0.004886921960860491
01:00:0A:00:00:00:00;1723680506;15/08/24;00:08:26;1.015;-0.02;0.072;0.0036651913542300463;-0.010995574295520782;0.0036651913542300463
01:00:0A:00:00:00:00;1723680507;15/08/24;00:08:27;1.015;-0.019;0.071;0.006108652334660292;-0.010995574295520782;0.0024434609804302454
01:00:0A:00:00:00:00;1723680508;15/08/24;00:08:28;1.016;-0.018;0.072;0.006108652334660292;-0.010995574295520782;0.0024434609804302454
01:00:0A:00:00:00:00;1723680509;15/08/24;00:08:29;1.014;-0.017;0.071;0.006108652334660292;-0.010995574295520782;0.004886921960860491
01:00:0A:00:00:00:00;1723680510;15/08/24;00:08:30;1.015;-0.019;0.071;0.006108652334660292;-0.012217304669320583;0.004886921960860491
01:00:0A:00:00:00:00;1723680511;15/08/24;00:08:31;1.015;-0.018;0.071;0.006108652334660292;-0.010995574295520782;0.0024434609804302454
01:00:0A:00:00:00:00;1723680512;15/08/24;00:08:32;1.015;-0.018;0.071;0.006108652334660292;-0.010995574295520782;0.004886921960860491
01:00:0A:00:00:00:00;1723680513;15/08/24;00:08:33;1.015;-0.018;0.072;0.006108652334660292;-0.010995574295520782;0.0036651913542300463
01:00:0A:00:00:00:00;1723680514;15/08/24;00:08:34;1.015;-0.018;0.071;0.006108652334660292;-0.012217304669320583;0.0024434609804302454
01:00:0A:00:00:00:00;1723680515;15/08/24;00:08:35;1.015;-0.018;0.071;0.006108652334660292;-0.010995574295520782;0.0036651913542300463
01:00:0A:00:00:00:00;1723680516;15/08/24;00:08:36;1.016;-0.019;0.071;0.006108652334660292;-0.010995574295520782;0.0036651913542300463
01:00:0A:00:00:00:00;1723680517;15/08/24;00:08:37;1.015;-0.018;0.071;0.006108652334660292;-0.010995574295520782;0.0036651913542300463
01:00:0A:00:00:00:00;1723680518;15/08/24;00:08:38;1.016;-0.017;0.073;0.006108652334660292;-0.010995574295520782;0.004886921960860491
01:00:0A:00:00:00:00;1723680519;15/08/24;00:08:39;1.015;-0.017;0.07;0.006108652334660292;-0.012217304669320583;0.0036651913542300463
01:00:0A:00:00:00:00;1723680520;15/08/24;00:08:40;1.016;-0.018;0.072;0.006108652334660292;-0.012217304669320583;0.0024434609804302454
01:00:0A:00:00:00:00;1723680521;15/08/24;00:08:41;1.015;-0.017;0.072;0.006108652334660292;-0.010995574295520782;0.004886921960860491
01:00:0A:00:00:00:00;1723680522;15/08/24;00:08:42;1.014;-0.019;0.071;0.006108652334660292;-0.010995574295520782;0.0036651913542300463
01:00:0A:00:00:00:00;1723680523;15/08/24;00:08:43;1.016;-0.017;0.072;0.006108652334660292;-0.010995574295520782;0.0036651913542300463
01:00:0A:00:00:00:00;1723680524;15/08/24;00:08:44;1.014;-0.018;0.072;0.006108652334660292;-0.010995574295520782;0.0036651913542300463
01:00:0A:00:00:00:00;1723680525;15/08/24;00:08:45;1.015;-0.019;0.072;0.006108652334660292;-0.010995574295520782;0.0036651913542300463
01:00:0A:00:00:00:00;1723680526;15/08/24;00:08:46;1.015;-0.018;0.071;0.006108652334660292;-0.010995574295520782;0.0036651913542300463
01:00:0A:00:00:00:00;1723680527;15/08/24;00:08:47;1.015;-0.019;0.07;0.006108652334660292;-0.010995574295520782;0.0036651913542300463
01:00:0A:00:00:00:00;1723680528;15/08/24;00:08:48;1.014;-0.018;0.071;0.006108652334660292;-0.010995574295520782;0.0036651913542300463
01:00:0A:00:00:00:00;1723680529;15/08/24;00:08:49;1.014;-0.018;0.072;0.006108652334660292;-0.010995574295520782;0.0036651913542300463
01:00:0A:00:00:00:00;1723680530;15/08/24;00:08:50;1.015;-0.018;0.071;0.006108652334660292;-0.012217304669320583;0.0036651913542300463
01:00:0A:00:00:00:00;1723680531;15/08/24;00:08:51;1.014;-0.019;0.071;0.006108652334660292;-0.010995574295520782;0.0036651913542300463
01:00:0A:00:00:00:00;1723680532;15/08/24;00:08:52;1.015;-0.018;0.072;0.006108652334660292;-0.010995574295520782;0.0036651913542300463
01:00:0A:00:00:00:00;1723680533;15/08/24;00:08:53;1.016;-0.018;0.072;0.006108652334660292;-0.010995574295520782;0.004886921960860491
01:00:0A:00:00:00:00;1723680534;15/08/24;00:08:54;1.016;-0.018;0.071;0.006108652334660292;-0.012217304669320583;0.0036651913542300463
01:00:0A:00:00:00:00;1723680535;15/08/24;00:08:55;1.015;-0.018;0.072;0.006108652334660292;-0.010995574295520782;0.0036651913542300463
01:00:0A:00:00:00:00;1723680536;15/08/24;00:08:56;1.014;-0.018;0.071;0.006108652334660292;-0.010995574295520782;0.0036651913542300463
01:00:0A:00:00:00:00;1723680537;15/08/24;00:08:57;1.016;-0.018;0.071;0.006108652334660292;-0.010995574295520782;0.0024434609804302454
01:00:0A:00:00:00:00;1723680538;15/08/24;00:08:58;1.015;-0.018;0.071;0.006108652334660292;-0.010995574295520782;0.0036651913542300463
01:00:0A:00:00:00:00;1723680539;15/08/24;00:08:59;1.015;-0.018;0.072;0.006108652334660292;-0.010995574295520782;0.0036651913542300463
01:00:0A:00:00:00:00;1723680540;15/08/24;00:09:00;1.015;-0.018;0.072;0.006108652334660292;-0.012217304669320583;0.0036651913542300463
01:00:0A:00:00:00:00;1723680541;15/08/24;00:09:01;1.016;-0.019;0.071;0.006108652334660292;-0.010995574295520782;0.0036651913542300463
01:00:0A:00:00:00:00;1723680542;15/08/24;00:09:02;1.016;-0.018;0.071;0.006108652334660292;-0.012217304669320583;0.0036651913542300463
01:00:0A:00:00:00:00;1723680543;15/08/24;00:09:03;1.014;-0.018;0.071;0.006108652334660292;-0.010995574295520782;0.0036651913542300463
01:00:0A:00:00:00:00;1723680544;15/08/24;00:09:04;1.015;-0.019;0.072;0.006108652334660292;-0.010995574295520782;0.0036651913542300463
01:00:0A:00:00:00:00;1723680545;15/08/24;00:09:05;1.015;-0.018;0.072;0.006108652334660292;-0.012217304669320583;0.0036651913542300463
01:00:0A:00:00:00:00;1723680546;15/08/24;00:09:06;1.015;-0.019;0.072;0.006108652334660292;-0.012217304669320583;0.0036651913542300463
01:00:0A:00:00:00:00;1723680547;15/08/24;00:09:07;1.015;-0.018;0.071;0.006108652334660292;-0.012217304669320583;0.0036651913542300463
01:00:0A:00:00:00:00;1723680548;15/08/24;00:09:08;1.015;-0.018;0.071;0.006108652334660292;-0.010995574295520782;0.0036651913542300463
01:00:0A:00:00:00:00;1723680549;15/08/24;00:09:09;1.015;-0.019;0.071;0.006108652334660292;-0.010995574295520782;0.004886921960860491
01:00:0A:00:00:00:00;1723680550;15/08/24;00:09:10;1.015;-0.019;0.071;0.0073303827084600925;-0.010995574295520782;0.0036651913542300463
01:00:0A:00:00:00:00;1723680551;15/08/24;00:09:11;1.014;-0.019;0.072;0.00855211354792118;-0.012217304669320583;0.0036651913542300463
01:00:0A:00:00:00:00;1723680552;15/08/24;00:09:12;1.015;-0.018;0.071;0.00855211354792118;-0.012217304669320583;0.0036651913542300463
01:00:0A:00:00:00:00;1723680553;15/08/24;00:09:13;1.024;0.149;0.066;-0.02321287989616394;-0.28099802136421204;-0.33964109420776367
01:00:0A:00:00:00:00;1723680554;15/08/24;00:09:14;0.896;0.475;-0.131;-0.3604104816913605;-0.9150761365890503;-1.007927656173706
01:00:0A:00:00:00:00;1723680555;15/08/24;00:09:15;1.016;-0.334;-0.048;-0.294437050819397;0.2223549485206604;0.6780604124069214
01:00:0A:00:00:00:00;1723680556;15/08/24;00:09:16;0.95;0.195;-0.389;-0.2528982162475586;1.1618657112121582;0.7867944240570068
01:00:0A:00:00:00:00;1723680557;15/08/24;00:09:17;0.81;-0.361;0.495;-0.485027015209198;0.18570303916931152;-0.4398229718208313
01:00:0A:00:00:00:00;1723680558;15/08/24;00:09:18;0.894;0.233;-0.294;-0.7733554244041443;-0.7110471129417419;0.5167919993400574
01:00:0A:00:00:00:00;1723680559;15/08/24;00:09:19;0.958;-0.218;-0.395;-0.4141666293144226;-0.2785545289516449;0.4202752709388733
01:00:0A:00:00:00:00;1723680560;15/08/24;00:09:20;1.036;0.065;0.041;-0.42271876335144043;0.17592918872833252;-0.2883284091949463
01:00:0A:00:00:00:00;1723680561;15/08/24;00:09:21;1.04;0.192;-0.018;-0.6927211880683899;-1.1716395616531372;1.0189231634140015
01:00:0A:00:00:00:00;1723680562;15/08/24;00:09:22;0.911;-0.45;-0.217;-0.5778785347938538;0.34697145223617554;0.3836233615875244
01:00:0A:00:00:00:00;1723680563;15/08/24;00:09:23;0.953;0.278;-0.054;-0.6096435189247131;-1.204626202583313;-0.32498031854629517
01:00:0A:00:00:00:00;1723680564;15/08/24;00:09:24;1.042;-0.305;0.046;-0.3078760802745819;0.6707300543785095;-0.5400049090385437
01:00:0A:00:00:00:00;1723680565;15/08/24;00:09:25;0.868;0.415;0.381;-1.25593900680542;-0.50335294008255;0.040317103266716
01:00:0A:00:00:00:00;1723680566;15/08/24;00:09:26;1.013;0.127;-0.167;-1.5906931161880493;-0.3335324227809906;0.07208210229873657
01:00:0A:00:00:00:00;1723680567;15/08/24;00:09:27;0.957;-0.364;0.294;-1.5943583250045776;0.5510004162788391;0.10995574295520782
01:00:0A:00:00:00:00;1723680568;15/08/24;00:09:28;0.943;-0.138;0.353;-1.4257594347000122;0.040317103266716;-0.8613200187683105
01:00:0A:00:00:00:00;1723680569;15/08/24;00:09:29;0.821;0.171;0.139;-1.3255774974822998;-0.04642575979232788;-2.465452194213867
01:00:0A:00:00:00:00;1723680570;15/08/24;00:09:30;0.997;-0.17;0.053;-1.6077972650527954;-0.28099802136421204;0.720820963382721
01:00:0A:00:00:00:00;1723680571;15/08/24;00:09:31;1.012;0.217;-0.164;-1.0152579545974731;0.4544837474822998;-0.6352998614311218
01:00:0A:00:00:00:00;1723680572;15/08/24;00:09:32;0.795;0.621;0.265;-1.4465289115905762;-0.9443976283073425;-0.3090977966785431
01:00:0A:00:00:00:00;1723680573;15/08/24;00:09:33;0.972;0.015;0.099;-1.577254056930542;0.06963863223791122;-0.26511549949645996
01:00:0A:00:00:00:00;1723680574;15/08/24;00:09:34;0.95;-0.211;0.188;-1.1178834438323975;-0.8906415700912476;-0.28099802136421204
01:00:0A:00:00:00:00;1723680575;15/08/24;00:09:35;0.991;0.169;0.036;-0.7990117073059082;0.6878342032432556;-0.04886921867728233
01:00:0A:00:00:00:00;1723680576;15/08/24;00:09:36;0.961;-0.463;0.102;-0.6817255616188049;-0.14782939851284027;-0.20036379992961884
01:00:0A:00:00:00:00;1723680577;15/08/24;00:09:37;0.972;0.332;0.177;-0.6084217429161072;-0.0757472887635231;-0.445931613445282
01:00:0A:00:00:00:00;1723680578;15/08/24;00:09:38;1.049;0.028;0.192;-0.8063421249389648;-0.8246681094169617;-0.15515977144241333
01:00:0A:00:00:00:00;1723680579;15/08/24;00:09:39;0.868;0.526;-0.097;-0.5949827432632446;0.0024434609804302454;-0.5754350423812866
01:00:0A:00:00:00:00;1723680580;15/08/24;00:09:40;1.009;0.15;0.135;-0.6377432942390442;-0.40072759985923767;0.31642818450927734
01:00:0A:00:00:00:00;1723680581;15/08/24;00:09:41;0.914;-0.014;0.023;-0.4300491213798523;0.07819075137376785;0.051312677562236786
01:00:0A:00:00:00:00;1723680582;15/08/24;00:09:42;0.814;-0.377;-0.385;-1.929112434387207;0.2577851116657257;1.4257594347000122
01:00:0A:00:00:00:00;1723680583;15/08/24;00:09:43;0.752;-0.692;-0.206;-1.1423180103302002;1.5760324001312256;0.13072516024112701
01:00:0A:00:00:00:00;1723680584;15/08/24;00:09:44;0.882;0.089;0.495;-1.1997392177581787;-0.22968533635139465;-1.2547171115875244
01:00:0A:00:00:00:00;1723680585;15/08/24;00:09:45;0.995;0.111;0.083;-1.754404902458191;-1.1545352935791016;0.14416420459747314
01:00:0A:00:00:00:00;1723680586;15/08/24;00:09:46;0.863;0.282;-0.513;-0.3433062732219696;-0.445931613445282;-0.44348815083503723
01:00:0A:00:00:00:00;1723680587;15/08/24;00:09:47;0.894;0.351;-0.335;1.1533136367797852;0.41172316670417786;-0.22846359014511108
01:00:0A:00:00:00:00;1723680588;15/08/24;00:09:48;0.773;0.689;-0.406;0.4911356568336487;-1.1398744583129883;-1.175304651260376
01:00:0A:00:00:00:00;1723680589;15/08/24;00:09:49;0.788;0.34;-0.199;-0.009773843921720982;-1.9755382537841797;-2.059837579727173
01:00:0A:00:00:00:00;1723680590;15/08/24;00:09:50;0.89;-0.034;0.316;0.03176499158143997;1.6786577701568604;0.32131510972976685
01:00:0A:00:00:00:00;1723680591;15/08/24;00:09:51;0.783;0.106;-0.714;-0.8344419002532959;-0.2125810980796814;0.6731734871864319
01:00:0A:00:00:00:00;1723680592;15/08/24;00:09:52;0.704;0.055;-0.67;-0.9944885969161987;0.42271876335144043;1.3854423761367798
01:00:0A:00:00:00:00;1723680593;15/08/24;00:09:53;0.981;-0.344;-0.182;-2.367713689804077;0.16982054710388184;0.1417207270860672
01:00:0A:00:00:00:00;1723680594;15/08/24;00:09:54;1.038;-0.152;-0.165;-2.470339059829712;0.14905111491680145;0.9566149115562439
01:00:0A:00:00:00:00;1723680595;15/08/24;00:09:55;1.13;-0.295;0.374;-2.4544565677642822;-0.02687807008624077;-0.3445279896259308
01:00:0A:00:00:00:00;1723680596;15/08/24;00:09:56;0.529;-0.65;0.644;-0.43737950921058655;0.7464773058891296;0.15882496535778046
01:00:0A:00:00:00:00;1723680597;15/08/24;00:09:57;0.98;-0.304;0.248;0.38240164518356323;-0.9126326441764832;-0.37629297375679016
01:00:0A:00:00:00:00;1723680598;15/08/24;00:09:58;0.83;0.279;0.458;0.01710422709584236;-0.3933972120285034;-1.0616837739944458
01:00:0A:00:00:00:00;1723680599;15/08/24;00:09:59;0.977;-0.311;0.058;-0.9969320893287659;0.4190535545349121;0.07452555745840073
01:00:0A:00:00:00:00;1723680600;15/08/24;00:10:00;1.068;-0.244;0.133;-1.038470983505249;-0.051312677562236786;-0.6316346526145935
01:00:0A:00:00:00:00;1723680601;15/08/24;00:10:01;1.132;0.108;-0.082;-1.1191051006317139;-0.5229006409645081;0.5302309989929199
01:00:0A:00:00:00:00;1723680602;15/08/24;00:10:02;0.896;-0.321;-0.558;-0.5949827432632446;0.9065240025520325;-0.019547687843441963
01:00:0A:00:00:00:00;1723680603;15/08/24;00:10:03;0.647;0.463;0.56;-1.3255774974822998;-0.30543261766433716;-0.3127630054950714
01:00:0A:00:00:00:00;1723680604;15/08/24;00:10:04;1.03;-0.024;0.018;-2.02929425239563;-1.1044443845748901;0.2981022298336029
01:00:0A:00:00:00:00;1723680605;15/08/24;00:10:05;0.893;-0.386;-0.009;0.32620203495025635;-0.4153883755207062;-1.2009611129760742
01:00:0A:00:00:00:00;1723680606;15/08/24;00:10:06;0.903;-0.221;0.363;0.32131510972976685;0.940732479095459;-1.25593900680542
01:00:0A:00:00:00:00;1723680607;15/08/24;00:10:07;0.912;-0.456;-0.368;-0.11484266817569733;1.1789698600769043;0.1722639948129654
01:00:0A:00:00:00:00;1723680608;15/08/24;00:10:08;0.822;-0.334;-0.51;0.2675589621067047;1.3072515726089478;1.026253581047058
01:00:0A:00:00:00:00;1723680609;15/08/24;00:10:09;0.971;0.038;0.233;-0.6633996367454529;-0.862541675567627;-0.7159340977668762
01:00:0A:00:00:00:00;1723680610;15/08/24;00:10:10;0.857;-0.056;-0.319;-0.7220427393913269;0.38240164518356323;0.47280970215797424
01:00:0A:00:00:00:00;1723680611;15/08/24;00:10:11;0.756;0.227;0.589;-2.3774876594543457;1.480737328529358;-0.9847148060798645
01:00:0A:00:00:00:00;1723680612;15/08/24;00:10:12;0.921;-0.202;0.474;-2.381152629852295;0.7367035150527954;-1.7873917818069458
01:00:0A:00:00:00:00;1723680613;15/08/24;00:10:13;1.085;-0.034;0.045;-3.9987239837646484;0.5900958180427551;0.32498031854629517
01:00:0A:00:00:00:00;1723680614;15/08/24;00:10:14;0.989;-0.221;-0.226;-2.80875825881958;1.4294246435165405;0.7415903806686401
01:00:0A:00:00:00:00;1723680615;15/08/24;00:10:15;0.632;0.446;0.48;-1.0934487581253052;-1.3903292417526245;-0.46181410551071167
01:00:0A:00:00:00:00;1723680616;15/08/24;00:10:16;0.84;-0.587;0.408;-1.478293776512146;0.6230825185775757;1.056796908378601
01:00:0A:00:00:00:00;1723680617;15/08/24;00:10:17;0.878;0.365;0.309;-1.606575608253479;0.4544837474822998;-0.9456194043159485
01:00:0A:00:00:00:00;1723680618;15/08/24;00:10:18;0.963;-0.184;-0.396;-1.8533650636672974;-0.875980794429779;0.03298672288656235
01:00:0A:00:00:00:00;1723680619;15/08/24;00:10:19;0.953;-0.436;0.217;-1.2681562900543213;0.5045746564865112;0.7733554244041443
01:00:0A:00:00:00:00;1723680620;15/08/24;00:10:20;0.882;-0.478;-0.241;-0.0757472887635231;0.13439035415649414;-0.5925393104553223
01:00:0A:00:00:00:00;1723680621;15/08/24;00:10:21;0.97;0.273;0.081;0.20891590416431427;0.0708603635430336;-0.24068090319633484
01:00:0A:00:00:00:00;1723680622;15/08/24;00:10:22;1.017;-0.18;-0.046;0.09040805697441101;0.2321287840604782;0.8869763016700745
01:00:0A:00:00:00:00;1723680623;15/08/24;00:10:23;0.981;-0.163;0.209;0.49724429845809937;0.1514945775270462;-0.3237585723400116
01:00:0A:00:00:00:00;1723680624;15/08/24;00:10:24;1.005;-0.051;-0.095;0.36651912331581116;-0.07941248267889023;0.3433062732219696
01:00:0A:00:00:00:00;1723680625;15/08/24;00:10:25;0.937;-0.146;0.343;0.4764748811721802;0.1514945775270462;-0.31154125928878784
01:00:0A:00:00:00:00;1723680626;15/08/24;00:10:26;0.764;0.065;0.708;-0.22602014243602753;-0.059864792972803116;-0.1869247555732727
01:00:0A:00:00:00:00;1723680627;15/08/24;00:10:27;1.011;-0.132;-0.232;-0.6206390857696533;-0.9517280459403992;0.07452555745840073
01:00:0A:00:00:00:00;1723680628;15/08/24;00:10:28;0.955;-0.28;-0.198;0.17837265133857727;0.9969320893287659;-0.4593706727027893
01:00:0A:00:00:00:00;1723680629;15/08/24;00:10:29;0.849;0.014;0.579;-0.01710422709584236;-0.20647244155406952;0.2321287840604782
01:00:0A:00:00:00:00;1723680630;15/08/24;00:10:30;1.007;-0.181;0.04;-0.18081611394882202;-0.5583308339118958;-0.1417207270860672
01:00:0A:00:00:00:00;1723680631;15/08/24;00:10:31;0.977;0.083;-0.226;0.1514945775270462;0.2871066629886627;-0.32009339332580566
01:00:0A:00:00:00:00;1723680632;15/08/24;00:10:32;0.999;-0.177;0.182;0.09773843735456467;0.20402899384498596;0.45204028487205505
01:00:0A:00:00:00:00;1723680633;15/08/24;00:10:33;1.045;-0.05;0.094;0.23945917189121246;-0.959058403968811;-0.8747590184211731
01:00:0A:00:00:00:00;1723680634;15/08/24;00:10:34;0.979;-0.352;-0.158;-0.042760565876960754;0.50335294008255;0.8087855577468872
01:00:0A:00:00:00:00;1723680635;15/08/24;00:10:35;0.875;0.133;0.489;-0.22846359014511108;-0.00855211354792118;-1.0971139669418335
01:00:0A:00:00:00:00;1723680636;15/08/24;00:10:36;0.926;0.488;-0.112;-1.3353514671325684;-1.197295904159546;0.3933972120285034
01:00:0A:00:00:00:00;1723680637;15/08/24;00:10:37;0.948;-0.137;-0.509;-2.2235496044158936;0.485027015209198;0.6145303845405579
01:00:0A:00:00:00:00;1723680638;15/08/24;00:10:38;1.003;-0.428;0.098;-1.441641926765442;0.9431759119033813;-0.24678954482078552
01:00:0A:00:00:00:00;1723680639;15/08/24;00:10:39;0.775;-0.419;0.625;-1.3316861391067505;0.4715879559516907;-0.6817255616188049
01:00:0A:00:00:00:00;1723680640;15/08/24;00:10:40;1.05;0.11;0.227;-1.1325441598892212;-0.45814892649650574;-1.1985175609588623
01:00:0A:00:00:00:00;1723680641;15/08/24;00:10:41;1.064;-0.007;0.13;0.3628539443016052;-0.5705481767654419;0.08185594528913498
01:00:0A:00:00:00:00;1723680642;15/08/24;00:10:42;0.883;0.044;0.572;-0.3946189284324646;-1.263269305229187;-0.8943067193031311
01:00:0A:00:00:00:00;1723680643;15/08/24;00:10:43;0.894;-0.04;0.538;0.3347541391849518;1.4672983884811401;-0.08552113175392151
01:00:0A:00:00:00:00;1723680644;15/08/24;00:10:44;0.894;-0.247;0.519;0.5668829083442688;-0.19058994948863983;0.21013763546943665
01:00:0A:00:00:00:00;1723680645;15/08/24;00:10:45;0.934;-0.226;0.12;0.11850785464048386;1.0763444900512695;-0.08552113175392151
01:00:0A:00:00:00:00;1723680646;15/08/24;00:10:46;0.943;0.038;0.132;0.013439035043120384;-0.43860122561454773;0.2577851116657257
01:00:0A:00:00:00:00;1723680647;15/08/24;00:10:47;1.011;0.054;0.19;0.2480112910270691;0.2577851116657257;-0.4862487316131592
01:00:0A:00:00:00:00;1723680648;15/08/24;00:10:48;1.017;-0.021;-0.022;-0.27122414112091064;-0.08185594528913498;0.27611109614372253
01:00:0A:00:00:00:00;1723680649;15/08/24;00:10:49;0.914;0.066;0.258;-0.8014551997184753;-1.6652185916900635;-0.949284553527832
01:00:0A:00:00:00:00;1723680650;15/08/24;00:10:50;1.019;0.037;-0.166;-0.8967502117156982;0.28099802136421204;1.3145819902420044
01:00:0A:00:00:00:00;1723680651;15/08/24;00:10:51;0.881;-0.502;0.137;-0.47280970215797424;0.33597588539123535;0.2736676335334778
01:00:0A:00:00:00:00;1723680652;15/08/24;00:10:52;0.954;-0.318;0.104;1.292590856552124;-0.6377432942390442;-0.42760565876960754
01:00:0A:00:00:00:00;1723680653;15/08/24;00:10:53;1.107;0.296;-0.084;0.3543018400669098;-1.0042624473571777;0.2687807083129883
01:00:0A:00:00:00:00;1723680654;15/08/24;00:10:54;0.943;-0.033;0.464;0.042760565876960754;-1.1508700847625732;-0.03176499158143997
01:00:0A:00:00:00:00;1723680655;15/08/24;00:10:55;0.799;0.201;0.516;-0.5326744914054871;-0.5925393104553223;-1.7018704414367676
01:00:0A:00:00:00:00;1723680656;15/08/24;00:10:56;0.884;0.4;0.265;-1.82404363155365;-0.8955284357070923;-0.08674286305904388
01:00:0A:00:00:00:00;1723680657;15/08/24;00:10:57;0.815;0.141;-0.396;-2.1368067264556885;-0.2981022298336029;0.6438519358634949
01:00:0A:00:00:00:00;1723680658;15/08/24;00:10:58;0.894;-0.188;0.34;-2.2088887691497803;0.41783180832862854;0.05009094998240471
01:00:0A:00:00:00:00;1723680659;15/08/24;00:10:59;0.956;0.065;0.232;-2.2602014541625977;0.24190263450145721;-0.7513642311096191
01:00:0A:00:00:00:00;1723680660;15/08/24;00:11:00;0.865;-0.687;0.095;-0.5363396406173706;0.3433062732219696;-0.21868975460529327
01:00:0A:00:00:00:00;1723680661;15/08/24;00:11:01;0.994;-0.245;0.056;-1.0225883722305298;0.34208452701568604;-0.47280970215797424
01:00:0A:00:00:00:00;1723680662;15/08/24;00:11:02;0.999;-0.318;0.268;-0.8295549750328064;0.6047565937042236;0.20891590416431427
01:00:0A:00:00:00:00;1723680663;15/08/24;00:11:03;1.018;-0.13;0.213;-1.2950342893600464;-0.5009095072746277;-0.4483751058578491
01:00:0A:00:00:00:00;1723680664;15/08/24;00:11:04;0.994;-0.214;0.184;-1.2278391122817993;0.48869219422340393;-0.07696902006864548
01:00:0A:00:00:00:00;1723680665;15/08/24;00:11:05;0.928;-0.103;0.315;-1.222952127456665;0.3323107063770294;-0.6719517707824707
01:00:0A:00:00:00:00;1723680666;15/08/24;00:11:06;0.941;-0.127;0.433;-1.215621829032898;-0.5400049090385437;-0.720820963382721
01:00:0A:00:00:00:00;1723680667;15/08/24;00:11:07;0.953;0.197;0.034;-1.3365731239318848;-0.3152064383029938;-0.3640756905078888
01:00:0A:00:00:00:00;1723680668;15/08/24;00:11:08;1.002;0.024;0.005;-1.4721851348876953;-0.6316346526145935;0.040317103266716
01:00:0A:00:00:00:00;1723680669;15/08/24;00:11:09;0.83;0.153;0.235;-0.645073652267456;-0.9627236127853394;-0.24190263450145721
01:00:0A:00:00:00:00;1723680670;15/08/24;00:11:10;0.999;0.056;0.196;-0.7049384713172913;0.49724429845809937;0.7538076639175415
01:00:0A:00:00:00:00;1723680671;15/08/24;00:11:11;0.967;-0.264;-0.107;-0.3787364363670349;-0.12095131725072861;-0.11484266817569733
01:00:0A:00:00:00:00;1723680672;15/08/24;00:11:12;0.993;0.181;0.138;-0.3090977966785431;-0.2431243658065796;-0.19058994948863983
01:00:0A:00:00:00:00;1723680673;15/08/24;00:11:13;0.899;0.203;-0.383;-0.6743952035903931;-0.9749408960342407;0.34697145223617554
01:00:0A:00:00:00:00;1723680674;15/08/24;00:11:14;0.973;-0.309;0.135;-0.4043927788734436;1.0873401165008545;0.40194931626319885
01:00:0A:00:00:00:00;1723680675;15/08/24;00:11:15;0.932;0.034;0.459;-0.6963863372802734;-0.11972958594560623;-0.6548475623130798
01:00:0A:00:00:00:00;1723680676;15/08/24;00:11:16;1.007;0.101;-0.089;-0.875980794429779;-0.6621779203414917;0.1722639948129654
01:00:0A:00:00:00:00;1723680677;15/08/24;00:11:17;0.971;-0.154;-0.162;-0.513126790523529;0.2321287840604782;0.3995058536529541
01:00:0A:00:00:00:00;1723680678;15/08/24;00:11:18;0.97;-0.19;0.145;-0.2773328125476837;0.35674530267715454;-0.11972958594560623
01:00:0A:00:00:00:00;1723680679;15/08/24;00:11:19;0.984;-0.04;0.07;-0.294437050819397;-0.34574973583221436;-0.16004669666290283
01:00:0A:00:00:00:00;1723680680;15/08/24;00:11:20;0.991;0.002;-0.032;-0.1661553531885147;0.2015855312347412;0.11850785464048386
01:00:0A:00:00:00:00;1723680681;15/08/24;00:11:21;1.013;-0.076;0.114;-0.10018189996480942;0.06108652427792549;-0.04886921867728233
01:00:0A:00:00:00:00;1723680682;15/08/24;00:11:22;1.025;-0.033;0.13;-0.12828169763088226;-0.10018189996480942;0.02321287989616394
01:00:0A:00:00:00:00;1723680683;15/08/24;00:11:23;1.03;-0.14;0.018;-0.05009094998240471;-0.11484266817569733;0.059864792972803116
01:00:0A:00:00:00:00;1723680684;15/08/24;00:11:24;1.025;0.028;-0.034;-1.1178834438323975;-0.3127630054950714;-0.21502456068992615
01:00:0A:00:00:00:00;1723680685;15/08/24;00:11:25;1.009;-0.044;0.002;-1.292590856552124;0.05375614017248154;0.18325956165790558
01:00:0A:00:00:00:00;1723680686;15/08/24;00:11:26;0.955;0.046;-0.318;-0.8051203489303589;0.05253440886735916;-0.042760565876960754
01:00:0A:00:00:00:00;1723680687;15/08/24;00:11:27;1.024;-0.104;0.161;-0.5241223573684692;0.3836233615875244;0.39706242084503174
01:00:0A:00:00:00:00;1723680688;15/08/24;00:11:28;1.002;-0.252;0.157;-0.43249258399009705;-0.07330382615327835;-0.322536826133728
01:00:0A:00:00:00:00;1723680689;15/08/24;00:11:29;0.991;0.251;0.1;-0.45814892649650574;0.015882495790719986;-0.24434609711170197
01:00:0A:00:00:00:00;1723680690;15/08/24;00:11:30;1.022;-0.06;0.073;-0.5974262356758118;-0.2577851116657257;0.38606682419776917
01:00:0A:00:00:00:00;1723680691;15/08/24;00:11:31;1.005;-0.108;-0.042;-0.32498031854629517;0.07696902006864548;-0.08674286305904388
01:00:0A:00:00:00:00;1723680692;15/08/24;00:11:32;0.975;-0.015;0.22;-0.2736676335334778;0.19547687470912933;-0.04764748737215996
01:00:0A:00:00:00:00;1723680693;15/08/24;00:11:33;0.998;-0.055;0.069;-0.39706242084503174;-0.3836233615875244;-0.09529497474431992
01:00:0A:00:00:00:00;1723680694;15/08/24;00:11:34;1.001;-0.052;-0.095;-0.22968533635139465;0.09896016865968704;0.33597588539123535
01:00:0A:00:00:00:00;1723680695;15/08/24;00:11:35;1.005;-0.11;0.168;-0.08429940044879913;0.20036379992961884;-0.13927726447582245
01:00:0A:00:00:00:00;1723680696;15/08/24;00:11:36;1.01;0.077;0.166;-0.24923302233219147;-0.21502456068992615;-0.18081611394882202
01:00:0A:00:00:00:00;1723680697;15/08/24;00:11:37;1.01;-0.027;-0.102;-0.251676470041275;-0.15271630883216858;0.13927726447582245
01:00:0A:00:00:00:00;1723680698;15/08/24;00:11:38;0.996;-0.122;0.102;-0.09773843735456467;0.28099802136421204;0.0757472887635231
01:00:0A:00:00:00:00;1723680699;15/08/24;00:11:39;0.987;-0.005;0.173;-0.1820378452539444;-0.16249015927314758;-0.19425514340400696
01:00:0A:00:00:00:00;1723680700;15/08/24;00:11:40;0.994;0.056;0.026;-0.2370157092809677;-0.09529497474431992;0.09040805697441101
01:00:0A:00:00:00:00;1723680701;15/08/24;00:11:41;1.015;-0.056;0.053;-0.1368338167667389;0.21502456068992615;0.040317103266716
01:00:0A:00:00:00:00;1723680702;15/08/24;00:11:42;1.017;-0.073;0.138;-0.1466076523065567;-0.05742133408784866;-0.17959438264369965
01:00:0A:00:00:00:00;1723680703;15/08/24;00:11:43;1.035;0.085;0.02;-0.1966986060142517;-0.08185594528913498;-0.01710422709584236
01:00:0A:00:00:00:00;1723680704;15/08/24;00:11:44;1.024;-0.105;0.043;-0.16371189057826996;0.02076941914856434;0.1466076523065567
01:00:0A:00:00:00:00;1723680705;15/08/24;00:11:45;0.998;-0.055;0.117;-0.10751228034496307;0.03787364438176155;-0.14049901068210602
01:00:0A:00:00:00:00;1723680706;15/08/24;00:11:46;0.996;0.002;0.073;-0.17470745742321014;-0.14294245839118958;0.0354301817715168
01:00:0A:00:00:00:00;1723680707;15/08/24;00:11:47;0.999;-0.055;0.038;-0.12339477241039276;0.07208210229873657;0.07819075137376785
01:00:0A:00:00:00:00;1723680708;15/08/24;00:11:48;1.016;-0.06;0.091;-0.08185594528913498;0.03787364438176155;-0.09285151958465576
01:00:0A:00:00:00:00;1723680709;15/08/24;00:11:49;1.021;0.009;0.068;-0.1258382350206375;-0.08185594528913498;-0.0073303827084600925
01:00:0A:00:00:00:00;1723680710;15/08/24;00:11:50;1.025;-0.047;0.029;-0.10995574295520782;-0.018325956538319588;0.05864306166768074
01:00:0A:00:00:00:00;1723680711;15/08/24;00:11:51;1.018;-0.057;0.096;-0.07330382615327835;0.019547687843441963;-0.03787364438176155
01:00:0A:00:00:00:00;1723680712;15/08/24;00:11:52;1.017;-0.003;0.088;-0.09407324343919754;-0.06841690838336945;-0.05009094998240471
01:00:0A:00:00:00:00;1723680713;15/08/24;00:11:53;1.021;-0.035;0.047;-0.09040805697441101;0.009773843921720982;0.080634206533432
01:00:0A:00:00:00:00;1723680714;15/08/24;00:11:54;1.02;-0.067;0.069;-0.045204028487205505;0.07819075137376785;-0.02687807008624077
01:00:0A:00:00:00:00;1723680715;15/08/24;00:11:55;1.02;0.011;0.097;-0.06963863223791122;-0.015882495790719986;-0.059864792972803116
01:00:0A:00:00:00:00;1723680716;15/08/24;00:11:56;1.014;-0.041;0.025;-0.08552113175392151;-0.06475171446800232;0.07696902006864548
01:00:0A:00:00:00:00;1723680717;15/08/24;00:11:57;1.001;-0.054;0.084;-0.02932153083384037;0.06108652427792549;-0.0073303827084600925
01:00:0A:00:00:00:00;1723680718;15/08/24;00:11:58;1.001;-0.01;0.076;-0.06841690838336945;-0.12217304855585098;-0.01710422709584236
01:00:0A:00:00:00:00;1723680719;15/08/24;00:11:59;1.007;-0.013;0.036;-0.03420845419168472;0.04398229718208313;0.024434609338641167
01:00:0A:00:00:00:00;1723680720;15/08/24;00:12:00;1.009;-0.04;0.105;-0.015882495790719986;0.0073303827084600925;-0.07941248267889023
01:00:0A:00:00:00:00;1723680721;15/08/24;00:12:01;1.025;-0.024;0.066;-0.02687807008624077;-0.051312677562236786;-0.02932153083384037
01:00:0A:00:00:00:00;1723680722;15/08/24;00:12:02;1.032;-0.048;0.051;-0.009773843921720982;0.028099799528717995;0.04153883829712868
01:00:0A:00:00:00:00;1723680723;15/08/24;00:12:03;1.026;-0.05;0.079;-0.0024434609804302454;0.030543262138962746;0.05864306166768074
01:00:0A:00:00:00:00;1723680724;15/08/24;00:12:04;1.007;-0.012;0.064;0.0024434609804302454;-0.019547687843441963;-0.030543262138962746
01:00:0A:00:00:00:00;1723680725;15/08/24;00:12:05;0.998;-0.009;0.046;-0.0024434609804302454;-0.045204028487205505;0.02076941914856434
01:00:0A:00:00:00:00;1723680726;15/08/24;00:12:06;1.001;-0.053;0.069;0.028099799528717995;0.028099799528717995;-0.045204028487205505
01:00:0A:00:00:00:00;1723680727;15/08/24;00:12:07;1.018;-0.029;0.085;-0.0012217304902151227;-0.0659734457731247;-0.00855211354792118
01:00:0A:00:00:00:00;1723680728;15/08/24;00:12:08;1.039;-0.046;0.04;0.012217304669320583;0.02321287989616394;0.04764748737215996
01:00:0A:00:00:00:00;1723680729;15/08/24;00:12:09;1.026;-0.029;0.102;0.02321287989616394;0.042760565876960754;0.0024434609804302454
01:00:0A:00:00:00:00;1723680730;15/08/24;00:12:10;0.996;-0.035;0.053;-0.0012217304902151227;-0.08918632566928864;0.015882495790719986
01:00:0A:00:00:00:00;1723680731;15/08/24;00:12:11;0.983;-0.027;0.067;0.039095375686883926;0.06719517707824707;-0.014660765416920185
01:00:0A:00:00:00:00;1723680732;15/08/24;00:12:12;1.008;-0.028;0.082;-0.0024434609804302454;-0.09773843735456467;0.014660765416920185
01:00:0A:00:00:00:00;1723680733;15/08/24;00:12:13;1.044;-0.042;0.031;0.028099799528717995;0.004886921960860491;-0.014660765416920185
01:00:0A:00:00:00:00;1723680734;15/08/24;00:12:14;1.035;-0.016;0.115;0.021991148591041565;0.02932153083384037;-0.006108652334660292
01:00:0A:00:00:00:00;1723680735;15/08/24;00:12:15;1.01;-0.049;0.047;-0.006108652334660292;-0.08796459436416626;0.04886921867728233
01:00:0A:00:00:00:00;1723680736;15/08/24;00:12:16;0.998;-0.034;0.062;0.03787364438176155;0.05497787147760391;-0.018325956538319588
01:00:0A:00:00:00:00;1723680737;15/08/24;00:12:17;1.008;-0.026;0.078;0.0012217304902151227;-0.07452555745840073;0.03298672288656235
01:00:0A:00:00:00:00;1723680738;15/08/24;00:12:18;1.024;-0.041;0.042;0.024434609338641167;0.0036651913542300463;-0.012217304669320583
01:00:0A:00:00:00:00;1723680739;15/08/24;00:12:19;1.02;-0.022;0.087;0.021991148591041565;0.0;-0.009773843921720982
01:00:0A:00:00:00:00;1723680740;15/08/24;00:12:20;1.016;-0.034;0.059;0.0024434609804302454;-0.04764748737215996;0.014660765416920185
01:00:0A:00:00:00:00;1723680741;15/08/24;00:12:21;1.018;-0.037;0.06;0.02321287989616394;0.009773843921720982;-0.02076941914856434
01:00:0A:00:00:00:00;1723680742;15/08/24;00:12:22;1.027;-0.026;0.078;0.0073303827084600925;-0.018325956538319588;0.012217304669320583
01:00:0A:00:00:00:00;1723680743;15/08/24;00:12:23;1.019;-0.04;0.063;0.0024434609804302454;-0.021991148591041565;0.02932153083384037
01:00:0A:00:00:00:00;1723680744;15/08/24;00:12:24;0.994;-0.022;0.068;0.0073303827084600925;-0.02076941914856434;0.0
01:00:0A:00:00:00:00;1723680745;15/08/24;00:12:25;0.989;-0.073;0.067;0.09162978082895279;-0.025656338781118393;0.09285151958465576
01:00:0A:00:00:00:00;1723680746;15/08/24;00:12:26;1.017;-0.072;0.072;0.2028072476387024;-0.02687807008624077;-0.1576032191514969
01:00:0A:00:00:00:00;1723680747;15/08/24;00:12:27;1.039;0.009;0.032;0.17592918872833252;-0.009773843921720982;0.07208210229873657
01:00:0A:00:00:00:00;1723680748;15/08/24;00:12:28;1.019;-0.094;0.094;0.18448130786418915;0.0659734457731247;0.06230825558304787
01:00:0A:00:00:00:00;1723680749;15/08/24;00:12:29;1.001;-0.002;0.046;0.15882496535778046;-0.09773843735456467;-0.06475171446800232
01:00:0A:00:00:00:00;1723680750;15/08/24;00:12:30;0.991;-0.013;0.04;0.1673770695924759;0.05497787147760391;0.09407324343919754
01:00:0A:00:00:00:00;1723680751;15/08/24;00:12:31;1.018;-0.06;0.095;0.1661553531885147;-0.051312677562236786;-0.030543262138962746
01:00:0A:00:00:00:00;1723680752;15/08/24;00:12:32;1.039;-0.02;0.052;0.1576032191514969;-0.05497787147760391;-0.02076941914856434
01:00:0A:00:00:00:00;1723680753;15/08/24;00:12:33;1.027;-0.027;0.047;0.17470745742321014;0.03176499158143997;0.040317103266716
01:00:0A:00:00:00:00;1723680754;15/08/24;00:12:34;1.004;-0.053;0.094;0.16371189057826996;0.018325956538319588;0.024434609338641167
01:00:0A:00:00:00:00;1723680755;15/08/24;00:12:35;0.999;-0.02;0.047;0.1466076523065567;-0.09651670604944229;-0.04153883829712868
01:00:0A:00:00:00:00;1723680756;15/08/24;00:12:36;1.011;-0.026;0.051;0.1673770695924759;0.06719517707824707;0.05009094998240471
01:00:0A:00:00:00:00;1723680757;15/08/24;00:12:37;1.021;-0.047;0.116;0.14416420459747314;-0.024434609338641167;-0.0073303827084600925
01:00:0A:00:00:00:00;1723680758;15/08/24;00:12:38;1.023;-0.01;0.032;0.12828169763088226;-0.05497787147760391;0.0073303827084600925
01:00:0A:00:00:00:00;1723680759;15/08/24;00:12:39;1.016;-0.048;0.064;0.15393804013729095;0.05497787147760391;0.028099799528717995
01:00:0A:00:00:00:00;1723680760;15/08/24;00:12:40;1.012;-0.02;0.091;0.12095131725072861;-0.06230825558304787;-0.014660765416920185
01:00:0A:00:00:00:00;1723680761;15/08/24;00:12:41;1.016;-0.031;0.044;0.1160643920302391;-0.024434609338641167;0.036651913076639175
01:00:0A:00:00:00:00;1723680762;15/08/24;00:12:42;1.009;-0.03;0.081;0.13439035415649414;0.03787364438176155;-0.014660765416920185
01:00:0A:00:00:00:00;1723680763;15/08/24;00:12:43;1.003;-0.026;0.076;0.10018189996480942;-0.030543262138962746;0.009773843921720982
01:00:0A:00:00:00:00;1723680764;15/08/24;00:12:44;1.013;-0.043;0.048;0.09896016865968704;-0.030543262138962746;0.00855211354792118
01:00:0A:00:00:00:00;1723680765;15/08/24;00:12:45;1.018;-0.037;0.062;0.10995574295520782;0.00855211354792118;-0.010995574295520782
01:00:0A:00:00:00:00;1723680766;15/08/24;00:12:46;1.025;-0.016;0.091;0.08429940044879913;-0.025656338781118393;0.025656338781118393
01:00:0A:00:00:00:00;1723680767;15/08/24;00:12:47;1.019;-0.04;0.046;0.08185594528913498;-0.03420845419168472;0.02321287989616394
01:00:0A:00:00:00:00;1723680768;15/08/24;00:12:48;1.007;-0.025;0.087;0.10262535512447357;0.039095375686883926;-0.03298672288656235
01:00:0A:00:00:00:00;1723680769;15/08/24;00:12:49;1.009;-0.023;0.08;0.05864306166768074;-0.05864306166768074;0.02687807008624077
01:00:0A:00:00:00:00;1723680770;15/08/24;00:12:50;1.016;-0.044;0.04;0.07941248267889023;0.012217304669320583;0.009773843921720982
01:00:0A:00:00:00:00;1723680771;15/08/24;00:12:51;1.021;-0.017;0.089;0.07819075137376785;0.019547687843441963;-0.009773843921720982
01:00:0A:00:00:00:00;1723680772;15/08/24;00:12:52;1.019;-0.032;0.051;0.05009094998240471;-0.05742133408784866;0.030543262138962746
01:00:0A:00:00:00:00;1723680773;15/08/24;00:12:53;1.009;-0.04;0.068;0.07208210229873657;0.024434609338641167;-0.006108652334660292
01:00:0A:00:00:00:00;1723680774;15/08/24;00:12:54;1.007;-0.026;0.073;0.05253440886735916;-0.0354301817715168;0.004886921960860491
01:00:0A:00:00:00:00;1723680775;15/08/24;00:12:55;1.014;-0.026;0.056;0.05253440886735916;-0.0073303827084600925;0.02076941914856434
01:00:0A:00:00:00:00;1723680776;15/08/24;00:12:56;1.021;-0.03;0.072;0.05497787147760391;-0.00855211354792118;0.0012217304902151227
01:00:0A:00:00:00:00;1723680777;15/08/24;00:12:57;1.024;-0.029;0.063;0.04764748737215996;-0.019547687843441963;-0.006108652334660292
01:00:0A:00:00:00:00;1723680778;15/08/24;00:12:58;1.016;-0.025;0.073;0.04398229718208313;-0.006108652334660292;0.013439035043120384
01:00:0A:00:00:00:00;1723680779;15/08/24;00:12:59;1.01;-0.042;0.06;0.04153883829712868;-0.02076941914856434;0.024434609338641167
01:00:0A:00:00:00:00;1723680780;15/08/24;00:13:00;1.007;-0.022;0.069;0.051312677562236786;0.010995574295520782;-0.019547687843441963
01:00:0A:00:00:00:00;1723680781;15/08/24;00:13:01;1.011;-0.024;0.063;0.02932153083384037;-0.03298672288656235;0.030543262138962746
01:00:0A:00:00:00:00;1723680782;15/08/24;00:13:02;1.017;-0.042;0.057;0.04764748737215996;0.006108652334660292;-0.012217304669320583
01:00:0A:00:00:00:00;1723680783;15/08/24;00:13:03;1.016;-0.013;0.077;0.03787364438176155;-0.025656338781118393;-0.004886921960860491
01:00:0A:00:00:00:00;1723680784;15/08/24;00:13:04;1.016;-0.042;0.056;0.030543262138962746;-0.021991148591041565;0.028099799528717995
01:00:0A:00:00:00:00;1723680785;15/08/24;00:13:05;1.016;-0.03;0.07;0.04764748737215996;0.004886921960860491;-0.02687807008624077
01:00:0A:00:00:00:00;1723680786;15/08/24;00:13:06;1.016;-0.023;0.066;0.02932153083384037;-0.024434609338641167;0.021991148591041565
01:00:0A:00:00:00:00;1723680787;15/08/24;00:13:07;1.014;-0.037;0.062;0.03298672288656235;-0.01710422709584236;0.004886921960860491
01:00:0A:00:00:00:00;1723680788;15/08/24;00:13:08;1.012;-0.027;0.07;0.0354301817715168;-0.013439035043120384;0.0024434609804302454
01:00:0A:00:00:00:00;1723680789;15/08/24;00:13:09;1.017;-0.034;0.074;0.03298672288656235;-0.00855211354792118;-0.0012217304902151227
01:00:0A:00:00:00:00;1723680790;15/08/24;00:13:10;1.016;-0.021;0.066;0.03298672288656235;0.0;0.0073303827084600925
01:00:0A:00:00:00:00;1723680791;15/08/24;00:13:11;1.018;-0.04;0.062;0.030543262138962746;-0.006108652334660292;0.015882495790719986
01:00:0A:00:00:00:00;1723680792;15/08/24;00:13:12;1.013;-0.021;0.06;0.030543262138962746;-0.02321287989616394;-0.006108652334660292
01:00:0A:00:00:00:00;1723680793;15/08/24;00:13:13;1.009;-0.032;0.064;0.02321287989616394;-0.030543262138962746;0.03176499158143997
01:00:0A:00:00:00:00;1723680794;15/08/24;00:13:14;1.006;-0.035;0.07;0.0354301817715168;-0.006108652334660292;-0.03176499158143997
01:00:0A:00:00:00:00;1723680795;15/08/24;00:13:15;1.011;-0.015;0.07;0.021991148591041565;-0.014660765416920185;0.015882495790719986
01:00:0A:00:00:00:00;1723680796;15/08/24;00:13:16;1.021;-0.044;0.062;0.02321287989616394;-0.010995574295520782;0.009773843921720982
01:00:0A:00:00:00:00;1723680797;15/08/24;00:13:17;1.023;-0.027;0.07;0.028099799528717995;-0.00855211354792118;-0.014660765416920185
01:00:0A:00:00:00:00;1723680798;15/08/24;00:13:18;1.019;-0.031;0.065;0.018325956538319588;-0.018325956538319588;0.028099799528717995
01:00:0A:00:00:00:00;1723680799;15/08/24;00:13:19;1.014;-0.035;0.07;0.025656338781118393;0.0024434609804302454;-0.0024434609804302454
01:00:0A:00:00:00:00;1723680800;15/08/24;00:13:20;1.009;-0.024;0.064;0.02076941914856434;-0.012217304669320583;0.009773843921720982
01:00:0A:00:00:00:00;1723680801;15/08/24;00:13:21;1.012;-0.032;0.061;0.021991148591041565;-0.015882495790719986;0.004886921960860491
01:00:0A:00:00:00:00;1723680802;15/08/24;00:13:22;1.012;-0.029;0.062;0.02321287989616394;-0.015882495790719986;0.0
01:00:0A:00:00:00:00;1723680803;15/08/24;00:13:23;1.017;-0.032;0.07;0.02321287989616394;-0.010995574295520782;0.0036651913542300463
01:00:0A:00:00:00:00;1723680804;15/08/24;00:13:24;1.017;-0.024;0.067;0.021991148591041565;-0.015882495790719986;-0.0024434609804302454
01:00:0A:00:00:00:00;1723680805;15/08/24;00:13:25;1.016;-0.031;0.064;0.019547687843441963;-0.00855211354792118;0.02321287989616394
01:00:0A:00:00:00:00;1723680806;15/08/24;00:13:26;1.011;-0.029;0.066;0.02321287989616394;-0.021991148591041565;-0.010995574295520782
01:00:0A:00:00:00:00;1723680807;15/08/24;00:13:27;1.007;-0.026;0.065;0.021991148591041565;-0.012217304669320583;0.004886921960860491
01:00:0A:00:00:00:00;1723680808;15/08/24;00:13:28;1.015;-0.033;0.072;0.02321287989616394;-0.010995574295520782;0.0036651913542300463
01:00:0A:00:00:00:00;1723680809;15/08/24;00:13:29;1.021;-0.027;0.064;0.02321287989616394;-0.013439035043120384;0.0036651913542300463
01:00:0A:00:00:00:00;1723680810;15/08/24;00:13:30;1.023;-0.029;0.065;0.02076941914856434;-0.012217304669320583;0.018325956538319588
01:00:0A:00:00:00:00;1723680811;15/08/24;00:13:31;1.016;-0.027;0.064;0.024434609338641167;-0.018325956538319588;0.0
01:00:0A:00:00:00:00;1723680812;15/08/24;00:13:32;1.007;-0.026;0.07;0.024434609338641167;-0.009773843921720982;0.0024434609804302454
01:00:0A:00:00:00:00;1723680813;15/08/24;00:13:33;1.01;-0.029;0.067;0.02321287989616394;-0.014660765416920185;0.0024434609804302454
01:00:0A:00:00:00:00;1723680814;15/08/24;00:13:34;1.016;-0.032;0.063;0.025656338781118393;-0.0024434609804302454;0.006108652334660292
01:00:0A:00:00:00:00;1723680815;15/08/24;00:13:35;1.018;-0.032;0.067;0.024434609338641167;-0.014660765416920185;0.0036651913542300463
01:00:0A:00:00:00:00;1723680816;15/08/24;00:13:36;1.016;-0.028;0.067;0.025656338781118393;-0.014660765416920185;0.0024434609804302454
01:00:0A:00:00:00:00;1723680817;15/08/24;00:13:37;1.014;-0.03;0.068;0.025656338781118393;-0.006108652334660292;0.013439035043120384
01:00:0A:00:00:00:00;1723680818;15/08/24;00:13:38;1.014;-0.027;0.069;0.02687807008624077;-0.012217304669320583;0.0036651913542300463
01:00:0A:00:00:00:00;1723680819;15/08/24;00:13:39;1.016;-0.031;0.065;0.025656338781118393;-0.013439035043120384;0.0073303827084600925
01:00:0A:00:00:00:00;1723680820;15/08/24;00:13:40;1.018;-0.032;0.068;0.02932153083384037;-0.012217304669320583;0.0
01:00:0A:00:00:00:00;1723680821;15/08/24;00:13:41;1.017;-0.028;0.067;0.028099799528717995;-0.013439035043120384;-0.0036651913542300463
01:00:0A:00:00:00:00;1723680822;15/08/24;00:13:42;1.016;-0.031;0.065;0.02687807008624077;-0.00855211354792118;0.015882495790719986
01:00:0A:00:00:00:00;1723680823;15/08/24;00:13:43;1.013;-0.031;0.067;0.028099799528717995;-0.009773843921720982;0.0073303827084600925
01:00:0A:00:00:00:00;1723680824;15/08/24;00:13:44;1.011;-0.029;0.066;0.028099799528717995;-0.013439035043120384;0.0
01:00:0A:00:00:00:00;1723680825;15/08/24;00:13:45;1.014;-0.029;0.068;0.028099799528717995;-0.018325956538319588;-0.0036651913542300463
01:00:0A:00:00:00:00;1723680826;15/08/24;00:13:46;1.016;-0.03;0.066;0.02932153083384037;-0.013439035043120384;-0.0012217304902151227
01:00:0A:00:00:00:00;1723680827;15/08/24;00:13:47;1.021;-0.03;0.07;0.025656338781118393;-0.010995574295520782;0.014660765416920185
01:00:0A:00:00:00:00;1723680828;15/08/24;00:13:48;1.016;-0.029;0.065;0.025656338781118393;-0.00855211354792118;0.015882495790719986
01:00:0A:00:00:00:00;1723680829;15/08/24;00:13:49;1.013;-0.027;0.067;0.02687807008624077;-0.0073303827084600925;0.004886921960860491
01:00:0A:00:00:00:00;1723680830;15/08/24;00:13:50;1.008;-0.023;0.063;0.025656338781118393;-0.018325956538319588;-0.0012217304902151227
01:00:0A:00:00:00:00;1723680831;15/08/24;00:13:51;1.013;-0.029;0.065;0.025656338781118393;-0.010995574295520782;0.0
01:00:0A:00:00:00:00;1723680832;15/08/24;00:13:52;1.019;-0.029;0.069;0.02321287989616394;-0.012217304669320583;0.009773843921720982
01:00:0A:00:00:00:00;1723680833;15/08/24;00:13:53;1.017;-0.032;0.07;0.024434609338641167;-0.010995574295520782;0.004886921960860491
01:00:0A:00:00:00:00;1723680834;15/08/24;00:13:54;1.016;-0.029;0.065;0.02321287989616394;-0.009773843921720982;0.006108652334660292
01:00:0A:00:00:00:00;1723680835;15/08/24;00:13:55;1.01;-0.028;0.066;0.02321287989616394;-0.0073303827084600925;0.0024434609804302454
01:00:0A:00:00:00:00;1723680836;15/08/24;00:13:56;1.012;-0.029;0.065;0.019547687843441963;-0.019547687843441963;0.004886921960860491
01:00:0A:00:00:00:00;1723680837;15/08/24;00:13:57;1.015;-0.029;0.066;0.021991148591041565;-0.006108652334660292;0.00855211354792118
01:00:0A:00:00:00:00;1723680838;15/08/24;00:13:58;1.014;-0.032;0.071;0.019547687843441963;-0.013439035043120384;0.0
01:00:0A:00:00:00:00;1723680839;15/08/24;00:13:59;1.016;-0.03;0.064;0.019547687843441963;-0.013439035043120384;0.0
01:00:0A:00:00:00:00;1723680840;15/08/24;00:14:00;1.015;-0.027;0.067;0.018325956538319588;-0.012217304669320583;0.0024434609804302454
01:00:0A:00:00:00:00;1723680841;15/08/24;00:14:01;1.015;-0.029;0.068;0.01710422709584236;-0.010995574295520782;0.006108652334660292
01:00:0A:00:00:00:00;1723680842;15/08/24;00:14:02;1.013;-0.029;0.069;0.01710422709584236;-0.0073303827084600925;0.0036651913542300463
01:00:0A:00:00:00:00;1723680843;15/08/24;00:14:03;1.015;-0.032;0.066;0.015882495790719986;-0.015882495790719986;-0.0024434609804302454
01:00:0A:00:00:00:00;1723680844;15/08/24;00:14:04;1.017;-0.029;0.066;0.014660765416920185;-0.014660765416920185;0.004886921960860491
01:00:0A:00:00:00:00;1723680845;15/08/24;00:14:05;1.016;-0.03;0.067;0.014660765416920185;-0.014660765416920185;0.006108652334660292
01:00:0A:00:00:00:00;1723680846;15/08/24;00:14:06;1.014;-0.027;0.068;0.014660765416920185;-0.0036651913542300463;0.006108652334660292
01:00:0A:00:00:00:00;1723680847;15/08/24;00:14:07;1.01;-0.029;0.067;0.014660765416920185;-0.004886921960860491;0.004886921960860491
01:00:0A:00:00:00:00;1723680848;15/08/24;00:14:08;1.012;-0.029;0.063;0.013439035043120384;-0.019547687843441963;-0.0036651913542300463
01:00:0A:00:00:00:00;1723680849;15/08/24;00:14:09;1.016;-0.028;0.063;0.014660765416920185;-0.015882495790719986;0.0012217304902151227
01:00:0A:00:00:00:00;1723680850;15/08/24;00:14:10;1.017;-0.027;0.07;0.013439035043120384;-0.015882495790719986;0.0024434609804302454
01:00:0A:00:00:00:00;1723680851;15/08/24;00:14:11;1.02;-0.031;0.068;0.014660765416920185;-0.004886921960860491;0.00855211354792118
01:00:0A:00:00:00:00;1723680852;15/08/24;00:14:12;1.014;-0.03;0.068;0.015882495790719986;-0.0036651913542300463;0.004886921960860491
01:00:0A:00:00:00:00;1723680853;15/08/24;00:14:13;1.012;-0.028;0.063;0.013439035043120384;-0.02076941914856434;0.004886921960860491
01:00:0A:00:00:00:00;1723680854;15/08/24;00:14:14;1.011;-0.027;0.065;0.015882495790719986;-0.009773843921720982;0.006108652334660292
01:00:0A:00:00:00:00;1723680855;15/08/24;00:14:15;1.014;-0.029;0.07;0.014660765416920185;-0.01710422709584236;0.0
01:00:0A:00:00:00:00;1723680856;15/08/24;00:14:16;1.017;-0.031;0.066;0.01710422709584236;-0.004886921960860491;0.0
01:00:0A:00:00:00:00;1723680857;15/08/24;00:14:17;1.016;-0.03;0.068;0.015882495790719986;-0.015882495790719986;0.0012217304902151227
01:00:0A:00:00:00:00;1723680858;15/08/24;00:14:18;1.018;-0.03;0.065;0.015882495790719986;-0.010995574295520782;0.00855211354792118
01:00:0A:00:00:00:00;1723680859;15/08/24;00:14:19;1.014;-0.028;0.067;0.01710422709584236;-0.00855211354792118;0.012217304669320583
01:00:0A:00:00:00:00;1723680860;15/08/24;00:14:20;1.015;-0.028;0.065;0.01710422709584236;-0.013439035043120384;0.006108652334660292
01:00:0A:00:00:00:00;1723680861;15/08/24;00:14:21;1.015;-0.027;0.066;0.018325956538319588;-0.012217304669320583;0.0
01:00:0A:00:00:00:00;1723680862;15/08/24;00:14:22;1.016;-0.027;0.065;0.015882495790719986;-0.021991148591041565;0.0012217304902151227
01:00:0A:00:00:00:00;1723680863;15/08/24;00:14:23;1.016;-0.03;0.067;0.018325956538319588;-0.009773843921720982;0.004886921960860491
01:00:0A:00:00:00:00;1723680864;15/08/24;00:14:24;1.015;-0.028;0.068;0.018325956538319588;-0.004886921960860491;0.00855211354792118
01:00:0A:00:00:00:00;1723680865;15/08/24;00:14:25;1.012;-0.029;0.072;0.015882495790719986;0.03298672288656235;0.0
01:00:0A:00:00:00:00;1723680866;15/08/24;00:14:26;1.014;-0.05;0.105;-0.19303341209888458;-0.010995574295520782;0.009773843921720982
01:00:0A:00:00:00:00;1723680867;15/08/24;00:14:27;1.013;-0.025;0.07;-0.2626720666885376;-0.028099799528717995;-0.039095375686883926
01:00:0A:00:00:00:00;1723680868;15/08/24;00:14:28;1.016;-0.023;0.074;-0.25045475363731384;-0.01710422709584236;0.0024434609804302454
01:00:0A:00:00:00:00;1723680869;15/08/24;00:14:29;1.016;-0.037;0.062;-0.22968533635139465;-0.00855211354792118;-0.0036651913542300463
01:00:0A:00:00:00:00;1723680870;15/08/24;00:14:30;1.016;-0.03;0.067;-0.20891590416431427;0.012217304669320583;-0.009773843921720982
01:00:0A:00:00:00:00;1723680871;15/08/24;00:14:31;1.014;-0.028;0.072;-0.2076941877603531;-0.019547687843441963;0.0
01:00:0A:00:00:00:00;1723680872;15/08/24;00:14:32;1.014;-0.028;0.061;-0.19547687470912933;-0.01710422709584236;-0.009773843921720982
01:00:0A:00:00:00:00;1723680873;15/08/24;00:14:33;1.015;-0.029;0.07;-0.18325956165790558;0.0024434609804302454;0.0
01:00:0A:00:00:00:00;1723680874;15/08/24;00:14:34;1.014;-0.034;0.073;-0.17959438264369965;-0.01710422709584236;-0.0073303827084600925
01:00:0A:00:00:00:00;1723680875;15/08/24;00:14:35;1.016;-0.027;0.059;-0.17104226350784302;-0.009773843921720982;-0.0036651913542300463
01:00:0A:00:00:00:00;1723680876;15/08/24;00:14:36;1.016;-0.032;0.07;-0.16004669666290283;0.0036651913542300463;0.0036651913542300463
01:00:0A:00:00:00:00;1723680877;15/08/24;00:14:37;1.016;-0.032;0.071;-0.1576032191514969;-0.019547687843441963;-0.0073303827084600925
01:00:0A:00:00:00:00;1723680878;15/08/24;00:14:38;1.014;-0.026;0.059;-0.14905111491680145;-0.015882495790719986;-0.004886921960860491
01:00:0A:00:00:00:00;1723680879;15/08/24;00:14:39;1.013;-0.031;0.07;-0.1417207270860672;0.0012217304902151227;0.006108652334660292
01:00:0A:00:00:00:00;1723680880;15/08/24;00:14:40;1.013;-0.032;0.066;-0.13561207056045532;-0.015882495790719986;-0.013439035043120384
01:00:0A:00:00:00:00;1723680881;15/08/24;00:14:41;1.015;-0.025;0.064;-0.12828169763088226;-0.0036651913542300463;-0.0012217304902151227
01:00:0A:00:00:00:00;1723680882;15/08/24;00:14:42;1.016;-0.033;0.067;-0.12461651116609573;-0.012217304669320583;0.0073303827084600925
01:00:0A:00:00:00:00;1723680883;15/08/24;00:14:43;1.016;-0.029;0.065;-0.1160643920302391;-0.014660765416920185;-0.010995574295520782
01:00:0A:00:00:00:00;1723680884;15/08/24;00:14:44;1.017;-0.018;0.049;-0.11484266817569733;-0.03787364438176155;-0.0036651913542300463
01:00:0A:00:00:00:00;1723680885;15/08/24;00:14:45;1.016;-0.03;0.053;-0.08918632566928864;0.03176499158143997;0.018325956538319588
01:00:0A:00:00:00:00;1723680886;15/08/24;00:14:46;1.018;-0.031;0.06;-0.08796459436416626;-0.015882495790719986;-0.0012217304902151227
01:00:0A:00:00:00:00;1723680887;15/08/24;00:14:47;1.016;-0.028;0.06;-0.07819075137376785;-0.0024434609804302454;0.0024434609804302454
01:00:0A:00:00:00:00;1723680888;15/08/24;00:14:48;1.015;-0.03;0.074;-0.07696902006864548;-0.010995574295520782;-0.0012217304902151227
01:00:0A:00:00:00:00;1723680889;15/08/24;00:14:49;1.016;-0.028;0.067;-0.07819075137376785;-0.019547687843441963;0.0
01:00:0A:00:00:00:00;1723680890;15/08/24;00:14:50;1.016;-0.03;0.061;-0.06841690838336945;0.0024434609804302454;0.0024434609804302454
01:00:0A:00:00:00:00;1723680891;15/08/24;00:14:51;1.015;-0.032;0.071;-0.06719517707824707;-0.004886921960860491;0.0012217304902151227
01:00:0A:00:00:00:00;1723680892;15/08/24;00:14:52;1.014;-0.026;0.062;-0.06841690838336945;-0.025656338781118393;-0.006108652334660292
01:00:0A:00:00:00:00;1723680893;15/08/24;00:14:53;1.014;-0.028;0.062;-0.06108652427792549;0.0;0.00855211354792118
01:00:0A:00:00:00:00;1723680894;15/08/24;00:14:54;1.015;-0.033;0.074;-0.06108652427792549;-0.013439035043120384;0.0
01:00:0A:00:00:00:00;1723680895;15/08/24;00:14:55;1.014;-0.026;0.061;-0.05864306166768074;-0.014660765416920185;-0.006108652334660292
01:00:0A:00:00:00:00;1723680896;15/08/24;00:14:56;1.016;-0.03;0.066;-0.05375614017248154;-0.0012217304902151227;0.0073303827084600925
01:00:0A:00:00:00:00;1723680897;15/08/24;00:14:57;1.015;-0.031;0.069;-0.05253440886735916;-0.012217304669320583;-0.0012217304902151227
01:00:0A:00:00:00:00;1723680898;15/08/24;00:14:58;1.016;-0.028;0.064;-0.051312677562236786;-0.012217304669320583;0.0
01:00:0A:00:00:00:00;1723680899;15/08/24;00:14:59;1.015;-0.029;0.065;-0.04886921867728233;-0.009773843921720982;0.0073303827084600925
01:00:0A:00:00:00:00;1723680900;15/08/24;00:15:00;1.014;-0.032;0.067;-0.04398229718208313;-0.00855211354792118;-0.0024434609804302454
01:00:0A:00:00:00:00;1723680901;15/08/24;00:15:01;1.015;-0.027;0.067;-0.045204028487205505;-0.018325956538319588;-0.0036651913542300463
01:00:0A:00:00:00:00;1723680902;15/08/24;00:15:02;1.015;-0.027;0.065;-0.04153883829712868;-0.006108652334660292;0.00855211354792118
01:00:0A:00:00:00:00;1723680903;15/08/24;00:15:03;1.016;-0.034;0.069;-0.040317103266716;-0.010995574295520782;0.0036651913542300463
01:00:0A:00:00:00:00;1723680904;15/08/24;00:15:04;1.016;-0.027;0.062;-0.03787364438176155;-0.018325956538319588;-0.0012217304902151227
01:00:0A:00:00:00:00;1723680905;15/08/24;00:15:05;1.014;-0.028;0.065;-0.03298672288656235;-0.0036651913542300463;0.0036651913542300463
01:00:0A:00:00:00:00;1723680906;15/08/24;00:15:06;1.014;-0.031;0.07;-0.03420845419168472;-0.01710422709584236;-0.0012217304902151227
01:00:0A:00:00:00:00;1723680907;15/08/24;00:15:07;1.014;-0.027;0.063;-0.03176499158143997;-0.012217304669320583;-0.0024434609804302454
01:00:0A:00:00:00:00;1723680908;15/08/24;00:15:08;1.016;-0.031;0.067;-0.02932153083384037;-0.0073303827084600925;0.0073303827084600925
01:00:0A:00:00:00:00;1723680909;15/08/24;00:15:09;1.015;-0.031;0.064;-0.02687807008624077;-0.013439035043120384;-0.0012217304902151227
01:00:0A:00:00:00:00;1723680910;15/08/24;00:15:10;1.016;-0.026;0.068;-0.024434609338641167;-0.0073303827084600925;0.0
01:00:0A:00:00:00:00;1723680911;15/08/24;00:15:11;1.015;-0.03;0.067;-0.02687807008624077;-0.015882495790719986;0.0073303827084600925
01:00:0A:00:00:00:00;1723680912;15/08/24;00:15:12;1.014;-0.029;0.063;-0.021991148591041565;-0.006108652334660292;0.0012217304902151227
01:00:0A:00:00:00:00;1723680913;15/08/24;00:15:13;1.016;-0.029;0.067;-0.021991148591041565;-0.015882495790719986;0.0
01:00:0A:00:00:00:00;1723680914;15/08/24;00:15:14;1.016;-0.028;0.061;-0.019547687843441963;-0.0073303827084600925;0.0036651913542300463
01:00:0A:00:00:00:00;1723680915;15/08/24;00:15:15;1.016;-0.03;0.072;-0.019547687843441963;-0.0024434609804302454;-0.009773843921720982
01:00:0A:00:00:00:00;1723680916;15/08/24;00:15:16;1.015;-0.021;0.065;-0.028099799528717995;-0.02321287989616394;0.0073303827084600925
01:00:0A:00:00:00:00;1723680917;15/08/24;00:15:17;1.015;-0.035;0.061;-0.021991148591041565;-0.006108652334660292;0.009773843921720982
01:00:0A:00:00:00:00;1723680918;15/08/24;00:15:18;1.015;-0.029;0.068;-0.01710422709584236;-0.010995574295520782;-0.014660765416920185
01:00:0A:00:00:00:00;1723680919;15/08/24;00:15:19;1.014;-0.025;0.065;-0.02076941914856434;-0.010995574295520782;0.010995574295520782
